File: Data_Lola/CoNiFeNx_400ºC_24h_13102022/Electrodes_20012023/Set 1/2023_01_20_CoNiFeNx_400ºC_24h_electrode2_set1_20012023_1_C01.mpt
EC-Lab ASCII FILE
Nb header lines : 57

Cyclic Voltammetry

Run on channel : 1 (SN 21648)
User :
CE vs. WE compliance from -10 V to 10 V
Electrode connection : standard
Potential control : Ewe
Ewe ctrl range : min = -2.50 V, max = 2.50 V
Safety Limits :
	Do not start on E overload
Acquisition started on : 01/20/2023 15:58:04.450
Loaded Setting File :  NONE
Saved on :
	File : 2023_01_20_CoNiFeNx_400ºC_24h_electrode2_set1_20012023_1_C01.mpr
	Directory : C:\Users\grupogalan\Documents\EC-Lab\Data\Lole Jurado\
	Host : 169.254.104.159
Device : VSP (SN 1176)
Address : USB
EC-Lab for windows v11.46 (software)
Internet server v11.40 (firmware)
Command interpretor v11.40 (firmware)
Electrode material :
Initial state :
Electrolyte :
Comments :
Electrode surface area : 0.000 cm²
Characteristic mass : 0.001 g
Equivalent Weight : 0.000 g/eq.
Density : 0.000 g/cm3
Volume (V) : 0.001 cm³
Cycle Definition : Charge/Discharge alternance
Ei (V)              0.000
vs.                 Eoc
dE/dt               10.000
dE/dt unit          mV/s
E1 (V)              1.000
vs.                 Ref
Step percent        50
N                   10
E range min (V)     -2.500
E range max (V)     2.500
I Range             Auto
I Range min         Unset
I Range max         Unset
I Range init        Unset
Bandwidth           5
E2 (V)              0.000
vs.                 Ref
nc cycles           2
Reverse Scan        1
Ef (V)              0.000
vs.                 Eoc

mode	ox/red	error	control changes	counter inc.	time/s	control/V	Ewe/V	<I>/mA	cycle number	(Q-Qo)/C	I Range	P/W
2	0	0	0	0	0.000000000000000E+000	-0.160403	-0.156026	-0.00976333	1	0.0000000E+000	13	1.52334e-06
2	1	0	1	0	0.8852	-0.151553	-0.151003	-3.35239e-05	1	1.73839e-07	12	5.0622e-09
2	0	0	1	0	1.7852	-0.142553	-0.144513	0.00128564	1	1.16861e-06	12	-1.85792e-07
2	1	0	1	0	2.6852	-0.133553	-0.133572	0.00141346	1	2.46081e-06	12	-1.88798e-07
2	1	0	1	0	3.5852	-0.124553	-0.12438	0.00093211	1	4.04593e-06	12	-1.15936e-07
2	0	0	1	0	4.4852	-0.115553	-0.115202	0.0019988	1	6.00009e-06	12	-2.30265e-07
2	1	0	1	0	5.3852	-0.106552	-0.107465	0.00226426	1	8.25514e-06	12	-2.43327e-07
2	1	0	1	0	6.2852	-0.0975522	-0.0980707	0.00211816	1	1.07693e-05	12	-2.07729e-07
2	0	0	1	0	7.1852	-0.088552	-0.087021	0.00265989	1	1.36085e-05	12	-2.31466e-07
2	1	0	1	0	8.0852	-0.0795518	-0.0796669	0.00274904	1	1.66579e-05	12	-2.19007e-07
2	1	0	1	0	8.9852	-0.0705516	-0.0701839	0.00252588	1	1.98135e-05	12	-1.77276e-07
2	1	0	1	0	9.8852	-0.0615515	-0.0633336	0.00321385	1	2.32413e-05	12	-2.03544e-07
2	0	0	1	0	10.7852	-0.0525513	-0.0525247	0.00343744	1	2.68605e-05	12	-1.8055e-07
2	0	0	0	0	11.6854	-0.0435511	-0.0456309	0.00371317	1	3.06334e-05	12	-1.69435e-07
2	1	0	0	0	12.5854	-0.034551	-0.0354192	0.00407227	1	3.45773e-05	12	-1.44236e-07
2	0	0	0	0	13.4854	-0.0255508	-0.0278646	0.00382696	1	3.87287e-05	12	-1.06637e-07
2	1	0	0	0	14.3854	-0.0165506	-0.020555	0.00470458	1	4.29451e-05	12	-9.67028e-08
2	1	0	0	0	15.2854	-0.00755045	-0.00909479	0.0050225	1	4.73811e-05	12	-4.56786e-08
2	0	0	0	0	16.1854	0.00144972	0.00115832	0.00427614	1	5.19794e-05	12	4.95315e-09
2	1	0	0	0	17.0854	0.0104499	0.0117922	0.00497169	1	5.66629e-05	12	5.86273e-08
2	1	0	0	0	17.9854	0.0194501	0.0212869	0.00507484	1	6.15282e-05	12	1.08028e-07
2	0	0	0	0	18.8854	0.0284502	0.0299362	0.00468987	1	6.65441e-05	12	1.40397e-07
2	1	0	0	0	19.7854	0.0374504	0.0420626	0.00517117	1	7.16748e-05	12	2.17513e-07
2	0	0	0	0	20.6854	0.0464506	0.0482647	0.00531462	1	7.69166e-05	12	2.56508e-07
2	0	0	1	0	21.5855	0.0554514	0.0545337	0.00498938	1	8.23268e-05	12	2.72089e-07
2	1	0	1	0	22.4856	0.0644509	0.0664553	0.00579028	1	8.78782e-05	12	3.84795e-07
2	1	0	1	0	23.3856	0.0734511	0.0739304	0.00606181	1	9.36823e-05	12	4.48152e-07
2	1	0	1	0	24.2856	0.0824512	0.0818986	0.00562203	1	9.96529e-05	12	4.60437e-07
2	1	0	1	0	25.1856	0.0914514	0.0886216	0.00617689	1	0.000105839	12	5.47406e-07
2	0	0	1	0	26.0856	0.100452	0.0990221	0.00702784	1	0.000112186	12	6.95912e-07
2	1	0	1	0	26.9856	0.109452	0.105122	0.00664564	1	0.00011872	12	6.98606e-07
2	1	0	1	0	27.8856	0.118452	0.114845	0.00699946	1	0.000125525	12	8.03854e-07
2	0	0	1	0	28.7856	0.127452	0.122211	0.008384	1	0.000132521	12	1.02462e-06
2	1	0	1	0	29.6856	0.136452	0.131994	0.00803678	1	0.000139821	12	1.06081e-06
2	1	0	1	0	30.5856	0.145452	0.142407	0.00776582	1	0.000147521	12	1.10591e-06
2	0	0	1	0	31.4856	0.154453	0.154618	0.00894095	1	0.000155536	12	1.38243e-06
2	1	0	0	0	32.3858	0.163453	0.162088	0.00914447	1	0.000164072	12	1.48221e-06
2	1	0	0	0	33.2858	0.172453	0.17091	0.0096934	1	0.000173272	12	1.65669e-06
2	1	0	0	0	34.1858	0.181453	0.178098	0.0106479	1	0.000183056	12	1.89638e-06
2	1	0	0	0	35.0858	0.190453	0.186012	0.0108487	1	0.000193509	12	2.018e-06
2	1	0	0	0	35.9858	0.199453	0.197953	0.0114935	1	0.000204669	12	2.27518e-06
2	1	0	0	0	36.8858	0.208454	0.206831	0.0129655	1	0.00021636	12	2.68167e-06
2	0	0	0	0	37.7858	0.217454	0.215737	0.0133581	1	0.000228713	12	2.88185e-06
2	0	0	0	0	38.6858	0.226454	0.22653	0.0135743	1	0.000241742	12	3.07498e-06
2	1	0	0	0	39.5858	0.235454	0.234983	0.0150564	1	0.000255378	12	3.53801e-06
2	1	0	0	0	40.4858	0.244454	0.245879	0.0156863	1	0.000269742	12	3.85693e-06
2	0	0	0	0	41.3858	0.253454	0.2555	0.0165282	1	0.000284896	12	4.22295e-06
2	1	0	0	0	42.2858	0.262455	0.261831	0.0180971	1	0.000300887	12	4.73837e-06
2	0	0	1	0	43.186	0.271455	0.268351	0.0191932	1	0.000317819	12	5.15053e-06
2	0	0	1	0	44.086	0.280455	0.281155	0.0196703	1	0.000335772	12	5.5304e-06
2	1	0	1	0	44.986	0.289455	0.286559	0.0216806	1	0.000354943	12	6.21277e-06
2	1	0	1	0	45.886	0.298455	0.29773	0.0234392	1	0.000375481	12	6.97856e-06
2	0	0	1	0	46.786	0.307455	0.309134	0.024798	1	0.000397514	12	7.66592e-06
2	1	0	1	0	47.686	0.316456	0.315803	0.0267369	1	0.000421381	12	8.44359e-06
2	1	0	1	0	48.586	0.325456	0.32771	0.0291673	1	0.00044726	12	9.55842e-06
2	1	0	1	0	49.486	0.334456	0.335354	0.0311579	1	0.000475343	12	1.04489e-05
2	1	0	1	0	50.386	0.343456	0.34567	0.03458	1	0.000505981	12	1.19532e-05
2	1	0	1	0	51.286	0.352456	0.35455	0.0377909	1	0.000539257	12	1.33988e-05
2	1	0	1	0	52.186	0.361456	0.363541	0.0410913	1	0.000575347	12	1.49384e-05
2	1	0	1	0	53.086	0.370457	0.370904	0.0445624	1	0.00061473	12	1.65284e-05
2	1	0	0	0	53.9862	0.379457	0.379375	0.0487577	1	0.000657431	12	1.84974e-05
2	1	0	0	0	54.8862	0.388457	0.385629	0.0535623	1	0.000703701	12	2.06552e-05
2	1	0	0	0	55.7862	0.397457	0.398178	0.0576476	1	0.000753938	12	2.2954e-05
2	1	0	0	0	56.6862	0.406457	0.40619	0.062584	1	0.000808446	12	2.5421e-05
2	1	0	0	0	57.5862	0.415457	0.414189	0.0682616	1	0.000867569	12	2.82732e-05
2	1	0	0	0	58.4862	0.424458	0.421005	0.073974	1	0.000931889	12	3.11434e-05
2	1	0	0	0	59.3862	0.433458	0.432193	0.0805006	1	0.00100192	12	3.47918e-05
2	1	0	0	0	60.2862	0.442458	0.443306	0.0874637	1	0.00107833	12	3.87732e-05
2	1	0	0	0	61.1862	0.451458	0.450556	0.0959891	1	0.00116194	12	4.32485e-05
2	1	0	0	0	62.0862	0.460458	0.460917	0.105361	1	0.00125357	12	4.85625e-05
2	1	0	0	0	62.9862	0.469458	0.4704	0.114615	1	0.0013537	12	5.39148e-05
2	1	0	1	0	63.8864	0.478459	0.479277	0.123874	1	0.00146215	12	5.93702e-05
2	1	0	1	0	64.7864	0.487459	0.48754	0.132646	1	0.00157867	12	6.46701e-05
2	1	0	1	0	65.6864	0.496459	0.497805	0.141753	1	0.00170317	12	7.05655e-05
2	1	0	1	0	66.5864	0.505459	0.506881	0.151384	1	0.00183553	12	7.67335e-05
2	1	0	1	0	67.4864	0.514459	0.51331	0.159999	1	0.00197596	12	8.21292e-05
2	1	0	1	0	68.3864	0.523459	0.523651	0.168608	1	0.00212445	12	8.82918e-05
2	1	0	1	0	69.2864	0.53246	0.532154	0.178118	1	0.00228103	12	9.47861e-05
2	1	0	1	0	70.1864	0.54146	0.541146	0.186917	1	0.00244591	12	0.000101149
2	1	0	1	0	71.0864	0.55046	0.550448	0.196916	1	0.00261945	12	0.000108392
2	1	0	1	0	71.9864	0.55946	0.558837	0.206708	1	0.00280211	12	0.000115516
2	1	0	1	0	72.8864	0.56846	0.571647	0.218051	1	0.00299489	12	0.000124648
2	1	0	1	0	73.7864	0.57746	0.578805	0.233348	1	0.0031995	12	0.000135063
2	1	0	0	0	74.6866	0.586461	0.587169	0.251501	1	0.00341878	12	0.000147673
2	1	0	0	0	75.5866	0.595461	0.596008	0.276977	1	0.0036576	12	0.000165081
2	1	0	0	0	76.4866	0.604461	0.603142	0.313352	1	0.00392407	12	0.000188996
2	1	0	0	0	77.3866	0.613461	0.613138	0.365624	1	0.00422952	12	0.000224178
2	1	0	0	0	78.2866	0.622461	0.620986	0.43671	1	0.00458967	12	0.000271191
2	1	0	0	0	79.1866	0.631461	0.627827	0.531853	1	0.00502467	12	0.000333912
2	1	0	0	0	80.0866	0.640462	0.636555	0.657575	1	0.00555892	12	0.000418582
2	1	0	0	0	80.9866	0.649462	0.648119	0.81628	1	0.00622112	12	0.000529047
2	1	0	0	0	81.9016	0.658612	0.658225	0.999539	1	0.0070597	12	0.000657921
2	1	0	0	0	82.8166	0.667762	0.668586	1.25985	1	0.00810038	11	0.000842318
2	1	0	0	0	83.7166	0.676762	0.676396	1.54078	1	0.00935899	11	0.00104218
2	1	0	0	0	84.6166	0.685762	0.686956	1.86823	1	0.0108927	11	0.00128339
2	1	0	1	0	85.5168	0.694763	0.698259	2.24997	1	0.0127456	11	0.00157106
2	1	0	1	0	86.4168	0.703763	0.705452	2.67703	1	0.0149618	11	0.00188852
2	1	0	1	0	87.3168	0.712763	0.713716	3.16303	1	0.017589	11	0.00225751
2	1	0	1	0	88.2168	0.721763	0.724094	3.70385	1	0.0206782	11	0.00268193
2	1	0	1	0	89.1168	0.730763	0.731702	4.3007	1	0.0242794	11	0.00314683
2	1	0	1	0	90.0168	0.739763	0.738286	4.95915	1	0.0284447	11	0.00366127
2	1	0	1	0	90.9168	0.748764	0.747418	5.68321	1	0.0332316	11	0.00424773
2	1	0	1	0	91.8168	0.757764	0.756569	6.47392	1	0.0387001	11	0.00489797
2	1	0	1	0	92.7168	0.766764	0.765591	7.33259	1	0.0449116	11	0.00561377
2	1	0	1	0	93.6168	0.775764	0.777116	8.26363	1	0.0519303	11	0.0064218
2	1	0	1	0	94.5168	0.784764	0.786496	9.26625	1	0.0598199	11	0.00728787
2	1	0	1	0	95.4168	0.793764	0.793587	10.3376	1	0.0686419	11	0.00820376
2	1	0	0	0	96.347	0.803065	0.800314	11.5266	1	0.0788338	10	0.00922491
2	1	0	0	0	97.247	0.812065	0.810133	12.7887	1	0.0897802	10	0.0103605
2	1	0	0	0	98.147	0.821065	0.82499	14.0777	1	0.101865	10	0.0116139
2	1	0	0	0	99.047	0.830065	0.829384	15.4553	1	0.115159	10	0.0128184
2	1	0	0	0	99.947	0.839065	0.837013	16.931	1	0.129732	10	0.0141714
2	1	0	0	0	100.847	0.848065	0.849304	18.4568	1	0.145655	10	0.0156755
2	1	0	0	0	101.747	0.857066	0.858942	20.0807	1	0.163	10	0.0172482
2	1	0	0	0	102.647	0.866066	0.865686	21.7842	1	0.181844	10	0.0188583
2	1	0	0	0	103.547	0.875066	0.874171	23.5748	1	0.202262	10	0.0206084
2	1	0	0	0	104.447	0.884066	0.882275	25.4891	1	0.224341	10	0.0224884
2	1	0	0	0	105.347	0.893066	0.892423	27.4687	1	0.248178	10	0.0245137
2	1	0	1	0	106.247	0.902066	0.901157	29.5299	1	0.273849	10	0.0266111
2	1	0	1	0	107.147	0.911067	0.909275	31.7148	1	0.301415	10	0.0288374
2	1	0	1	0	108.047	0.920067	0.921399	33.8922	1	0.330955	10	0.0312282
2	1	0	1	0	108.947	0.929067	0.927898	36.1946	1	0.362507	10	0.0335849
2	1	0	1	0	109.847	0.938067	0.938889	38.4795	1	0.396125	10	0.036128
2	1	0	1	0	110.747	0.947067	0.945512	40.8107	1	0.431827	10	0.038587
2	1	0	1	0	111.647	0.956067	0.954532	43.1604	1	0.469626	10	0.041198
2	1	0	1	0	112.547	0.965068	0.96526	45.4582	1	0.50951	10	0.043879
2	1	0	1	0	113.447	0.974068	0.97221	47.7598	1	0.551475	10	0.0464325
2	1	0	1	0	114.347	0.983068	0.98223	49.9855	1	0.595488	10	0.0490972
2	1	0	1	0	115.247	0.992068	0.990261	52.2253	1	0.641498	10	0.0517166
2	1	0	0	0	116.043	1.00002	0.993945	54.1247	1	0.683781	10	0.0537969
2	1	0	0	0	116.898	0.991468	0.988509	50.7838	1	0.728561	10	0.0502002
2	1	0	0	0	117.798	0.982468	0.980132	47.557	1	0.772777	10	0.0466121
2	1	0	0	0	118.698	0.973468	0.97003	44.5637	1	0.814208	10	0.0432281
2	1	0	0	0	119.598	0.964468	0.961523	41.7437	1	0.853034	10	0.0401376
2	1	0	0	0	120.498	0.955467	0.95329	39.0577	1	0.889378	10	0.0372333
2	1	0	0	0	121.398	0.946467	0.944414	36.4663	1	0.923348	10	0.0344393
2	1	0	0	0	122.298	0.937467	0.936404	33.9745	1	0.955041	10	0.0318139
2	1	0	0	0	123.198	0.928467	0.929424	31.594	1	0.984535	10	0.0293643
2	1	0	0	0	124.098	0.919467	0.923584	29.3225	1	1.01194	10	0.0270818
2	1	0	0	0	124.998	0.910467	0.912914	27.1145	1	1.03732	10	0.0247532
2	1	0	0	0	125.898	0.901466	0.904919	25.0442	1	1.06077	10	0.022663
2	1	0	1	0	126.798	0.892466	0.892482	23.0798	1	1.08241	10	0.0205983
2	1	0	1	0	127.698	0.883466	0.88393	21.1693	1	1.10231	10	0.0187122
2	1	0	1	0	128.598	0.874466	0.874029	19.4022	1	1.12056	10	0.0169581
2	1	0	1	0	129.498	0.865466	0.864712	17.733	1	1.13724	10	0.015334
2	1	0	1	0	130.398	0.856466	0.855023	16.1166	1	1.15246	10	0.01378
2	1	0	1	0	131.298	0.847465	0.845592	14.6666	1	1.1663	10	0.0124019
2	1	0	1	0	132.198	0.838465	0.838534	13.2839	1	1.17886	10	0.011139
2	1	0	1	0	133.098	0.829465	0.827746	11.9973	1	1.19022	10	0.00993068
2	1	0	1	0	133.998	0.820465	0.818925	10.8361	1	1.20048	10	0.00887399
2	1	0	1	0	134.898	0.811465	0.810116	9.72536	1	1.20972	10	0.00787867
2	1	0	1	0	135.798	0.802465	0.803426	8.73848	1	1.21801	10	0.00702072
2	1	0	0	0	136.698	0.793464	0.794755	7.81321	1	1.22545	10	0.00620958
2	1	0	0	0	137.598	0.784464	0.785313	6.9663	1	1.23209	10	0.00547073
2	1	0	0	0	138.498	0.775464	0.776643	6.20905	1	1.23801	10	0.00482222
2	1	0	0	0	139.398	0.766464	0.769461	5.48766	1	1.24327	10	0.00422254
2	1	0	0	0	140.298	0.757464	0.760142	4.86313	1	1.24792	10	0.00369667
2	1	0	0	0	141.228	0.748164	0.747774	4.24959	1	1.25215	11	0.00317773
2	1	0	0	0	142.128	0.739163	0.7374	3.72268	1	1.25573	11	0.0027451
2	1	0	0	0	143.028	0.730163	0.728236	3.25081	1	1.25887	11	0.00236735
2	1	0	0	0	143.928	0.721163	0.719841	2.82222	1	1.26159	11	0.00203155
2	1	0	0	0	144.828	0.712163	0.711057	2.43641	1	1.26395	11	0.00173242
2	1	0	0	0	145.728	0.703163	0.699704	2.09253	1	1.26599	11	0.00146415
2	1	0	0	0	146.628	0.694163	0.690546	1.7836	1	1.26773	11	0.00123166
2	1	0	1	0	147.528	0.685162	0.684363	1.50693	1	1.2692	11	0.00103129
2	1	0	1	0	148.428	0.676162	0.674506	1.26548	1	1.27045	11	0.000853573
2	1	0	1	0	149.328	0.667162	0.665189	1.05113	1	1.27149	11	0.0006992
2	1	0	1	0	150.228	0.658162	0.661749	0.863144	1	1.27234	11	0.000571184
2	1	0	1	0	151.128	0.649162	0.653142	0.702729	1	1.27305	11	0.000458982
2	1	0	1	0	152.028	0.640162	0.642111	0.561992	1	1.27361	11	0.000360861
2	1	0	1	0	152.928	0.631161	0.630461	0.444219	1	1.27406	11	0.000280063
2	1	0	1	0	153.858	0.621861	0.624099	0.342242	1	1.27443	12	0.000213593
2	1	0	1	0	154.758	0.612861	0.614273	0.260991	1	1.2747	12	0.00016032
2	1	0	1	0	155.658	0.603861	0.602618	0.195558	1	1.2749	12	0.000117847
2	1	0	1	0	156.558	0.594861	0.59104	0.143545	1	1.27505	12	8.48405e-05
2	1	0	1	0	157.458	0.58586	0.579802	0.10247	1	1.27516	12	5.94123e-05
2	1	0	0	0	158.359	0.57686	0.575235	0.0710397	1	1.27523	12	4.08645e-05
2	1	0	0	0	159.259	0.56786	0.560867	0.0465675	1	1.27528	12	2.61182e-05
2	1	0	0	0	160.159	0.55886	0.55365	0.0284787	1	1.27532	12	1.57672e-05
2	1	0	0	0	161.059	0.54986	0.547159	0.0156955	1	1.27533	12	8.58794e-06
2	1	0	0	0	161.959	0.54086	0.542561	0.00541477	1	1.27534	12	2.93784e-06
2	1	0	0	0	162.859	0.53186	0.531784	-0.00148157	1	1.27534	12	-7.87874e-07
2	1	0	0	0	163.759	0.522859	0.52254	-0.00698521	1	1.27534	12	-3.65005e-06
2	1	0	0	0	164.659	0.513859	0.51589	-0.0109531	1	1.27533	12	-5.65056e-06
2	1	0	0	0	165.559	0.504859	0.508113	-0.0138802	1	1.27532	12	-7.05273e-06
2	1	0	0	0	166.459	0.495859	0.493629	-0.01696	1	1.2753	12	-8.37194e-06
2	1	0	0	0	167.359	0.486859	0.487533	-0.0188485	1	1.27529	12	-9.18924e-06
2	1	0	1	0	168.259	0.477859	0.478863	-0.0206091	1	1.27527	12	-9.86895e-06
2	1	0	1	0	169.159	0.468858	0.467531	-0.0211999	1	1.27525	12	-9.91163e-06
2	0	0	1	0	170.059	0.459858	0.462194	-0.0223778	1	1.27523	12	-1.03429e-05
2	0	0	1	0	170.959	0.450858	0.450541	-0.0233886	1	1.27521	12	-1.05375e-05
2	0	0	1	0	171.859	0.441858	0.442513	-0.0240319	1	1.27518	12	-1.06344e-05
2	0	0	1	0	172.759	0.432858	0.433423	-0.0246401	1	1.27516	12	-1.06796e-05
2	1	0	1	0	173.659	0.423858	0.425939	-0.0248204	1	1.27514	12	-1.0572e-05
2	0	0	1	0	174.559	0.414857	0.41395	-0.0253789	1	1.27512	12	-1.05056e-05
2	0	0	1	0	175.459	0.405857	0.405484	-0.0254817	1	1.27509	12	-1.03324e-05
2	1	0	1	0	176.359	0.396857	0.398644	-0.0254471	1	1.27507	12	-1.01443e-05
2	0	0	1	0	177.259	0.387857	0.386952	-0.0256915	1	1.27504	12	-9.94137e-06
2	0	0	1	0	178.159	0.378857	0.377228	-0.0260387	1	1.27502	12	-9.82252e-06
2	0	0	0	0	179.059	0.369857	0.370409	-0.0263248	1	1.275	12	-9.75093e-06
2	0	0	0	0	179.959	0.360856	0.360965	-0.0266158	1	1.27497	12	-9.60738e-06
2	0	0	0	0	180.859	0.351856	0.355175	-0.0266527	1	1.27495	12	-9.46637e-06
2	0	0	0	0	181.759	0.342856	0.347178	-0.0268208	1	1.27492	12	-9.31157e-06
2	0	0	0	0	182.659	0.333856	0.334851	-0.0272491	1	1.2749	12	-9.12438e-06
2	0	0	0	0	183.559	0.324856	0.324103	-0.0270404	1	1.27487	12	-8.76387e-06
2	0	0	0	0	184.459	0.315856	0.316362	-0.0273918	1	1.27485	12	-8.66574e-06
2	0	0	0	0	185.359	0.306855	0.307593	-0.0273542	1	1.27482	12	-8.41397e-06
2	0	0	0	0	186.259	0.297855	0.300125	-0.0263068	1	1.2748	12	-7.89531e-06
2	0	0	0	0	187.159	0.288855	0.288604	-0.0259705	1	1.27477	12	-7.49518e-06
2	1	0	0	0	188.059	0.279855	0.277629	-0.0256921	1	1.27475	12	-7.13289e-06
2	0	0	0	0	188.959	0.270855	0.271208	-0.0246917	1	1.27473	12	-6.69659e-06
2	0	0	1	0	189.859	0.261855	0.261202	-0.0241875	1	1.2747	12	-6.31782e-06
2	0	0	1	0	190.759	0.252854	0.251541	-0.0237616	1	1.27468	12	-5.97702e-06
2	0	0	1	0	191.659	0.243854	0.245877	-0.0229262	1	1.27466	12	-5.63704e-06
2	1	0	1	0	192.559	0.234854	0.237087	-0.0221935	1	1.27464	12	-5.2618e-06
2	0	0	1	0	193.459	0.225854	0.22849	-0.0210833	1	1.27462	12	-4.81732e-06
2	0	0	1	0	194.359	0.216854	0.219842	-0.0205775	1	1.2746	12	-4.52381e-06
2	1	0	1	0	195.259	0.207854	0.207694	-0.0204679	1	1.27458	12	-4.25105e-06
2	1	0	1	0	196.159	0.198853	0.199065	-0.019581	1	1.27456	12	-3.8979e-06
2	0	0	1	0	197.059	0.189853	0.190363	-0.0185256	1	1.27455	12	-3.5266e-06
2	0	0	1	0	197.959	0.180853	0.181043	-0.018154	1	1.27453	12	-3.28665e-06
2	1	0	1	0	198.859	0.171853	0.172791	-0.0174999	1	1.27451	12	-3.02383e-06
2	1	0	1	0	199.759	0.162853	0.162095	-0.017246	1	1.2745	12	-2.79549e-06
2	0	0	0	0	200.659	0.153853	0.154171	-0.0165132	1	1.27448	12	-2.54586e-06
2	1	0	0	0	201.559	0.144852	0.14626	-0.0158751	1	1.27447	12	-2.32189e-06
2	1	0	0	0	202.459	0.135852	0.136584	-0.0163353	1	1.27445	12	-2.23114e-06
2	0	0	0	0	203.359	0.126852	0.127261	-0.015426	1	1.27444	12	-1.96313e-06
2	0	0	0	0	204.259	0.117852	0.118572	-0.0145265	1	1.27442	12	-1.72243e-06
2	1	0	0	0	205.159	0.108852	0.108815	-0.0142687	1	1.27441	12	-1.55265e-06
2	1	0	0	0	206.059	0.0998515	0.0998591	-0.0140907	1	1.2744	12	-1.40708e-06
2	0	0	0	0	206.959	0.0908514	0.0882599	-0.0137886	1	1.27439	12	-1.21698e-06
2	0	0	0	0	207.859	0.0818512	0.0781234	-0.0131873	1	1.27437	12	-1.03024e-06
2	1	0	0	0	208.759	0.072851	0.0703917	-0.0126216	1	1.27436	12	-8.88458e-07
2	1	0	0	0	209.659	0.0638509	0.0623853	-0.0126177	1	1.27435	12	-7.87156e-07
2	0	0	1	0	210.56	0.0548507	0.0520038	-0.0121583	1	1.27434	12	-6.32276e-07
2	0	0	1	0	211.46	0.0458505	0.0441713	-0.0117055	1	1.27433	12	-5.17049e-07
2	0	0	1	0	212.36	0.0368504	0.0376902	-0.0113398	1	1.27432	12	-4.274e-07
2	0	0	1	0	213.26	0.0278502	0.0302406	-0.0110029	1	1.27431	12	-3.32734e-07
2	1	0	1	0	214.16	0.01885	0.0195547	-0.0108544	1	1.2743	12	-2.12254e-07
2	1	0	1	0	215.06	0.00984987	0.0119927	-0.0107456	1	1.27429	12	-1.28869e-07
2	0	0	1	0	215.96	0.000849706	0.00432145	-0.0104998	1	1.27428	12	-4.53742e-08
2	1	0	0	1	216.7	0.00654981	0.00839044	-0.00898072	2	1.27427	12	-7.53522e-08
2	1	0	0	1	217.6	0.01555	0.0156438	-0.00761665	2	1.27426	12	-1.19153e-07
2	0	0	0	1	218.5	0.0245501	0.0243376	-0.00675865	2	1.27426	12	-1.64489e-07
2	0	0	0	1	219.4	0.0335503	0.0311295	-0.00646606	2	1.27425	12	-2.01285e-07
2	0	0	0	1	220.3	0.0425505	0.0405361	-0.00576088	2	1.27424	12	-2.33524e-07
2	1	0	0	1	221.2	0.0515506	0.0493509	-0.00505482	2	1.27424	12	-2.4946e-07
2	1	0	1	1	222.1	0.0605508	0.0582855	-0.00470463	2	1.27423	12	-2.74212e-07
2	0	0	1	1	223	0.069551	0.0705561	-0.00443885	2	1.27423	12	-3.13188e-07
2	0	0	1	1	223.9	0.0785511	0.0790463	-0.00411067	2	1.27423	12	-3.24933e-07
2	0	0	1	1	224.8	0.0875513	0.0891965	-0.00439226	2	1.27422	12	-3.91774e-07
2	1	0	1	1	225.7	0.0965515	0.0980791	-0.00344439	2	1.27422	12	-3.37823e-07
2	1	0	1	1	226.6	0.105552	0.106885	-0.00290599	2	1.27422	12	-3.10607e-07
2	0	0	1	1	227.5	0.114552	0.11503	-0.00256727	2	1.27422	12	-2.95312e-07
2	0	0	1	1	228.4	0.123552	0.12628	-0.0019486	2	1.27421	12	-2.46069e-07
2	0	0	1	1	229.3	0.132552	0.130619	-0.0021747	2	1.27421	12	-2.84058e-07
2	1	0	1	1	230.2	0.141552	0.141471	-0.00171101	2	1.27421	12	-2.42058e-07
2	1	0	1	1	231.1	0.150552	0.152006	-0.00112602	2	1.27421	12	-1.71161e-07
2	1	0	1	1	232	0.159553	0.157529	-0.000328989	2	1.27421	12	-5.18254e-08
2	0	0	0	1	232.901	0.168553	0.169139	-6.67549e-05	2	1.27421	12	-1.12909e-08
2	0	0	0	1	233.801	0.177553	0.175578	-9.84259e-05	2	1.27421	12	-1.72814e-08
2	1	0	0	1	234.701	0.186553	0.184191	0.000191663	2	1.27421	12	3.53026e-08
2	1	0	0	1	235.601	0.195553	0.194267	0.000913845	2	1.27421	12	1.7753e-07
2	1	0	0	1	236.501	0.204553	0.20366	0.00131973	2	1.27421	12	2.68776e-07
2	1	0	0	1	237.401	0.213554	0.210798	0.00194152	2	1.27422	12	4.09268e-07
2	1	0	0	1	238.301	0.222554	0.2207	0.00262907	2	1.27422	12	5.80235e-07
2	0	0	0	1	239.201	0.231554	0.23323	0.00311384	2	1.27422	12	7.26241e-07
2	0	0	0	1	240.101	0.240554	0.241484	0.00386775	2	1.27422	12	9.33999e-07
2	1	0	0	1	241.001	0.249554	0.252119	0.00464165	2	1.27423	12	1.17025e-06
2	1	0	0	1	241.901	0.258554	0.261518	0.00503281	2	1.27423	12	1.31617e-06
2	1	0	1	1	242.801	0.267555	0.268087	0.00566428	2	1.27424	12	1.51852e-06
2	1	0	1	1	243.701	0.276555	0.279089	0.00694672	2	1.27424	12	1.93875e-06
2	0	0	1	1	244.601	0.285555	0.285383	0.00810835	2	1.27425	12	2.31399e-06
2	0	0	1	1	245.501	0.294555	0.293778	0.00883726	2	1.27426	12	2.59619e-06
2	0	0	1	1	246.401	0.303555	0.301936	0.0099459	2	1.27427	12	3.00303e-06
2	1	0	1	1	247.301	0.312555	0.310102	0.0113277	2	1.27427	12	3.51274e-06
2	1	0	1	1	248.201	0.321556	0.315603	0.0121255	2	1.27429	12	3.82685e-06
2	1	0	1	1	249.101	0.330556	0.325919	0.0134951	2	1.2743	12	4.39829e-06
2	1	0	1	1	250.001	0.339556	0.335421	0.0149379	2	1.27431	12	5.01048e-06
2	1	0	1	1	250.901	0.348556	0.345785	0.0163029	2	1.27432	12	5.63729e-06
2	1	0	1	1	251.801	0.357556	0.358146	0.0180375	2	1.27434	12	6.46004e-06
2	0	0	1	1	252.701	0.366557	0.366618	0.0200667	2	1.27436	12	7.35682e-06
2	0	0	0	1	253.601	0.375557	0.376749	0.0218261	2	1.27438	12	8.22296e-06
2	1	0	0	1	254.501	0.384557	0.383605	0.0242765	2	1.2744	12	9.31257e-06
2	1	0	0	1	255.401	0.393557	0.39255	0.0269536	2	1.27442	12	1.05806e-05
2	1	0	0	1	256.301	0.402557	0.402593	0.0297265	2	1.27445	12	1.19677e-05
2	1	0	0	1	257.201	0.411557	0.411322	0.0317542	2	1.27448	12	1.30612e-05
2	1	0	0	1	258.101	0.420557	0.42009	0.03457	2	1.27451	12	1.45225e-05
2	1	0	0	1	259.001	0.429558	0.428922	0.0373269	2	1.27454	12	1.60103e-05
2	1	0	0	1	259.901	0.438558	0.437932	0.0400209	2	1.27458	12	1.75264e-05
2	1	0	0	1	260.801	0.447558	0.445064	0.0426358	2	1.27461	12	1.89756e-05
2	1	0	0	1	261.701	0.456558	0.454577	0.045356	2	1.27465	12	2.06178e-05
2	1	0	0	1	262.601	0.465558	0.463578	0.0476873	2	1.2747	12	2.21068e-05
2	1	0	0	1	263.501	0.474558	0.473162	0.0500868	2	1.27474	12	2.36991e-05
2	1	0	1	1	264.401	0.483559	0.482851	0.0523039	2	1.27479	12	2.5255e-05
2	1	0	1	1	265.301	0.492559	0.493049	0.0550319	2	1.27484	12	2.71334e-05
2	1	0	1	1	266.201	0.501559	0.504297	0.0577299	2	1.27489	12	2.9113e-05
2	1	0	1	1	267.101	0.510559	0.512413	0.0603008	2	1.27494	12	3.0899e-05
2	1	0	1	1	268.001	0.519559	0.520778	0.0629223	2	1.275	12	3.27686e-05
2	1	0	1	1	268.901	0.528559	0.529692	0.0657118	2	1.27506	12	3.4807e-05
2	1	0	1	1	269.801	0.53756	0.53923	0.0689499	2	1.27512	12	3.71798e-05
2	1	0	1	1	270.701	0.54656	0.547603	0.0720761	2	1.27519	12	3.94691e-05
2	1	0	1	1	271.601	0.55556	0.555938	0.0760819	2	1.27525	12	4.22968e-05
2	1	0	1	1	272.501	0.56456	0.564013	0.0810483	2	1.27532	12	4.57123e-05
2	1	0	1	1	273.401	0.57356	0.570507	0.0885569	2	1.2754	12	5.05223e-05
2	1	0	1	1	274.301	0.58256	0.579496	0.0988396	2	1.27549	12	5.72772e-05
2	1	0	0	1	275.201	0.591561	0.590313	0.114399	2	1.27558	12	6.75313e-05
2	1	0	0	1	276.101	0.600561	0.598844	0.13667	2	1.2757	12	8.18441e-05
2	1	0	0	1	277.001	0.609561	0.60717	0.168813	2	1.27583	12	0.000102498
2	1	0	0	1	277.901	0.618561	0.621445	0.212375	2	1.27601	12	0.00013198
2	1	0	0	1	278.801	0.627561	0.629871	0.271502	2	1.27622	12	0.000171011
2	1	0	0	1	279.701	0.636562	0.63557	0.347765	2	1.2765	12	0.000221029
2	1	0	0	1	280.601	0.645562	0.645682	0.446018	2	1.27686	12	0.000287986
2	1	0	0	1	281.501	0.654562	0.657567	0.56842	2	1.27732	12	0.000373774
2	1	0	0	1	282.401	0.663562	0.667738	0.719073	2	1.27789	12	0.000480152
2	1	0	0	1	283.301	0.672562	0.672275	0.901695	2	1.27862	12	0.000606188
2	1	0	0	1	284.231	0.681862	0.676909	1.12902	2	1.27957	11	0.00076424
2	1	0	1	1	285.132	0.690863	0.688382	1.38695	2	1.2807	11	0.000954752
2	1	0	1	1	286.032	0.699863	0.69527	1.68894	2	1.28208	11	0.00117427
2	1	0	1	1	286.932	0.708863	0.700872	2.03757	2	1.28376	11	0.00142808
2	1	0	1	1	287.832	0.717863	0.712176	2.43146	2	1.28576	11	0.00173163
2	1	0	1	1	288.732	0.726863	0.72241	2.87898	2	1.28815	11	0.00207981
2	1	0	1	1	289.632	0.735863	0.733908	3.38617	2	1.29097	11	0.00248514
2	1	0	1	1	290.532	0.744863	0.742794	3.95362	2	1.29427	11	0.00293673
2	1	0	1	1	291.432	0.753864	0.752286	4.58171	2	1.29811	11	0.00344676
2	1	0	1	1	292.332	0.762864	0.764518	5.28132	2	1.30255	11	0.00403766
2	1	0	1	1	293.232	0.771864	0.776604	6.04953	2	1.30765	11	0.00469809
2	1	0	1	1	294.132	0.780864	0.784322	6.89339	2	1.31347	11	0.00540664
2	1	0	1	1	295.032	0.789864	0.793011	7.80458	2	1.32008	11	0.00618912
2	1	0	0	1	295.932	0.798864	0.797968	8.80217	2	1.32756	11	0.00702384
2	1	0	0	1	296.832	0.807865	0.807425	9.86996	2	1.33596	11	0.00796925
2	1	0	0	1	297.762	0.817165	0.819221	11.0567	2	1.34569	10	0.00905785
2	1	0	0	1	298.662	0.826165	0.827799	12.285	2	1.3562	10	0.0101695
2	1	0	0	1	299.562	0.835165	0.840911	13.5709	2	1.36782	10	0.0114119
2	1	0	0	1	300.462	0.844165	0.846327	14.8939	2	1.38063	10	0.0126051
2	1	0	0	1	301.362	0.853166	0.856212	16.3185	2	1.39469	10	0.0139721
2	1	0	0	1	302.262	0.862166	0.86212	17.8023	2	1.41004	10	0.0153477
2	1	0	0	1	303.162	0.871166	0.872249	19.3391	2	1.42675	10	0.0168685
2	1	0	0	1	304.062	0.880166	0.877907	20.9524	2	1.44489	10	0.0183943
2	1	0	0	1	304.962	0.889166	0.887685	22.5914	2	1.46449	10	0.0200541
2	1	0	1	1	305.862	0.898166	0.896965	24.3273	2	1.4856	10	0.0218208
2	1	0	1	1	306.762	0.907166	0.905739	26.0953	2	1.5083	10	0.0236355
2	1	0	1	1	307.662	0.916167	0.912607	27.9133	2	1.53261	10	0.0254738
2	1	0	1	1	308.562	0.925167	0.925569	29.7198	2	1.55854	10	0.0275077
2	1	0	1	1	309.462	0.934167	0.93566	31.6354	2	1.58617	10	0.0296
2	1	0	1	1	310.362	0.943167	0.946627	33.5888	2	1.61553	10	0.0317961
2	1	0	1	1	311.262	0.952167	0.952314	35.5852	2	1.64666	10	0.0338882
2	1	0	1	1	312.162	0.961168	0.963135	37.6133	2	1.67961	10	0.0362267
2	1	0	1	1	313.062	0.970168	0.973032	39.6532	2	1.71438	10	0.0385839
2	1	0	1	1	313.962	0.979168	0.980666	41.7344	2	1.75102	10	0.0409275
2	1	0	1	1	314.862	0.988168	0.987382	43.8703	2	1.78957	10	0.0433167
2	1	0	1	1	315.762	0.997168	0.996726	45.987	2	1.83002	10	0.0458365
2	1	0	0	1	316.503	0.995468	0.993079	45.3031	2	1.86419	10	0.0449895
2	1	0	0	1	317.403	0.986468	0.987788	42.7195	2	1.90378	10	0.0421978
2	1	0	0	1	318.303	0.977468	0.978692	40.1989	2	1.94108	10	0.0393424
2	1	0	0	1	319.203	0.968468	0.969588	37.7563	2	1.97614	10	0.0366081
2	1	0	0	1	320.103	0.959467	0.958805	35.4112	2	2.00905	10	0.0339524
2	1	0	0	1	321.003	0.950467	0.951029	33.177	2	2.03992	10	0.0315523
2	1	0	0	1	321.903	0.941467	0.93996	31.0024	2	2.06878	10	0.029141
2	1	0	0	1	322.803	0.932467	0.931485	28.864	2	2.0957	10	0.0268864
2	1	0	0	1	323.703	0.923467	0.919905	26.8205	2	2.12075	10	0.0246724
2	1	0	0	1	324.603	0.914467	0.91123	24.9059	2	2.14401	10	0.0226951
2	1	0	0	1	325.503	0.905466	0.903308	23.0708	2	2.16558	10	0.02084
2	1	0	1	1	326.403	0.896466	0.896201	21.2601	2	2.18553	10	0.0190533
2	1	0	1	1	327.303	0.887466	0.887244	19.576	2	2.20389	10	0.0173687
2	1	0	1	1	328.203	0.878466	0.880086	17.96	2	2.22075	10	0.0158063
2	1	0	1	1	329.103	0.869466	0.871179	16.4348	2	2.23621	10	0.0143176
2	1	0	1	1	330.003	0.860466	0.863225	14.9996	2	2.25034	10	0.012948
2	1	0	1	1	330.903	0.851465	0.853564	13.6262	2	2.2632	10	0.0116308
2	1	0	1	1	331.803	0.842465	0.84401	12.3463	2	2.27487	10	0.0104204
2	1	0	1	1	332.703	0.833465	0.833828	11.165	2	2.28544	10	0.0093097
2	1	0	1	1	333.603	0.824465	0.82372	10.0594	2	2.29497	10	0.00828609
2	1	0	1	1	334.503	0.815465	0.815754	9.03594	2	2.30355	10	0.00737111
2	1	0	1	1	335.403	0.806465	0.804946	8.0845	2	2.31125	10	0.00650759
2	1	0	1	1	336.303	0.797464	0.795691	7.22537	2	2.31813	10	0.00574917
2	1	0	0	1	337.203	0.788464	0.786329	6.43346	2	2.32426	10	0.00505882
2	1	0	0	1	338.103	0.779464	0.778776	5.69279	2	2.32971	10	0.00443341
2	1	0	0	1	339.003	0.770464	0.771709	5.04399	2	2.33454	10	0.0038925
2	1	0	0	1	339.918	0.761314	0.761263	4.43869	2	2.33886	10	0.00337901
2	1	0	0	1	340.833	0.752164	0.750953	3.86104	2	2.34264	11	0.00289945
2	1	0	0	1	341.733	0.743163	0.742554	3.37191	2	2.34589	11	0.00250383
2	1	0	0	1	342.633	0.734163	0.73375	2.92721	2	2.34872	11	0.00214784
2	1	0	0	1	343.533	0.725163	0.724428	2.5304	2	2.35117	11	0.0018331
2	1	0	0	1	344.433	0.716163	0.714258	2.17661	2	2.35328	11	0.00155466
2	1	0	0	1	345.333	0.707163	0.705934	1.85664	2	2.35509	11	0.00131066
2	1	0	0	1	346.233	0.698163	0.698359	1.5792	2	2.35664	11	0.00110285
2	1	0	1	1	347.133	0.689162	0.690007	1.32918	2	2.35794	11	0.000917146
2	1	0	1	1	348.033	0.680162	0.680871	1.11183	2	2.35903	11	0.000757009
2	1	0	1	1	348.933	0.671162	0.667564	0.921729	2	2.35995	11	0.000615313
2	1	0	1	1	349.833	0.662162	0.66003	0.754308	2	2.3607	11	0.000497866
2	1	0	1	1	350.733	0.653162	0.650969	0.614727	2	2.36131	11	0.000400168
2	1	0	1	1	351.633	0.644162	0.644684	0.494479	2	2.36181	11	0.000318783
2	1	0	1	1	352.563	0.634861	0.633452	0.387159	2	2.36221	12	0.000245247
2	1	0	1	1	353.463	0.625861	0.626398	0.30273	2	2.36252	12	0.00018963
2	1	0	1	1	354.363	0.616861	0.618197	0.23304	2	2.36276	12	0.000144065
2	1	0	1	1	355.263	0.607861	0.612944	0.176381	2	2.36294	12	0.000108112
2	1	0	1	1	356.163	0.598861	0.5987	0.130823	2	2.36308	12	7.83241e-05
2	1	0	1	1	357.063	0.589861	0.591757	0.0949123	2	2.36318	12	5.6165e-05
2	1	0	0	1	357.963	0.58086	0.581462	0.0670381	2	2.36325	12	3.89801e-05
2	1	0	0	1	358.863	0.57186	0.569754	0.0453512	2	2.3633	12	2.5839e-05
2	1	0	0	1	359.763	0.56286	0.56464	0.0294672	2	2.36333	12	1.66384e-05
2	0	0	0	1	360.663	0.55386	0.553741	0.0167485	2	2.36335	12	9.27436e-06
2	0	0	0	1	361.563	0.54486	0.545178	0.00730236	2	2.36336	12	3.98108e-06
2	0	0	0	1	362.463	0.53586	0.536425	0.000631193	2	2.36336	12	3.38588e-07
2	0	0	0	1	363.363	0.526859	0.530422	-0.00452289	2	2.36336	12	-2.39904e-06
2	0	0	0	1	364.263	0.517859	0.518094	-0.00825871	2	2.36335	12	-4.27879e-06
2	0	0	0	1	365.163	0.508859	0.509745	-0.0109191	2	2.36334	12	-5.56593e-06
2	0	0	0	1	366.063	0.499859	0.501468	-0.0132524	2	2.36333	12	-6.64565e-06
2	0	0	0	1	366.963	0.490859	0.489368	-0.0153074	2	2.36332	12	-7.49094e-06
2	1	0	0	1	367.863	0.481859	0.481598	-0.0168315	2	2.3633	12	-8.10599e-06
2	1	0	1	1	368.764	0.472858	0.471667	-0.0178687	2	2.36329	12	-8.42808e-06
2	0	0	1	1	369.664	0.463858	0.465754	-0.0187469	2	2.36327	12	-8.73142e-06
2	0	0	1	1	370.564	0.454858	0.455856	-0.0196505	2	2.36325	12	-8.95779e-06
2	0	0	1	1	371.464	0.445858	0.444499	-0.0202315	2	2.36323	12	-8.99289e-06
2	0	0	1	1	372.364	0.436858	0.437929	-0.0210565	2	2.36322	12	-9.22126e-06
2	0	0	1	1	373.264	0.427858	0.431986	-0.0214425	2	2.3632	12	-9.26287e-06
2	1	0	1	1	374.164	0.418857	0.421408	-0.0218126	2	2.36318	12	-9.19203e-06
2	0	0	1	1	375.064	0.409857	0.412299	-0.021665	2	2.36316	12	-8.93247e-06
2	0	0	1	1	375.964	0.400857	0.401002	-0.0222926	2	2.36313	12	-8.93939e-06
2	0	0	1	1	376.864	0.391857	0.387468	-0.02253	2	2.36311	12	-8.72964e-06
2	0	0	1	1	377.764	0.382857	0.381555	-0.0229186	2	2.36309	12	-8.7447e-06
2	1	0	1	1	378.664	0.373857	0.372455	-0.0233618	2	2.36307	12	-8.70123e-06
2	1	0	0	1	379.564	0.364856	0.365418	-0.0238054	2	2.36305	12	-8.69891e-06
2	0	0	0	1	380.464	0.355856	0.355849	-0.0239992	2	2.36303	12	-8.54012e-06
2	0	0	0	1	381.364	0.346856	0.347432	-0.0242561	2	2.363	12	-8.42737e-06
2	0	0	0	1	382.264	0.337856	0.337699	-0.0242015	2	2.36298	12	-8.17284e-06
2	1	0	0	1	383.164	0.328856	0.32815	-0.0247409	2	2.36296	12	-8.11875e-06
2	1	0	0	1	384.064	0.319856	0.319241	-0.0245802	2	2.36294	12	-7.84701e-06
2	0	0	0	1	384.964	0.310855	0.312623	-0.024556	2	2.36291	12	-7.67679e-06
2	0	0	0	1	385.864	0.301855	0.301989	-0.0243747	2	2.36289	12	-7.36089e-06
2	0	0	0	1	386.764	0.292855	0.29532	-0.0239127	2	2.36287	12	-7.06191e-06
2	1	0	0	1	387.664	0.283855	0.283693	-0.0239985	2	2.36285	12	-6.80819e-06
2	1	0	0	1	388.564	0.274855	0.276885	-0.0236719	2	2.36282	12	-6.55439e-06
2	0	0	1	1	389.464	0.265855	0.268123	-0.0227014	2	2.3628	12	-6.08675e-06
2	0	0	1	1	390.364	0.256854	0.257271	-0.0221827	2	2.36278	12	-5.70697e-06
2	1	0	1	1	391.264	0.247854	0.245873	-0.0213595	2	2.36276	12	-5.25173e-06
2	1	0	1	1	392.164	0.238854	0.238295	-0.0212349	2	2.36274	12	-5.06017e-06
2	0	0	1	1	393.064	0.229854	0.229335	-0.020864	2	2.36272	12	-4.78484e-06
2	0	0	1	1	393.964	0.220854	0.217723	-0.0204721	2	2.36271	12	-4.45724e-06
2	0	0	1	1	394.864	0.211854	0.208791	-0.0193509	2	2.36269	12	-4.04029e-06
2	0	0	1	1	395.764	0.202853	0.201272	-0.0189483	2	2.36267	12	-3.81376e-06
2	0	0	1	1	396.664	0.193853	0.192763	-0.0185653	2	2.36265	12	-3.57869e-06
2	1	0	1	1	397.564	0.184853	0.184641	-0.0181014	2	2.36264	12	-3.34225e-06
2	0	0	1	1	398.464	0.175853	0.175825	-0.017864	2	2.36262	12	-3.14093e-06
2	0	0	1	1	399.364	0.166853	0.16763	-0.0171363	2	2.3626	12	-2.87256e-06
2	0	0	0	1	400.264	0.157853	0.160804	-0.0163568	2	2.36259	12	-2.63023e-06
2	1	0	0	1	401.164	0.148852	0.149952	-0.0156297	2	2.36257	12	-2.34371e-06
2	1	0	0	1	402.064	0.139852	0.141299	-0.0148225	2	2.36256	12	-2.0944e-06
2	0	0	0	1	402.964	0.130852	0.131523	-0.0148283	2	2.36255	12	-1.95027e-06
2	0	0	0	1	403.864	0.121852	0.121066	-0.0144116	2	2.36253	12	-1.74476e-06
2	0	0	0	1	404.764	0.112852	0.112432	-0.0139433	2	2.36252	12	-1.56767e-06
2	1	0	0	1	405.664	0.103852	0.104456	-0.0135853	2	2.36251	12	-1.41908e-06
2	1	0	0	1	406.564	0.0948514	0.0937333	-0.0129495	2	2.36249	12	-1.2138e-06
2	0	0	0	1	407.464	0.0858513	0.0853768	-0.0129557	2	2.36248	12	-1.10611e-06
2	0	0	0	1	408.364	0.0768511	0.0762969	-0.0127895	2	2.36247	12	-9.758e-07
2	0	0	0	1	409.264	0.0678509	0.0691835	-0.0122386	2	2.36246	12	-8.46709e-07
2	1	0	0	1	410.164	0.0588508	0.0584446	-0.0121484	2	2.36245	12	-7.10009e-07
2	1	0	1	1	411.064	0.0498506	0.0500255	-0.011916	2	2.36244	12	-5.96102e-07
2	0	0	1	1	411.964	0.0408504	0.0396292	-0.011803	2	2.36243	12	-4.67744e-07
2	0	0	1	1	412.864	0.0318503	0.0302236	-0.0118162	2	2.36241	12	-3.57127e-07
2	0	0	1	1	413.764	0.0228501	0.0225046	-0.0117712	2	2.3624	12	-2.64907e-07
2	1	0	1	1	414.664	0.0138499	0.0139593	-0.0115298	2	2.36239	12	-1.60949e-07
2	1	0	1	1	415.564	0.00484978	0.0064705	-0.0108836	2	2.36238	12	-7.04223e-08
2	0	0	0	0	416.305	0.00254974	0.00138956	-0.0100929	3	2.36238	12	-1.40247e-08
2	0	0	0	0	417.205	0.0115499	0.0105427	-0.00921623	3	2.36237	12	-9.71638e-08
2	1	0	0	0	418.105	0.0205501	0.0205539	-0.00814254	3	2.36236	12	-1.67361e-07
2	1	0	0	0	419.005	0.0295502	0.0287969	-0.00725377	3	2.36235	12	-2.08887e-07
2	1	0	0	0	419.905	0.0385504	0.0373306	-0.00633736	3	2.36235	12	-2.36577e-07
2	1	0	0	0	420.805	0.0475506	0.0478309	-0.00545119	3	2.36234	12	-2.60735e-07
2	0	0	1	0	421.705	0.0565507	0.0555308	-0.00553286	3	2.36234	12	-3.07244e-07
2	0	0	1	0	422.605	0.0655509	0.0659196	-0.0047347	3	2.36233	12	-3.1211e-07
2	0	0	1	0	423.505	0.0745511	0.0747545	-0.00443509	3	2.36233	12	-3.31543e-07
2	1	0	1	0	424.405	0.0835512	0.0798164	-0.00407366	3	2.36233	12	-3.25145e-07
2	1	0	1	0	425.305	0.0925514	0.0913827	-0.00336778	3	2.36232	12	-3.07756e-07
2	1	0	1	0	426.205	0.101552	0.102006	-0.00312543	3	2.36232	12	-3.18812e-07
2	0	0	1	0	427.105	0.110552	0.109146	-0.00289464	3	2.36232	12	-3.15938e-07
2	0	0	1	0	428.005	0.119552	0.120222	-0.0023132	3	2.36232	12	-2.78098e-07
2	0	0	1	0	428.905	0.128552	0.127392	-0.00174771	3	2.36231	12	-2.22643e-07
2	1	0	1	0	429.805	0.137552	0.135454	-0.00194733	3	2.36231	12	-2.63775e-07
2	1	0	1	0	430.705	0.146552	0.144168	-0.00165792	3	2.36231	12	-2.3902e-07
2	0	0	1	0	431.605	0.155553	0.155088	-0.00091098	3	2.36231	12	-1.41282e-07
2	1	0	0	0	432.505	0.164553	0.162645	-0.000903054	3	2.36231	12	-1.46878e-07
2	1	0	0	0	433.405	0.173553	0.171144	-0.000537927	3	2.36231	12	-9.2063e-08
2	0	0	0	0	434.305	0.182553	0.182818	-0.000121214	3	2.36231	12	-2.21602e-08
2	1	0	0	0	435.205	0.191553	0.192067	0.000431153	3	2.36231	12	8.28104e-08
2	1	0	0	0	436.105	0.200553	0.199239	0.000324652	3	2.36231	12	6.46832e-08
2	0	0	0	0	437.005	0.209554	0.209034	0.000945088	3	2.36231	12	1.97555e-07
2	1	0	0	0	437.905	0.218554	0.218905	0.00198732	3	2.36231	12	4.35034e-07
2	1	0	0	0	438.805	0.227554	0.229779	0.00183763	3	2.36231	12	4.22249e-07
2	0	0	0	0	439.705	0.236554	0.235414	0.00232456	3	2.36232	12	5.47235e-07
2	0	0	0	0	440.605	0.245554	0.244399	0.00348007	3	2.36232	12	8.50525e-07
2	1	0	0	0	441.505	0.254554	0.25532	0.00376216	3	2.36232	12	9.60555e-07
2	1	0	0	0	442.405	0.263555	0.263367	0.00419686	3	2.36233	12	1.10531e-06
2	0	0	1	0	443.306	0.272555	0.273535	0.00525515	3	2.36233	12	1.43747e-06
2	1	0	1	0	444.206	0.281555	0.279663	0.00605978	3	2.36234	12	1.6947e-06
2	1	0	1	0	445.106	0.290555	0.289938	0.00756734	3	2.36234	12	2.19406e-06
2	0	0	1	0	446.006	0.299555	0.298767	0.00793597	3	2.36235	12	2.371e-06
2	0	0	1	0	446.906	0.308555	0.309167	0.00867653	3	2.36236	12	2.6825e-06
2	0	0	1	0	447.806	0.317556	0.315739	0.009953	3	2.36237	12	3.14255e-06
2	1	0	1	0	448.706	0.326556	0.324808	0.0111881	3	2.36238	12	3.63398e-06
2	1	0	1	0	449.606	0.335556	0.333294	0.0124747	3	2.36239	12	4.15773e-06
2	1	0	1	0	450.506	0.344556	0.345941	0.0137845	3	2.3624	12	4.76863e-06
2	0	0	1	0	451.406	0.353556	0.353731	0.0148924	3	2.36241	12	5.26789e-06
2	0	0	1	0	452.306	0.362556	0.364238	0.0165528	3	2.36243	12	6.02917e-06
2	0	0	1	0	453.206	0.371557	0.373064	0.0180429	3	2.36244	12	6.73118e-06
2	1	0	0	0	454.106	0.380557	0.383637	0.0199793	3	2.36246	12	7.66479e-06
2	1	0	0	0	455.006	0.389557	0.393647	0.0222452	3	2.36248	12	8.75674e-06
2	1	0	0	0	455.906	0.398557	0.400954	0.0243693	3	2.3625	12	9.77099e-06
2	1	0	0	0	456.806	0.407557	0.408882	0.026961	3	2.36252	12	1.10239e-05
2	1	0	0	0	457.706	0.416557	0.416993	0.0295132	3	2.36255	12	1.23068e-05
2	0	0	0	0	458.606	0.425558	0.425614	0.0311166	3	2.36258	12	1.32437e-05
2	0	0	0	0	459.506	0.434558	0.434389	0.0332352	3	2.36261	12	1.4437e-05
2	0	0	0	0	460.406	0.443558	0.441587	0.0351515	3	2.36264	12	1.55224e-05
2	1	0	0	0	461.306	0.452558	0.451247	0.0371979	3	2.36267	12	1.67854e-05
2	1	0	0	0	462.206	0.461558	0.458317	0.0396106	3	2.36271	12	1.81542e-05
2	1	0	0	0	463.106	0.470558	0.470463	0.0421348	3	2.36274	12	1.98229e-05
2	1	0	1	0	464.006	0.479559	0.47752	0.0444331	3	2.36278	12	2.12177e-05
2	1	0	1	0	464.906	0.488559	0.487286	0.0464348	3	2.36283	12	2.2627e-05
2	1	0	1	0	465.806	0.497559	0.499086	0.04903	3	2.36287	12	2.44702e-05
2	1	0	1	0	466.706	0.506559	0.507142	0.0507584	3	2.36292	12	2.57417e-05
2	1	0	1	0	467.606	0.515559	0.515193	0.0531465	3	2.36296	12	2.73807e-05
2	1	0	1	0	468.506	0.524559	0.523751	0.0550414	3	2.36301	12	2.8828e-05
2	1	0	1	0	469.406	0.53356	0.53226	0.0576366	3	2.36306	12	3.06777e-05
2	1	0	1	0	470.306	0.54256	0.540155	0.0601739	3	2.36312	12	3.25032e-05
2	1	0	1	0	471.206	0.55156	0.551709	0.0632463	3	2.36317	12	3.48935e-05
2	1	0	1	0	472.106	0.56056	0.559772	0.0669733	3	2.36323	12	3.74898e-05
2	1	0	1	0	473.006	0.56956	0.568691	0.0721622	3	2.3633	12	4.1038e-05
2	1	0	1	0	473.906	0.57856	0.579481	0.0793583	3	2.36337	12	4.59866e-05
2	1	0	0	0	474.806	0.587561	0.588331	0.0901519	3	2.36344	12	5.30391e-05
2	1	0	0	0	475.706	0.596561	0.597048	0.1056	3	2.36353	12	6.30485e-05
2	1	0	0	0	476.606	0.605561	0.603573	0.127662	3	2.36364	12	7.70536e-05
2	1	0	0	0	477.506	0.614561	0.613574	0.158546	3	2.36377	12	9.72794e-05
2	1	0	0	0	478.406	0.623561	0.622238	0.199884	3	2.36393	12	0.000124375
2	1	0	0	0	479.306	0.632561	0.632335	0.254853	3	2.36413	12	0.000161153
2	1	0	0	0	480.206	0.641562	0.639793	0.324786	3	2.3644	12	0.000207796
2	1	0	0	0	481.106	0.650562	0.651011	0.414906	3	2.36473	12	0.000270108
2	1	0	0	0	482.006	0.659562	0.660475	0.52545	3	2.36515	12	0.000347046
2	1	0	0	0	482.906	0.668562	0.67	0.66267	3	2.36568	12	0.000443989
2	1	0	0	0	483.806	0.677562	0.679356	0.828156	3	2.36635	12	0.000562612
2	1	0	0	0	484.721	0.686712	0.690973	1.02066	3	2.3672	12	0.000705247
2	1	0	1	0	485.636	0.695863	0.695283	1.27021	3	2.36826	11	0.000883154
2	1	0	1	0	486.536	0.704863	0.703684	1.54411	3	2.36952	11	0.00108657
2	1	0	1	0	487.436	0.713863	0.711653	1.85971	3	2.37105	11	0.00132347
2	1	0	1	0	488.336	0.722863	0.723622	2.22491	3	2.37289	11	0.00160999
2	1	0	1	0	489.236	0.731863	0.730552	2.63992	3	2.37508	11	0.0019286
2	1	0	1	0	490.136	0.740863	0.741091	3.10873	3	2.37767	11	0.00230385
2	1	0	1	0	491.036	0.749864	0.754031	3.63865	3	2.3807	11	0.00274365
2	1	0	1	0	491.936	0.758864	0.758098	4.22532	3	2.38424	11	0.00320321
2	1	0	1	0	492.836	0.767864	0.768025	4.87984	3	2.38833	11	0.00374784
2	1	0	1	0	493.736	0.776864	0.780508	5.59917	3	2.39305	11	0.00437019
2	1	0	1	0	494.636	0.785864	0.784488	6.38851	3	2.39844	11	0.00501171
2	1	0	1	0	495.536	0.794864	0.79297	7.25125	3	2.40458	11	0.00575002
2	1	0	0	0	496.437	0.803864	0.798944	8.18188	3	2.41152	11	0.00653686
2	1	0	0	0	497.337	0.812865	0.807916	9.18538	3	2.41934	11	0.00742102
2	1	0	0	0	498.237	0.821865	0.817574	10.2567	3	2.42809	11	0.00838565
2	1	0	0	0	499.167	0.831165	0.829715	11.4366	3	2.43818	10	0.00948913
2	1	0	0	0	500.067	0.840165	0.840499	12.6566	3	2.44903	10	0.0106379
2	1	0	0	0	500.967	0.849165	0.851457	13.9277	3	2.46099	10	0.0118588
2	1	0	0	0	501.867	0.858166	0.863474	15.2453	3	2.47412	10	0.0131639
2	1	0	0	0	502.767	0.867166	0.871866	16.6462	3	2.48848	10	0.0145133
2	1	0	0	0	503.667	0.876166	0.877409	18.0919	3	2.50412	10	0.015874
2	1	0	0	0	504.567	0.885166	0.886779	19.5858	3	2.52107	10	0.0173683
2	1	0	0	0	505.467	0.894166	0.895098	21.134	3	2.5394	10	0.018917
2	1	0	1	0	506.367	0.903166	0.903646	22.7199	3	2.55914	10	0.0205307
2	1	0	1	0	507.267	0.912167	0.91154	24.3778	3	2.58034	10	0.0222214
2	1	0	1	0	508.167	0.921167	0.920091	26.025	3	2.60303	10	0.0239453
2	1	0	1	0	509.067	0.930167	0.927819	27.7499	3	2.62723	10	0.0257469
2	1	0	1	0	509.967	0.939167	0.93696	29.5144	3	2.65299	10	0.0276538
2	1	0	1	0	510.867	0.948167	0.946041	31.2655	3	2.68035	10	0.0295784
2	1	0	1	0	511.767	0.957167	0.956416	33.0929	3	2.70934	10	0.0316506
2	1	0	1	0	512.667	0.966168	0.965597	34.8871	3	2.73993	10	0.0336869
2	1	0	1	0	513.567	0.975168	0.97556	36.7749	3	2.7722	10	0.0358761
2	1	0	1	0	514.467	0.984168	0.984027	38.6623	3	2.80617	10	0.0380447
2	1	0	1	0	515.367	0.993168	0.993706	40.6677	3	2.84189	10	0.0404117
2	1	0	0	0	516.107	0.999468	0.998542	42.0083	3	2.8726	10	0.0419471
2	1	0	0	0	517.007	0.990468	0.989971	39.517	3	2.90928	10	0.0391207
2	1	0	0	0	517.907	0.981468	0.981342	37.1662	3	2.94376	10	0.0364728
2	1	0	0	0	518.807	0.972468	0.97279	34.8529	3	2.97615	10	0.0339045
2	1	0	0	0	519.707	0.963467	0.965094	32.6987	3	3.00654	10	0.0315573
2	1	0	0	0	520.607	0.954467	0.958144	30.5869	3	3.035	10	0.0293067
2	1	0	0	0	521.507	0.945467	0.94853	28.5287	3	3.06159	10	0.0270603
2	1	0	0	0	522.407	0.936467	0.936907	26.6026	3	3.0864	10	0.0249242
2	1	0	0	0	523.307	0.927467	0.927953	24.7387	3	3.10948	10	0.0229564
2	1	0	0	0	524.207	0.918467	0.918762	22.9247	3	3.13092	10	0.0210624
2	1	0	0	0	525.107	0.909467	0.909589	21.2138	3	3.15076	10	0.0192959
2	1	0	0	0	526.007	0.900466	0.900267	19.5883	3	3.16911	10	0.0176347
2	1	0	1	0	526.908	0.891466	0.88913	18.0392	3	3.18602	10	0.0160391
2	1	0	1	0	527.808	0.882466	0.881077	16.566	3	3.20157	10	0.0145959
2	1	0	1	0	528.708	0.873466	0.874313	15.1843	3	3.21584	10	0.0132758
2	1	0	1	0	529.608	0.864466	0.86325	13.8653	3	3.22889	10	0.0119692
2	1	0	1	0	530.508	0.855465	0.851636	12.6245	3	3.24079	10	0.0107514
2	1	0	1	0	531.408	0.846465	0.848132	11.4647	3	3.25162	10	0.00972356
2	1	0	1	0	532.308	0.837465	0.840476	10.3808	3	3.26144	10	0.00872485
2	1	0	1	0	533.208	0.828465	0.826553	9.3652	3	3.27031	10	0.00774083
2	1	0	1	0	534.108	0.819465	0.819731	8.41882	3	3.27831	10	0.00690117
2	1	0	1	0	535.008	0.810465	0.813615	7.55883	3	3.28549	10	0.00614997
2	1	0	1	0	535.908	0.801465	0.807448	6.75085	3	3.29191	10	0.00545096
2	1	0	0	0	536.808	0.792464	0.795686	6.00473	3	3.29765	10	0.00477788
2	1	0	0	0	537.708	0.783464	0.788533	5.33118	3	3.30275	10	0.00420381
2	1	0	0	0	538.608	0.774464	0.778608	4.71564	3	3.30726	10	0.00367164
2	1	0	0	0	539.538	0.765164	0.764061	4.11937	3	3.31137	11	0.00314745
2	1	0	0	0	540.438	0.756164	0.75241	3.60776	3	3.31484	11	0.00271452
2	1	0	0	0	541.338	0.747164	0.741911	3.1469	3	3.31787	11	0.00233472
2	1	0	0	0	542.238	0.738163	0.733991	2.7253	3	3.32051	11	0.00200035
2	1	0	0	0	543.138	0.729163	0.727015	2.35405	3	3.32279	11	0.00171143
2	1	0	0	0	544.038	0.720163	0.716395	2.02039	3	3.32475	11	0.0014474
2	1	0	0	0	544.938	0.711163	0.709971	1.7218	3	3.32643	11	0.00122243
2	1	0	0	0	545.838	0.702163	0.701324	1.46089	3	3.32786	11	0.00102456
2	1	0	0	0	546.738	0.693163	0.692097	1.22738	3	3.32907	11	0.000849467
2	1	0	1	0	547.638	0.684162	0.683363	1.0256	3	3.33008	11	0.000700856
2	1	0	1	0	548.538	0.675162	0.672473	0.849316	3	3.33092	11	0.000571142
2	1	0	1	0	549.438	0.666162	0.662702	0.698828	3	3.33161	11	0.000463115
2	1	0	1	0	550.338	0.657162	0.65191	0.567574	3	3.33218	11	0.000370007
2	1	0	1	0	551.238	0.648162	0.645223	0.454969	3	3.33264	11	0.000293557
2	1	0	1	0	552.168	0.638861	0.635005	0.360099	3	3.33301	12	0.000228665
2	1	0	1	0	553.068	0.629861	0.630145	0.282905	3	3.3333	12	0.000178271
2	1	0	1	0	553.968	0.620861	0.621654	0.219056	3	3.33352	12	0.000136177
2	1	0	1	0	554.868	0.611861	0.612125	0.167584	3	3.3337	12	0.000102582
2	1	0	1	0	555.768	0.602861	0.601341	0.126414	3	3.33383	12	7.60179e-05
2	1	0	1	0	556.668	0.593861	0.595988	0.0929627	3	3.33392	12	5.54046e-05
2	1	0	1	0	557.568	0.584861	0.585559	0.0672308	3	3.33399	12	3.93676e-05
2	1	0	0	0	558.468	0.57586	0.576067	0.0475034	3	3.33404	12	2.73651e-05
2	1	0	0	0	559.368	0.56686	0.565214	0.0322163	3	3.33408	12	1.82091e-05
2	1	0	0	0	560.268	0.55786	0.556429	0.0204092	3	3.3341	12	1.13563e-05
2	1	0	0	0	561.168	0.54886	0.547593	0.0117109	3	3.33411	12	6.41279e-06
2	1	0	0	0	562.068	0.53986	0.537751	0.0053382	3	3.33412	12	2.87063e-06
2	1	0	0	0	562.968	0.53086	0.528435	-0.000127166	3	3.33412	12	-6.71989e-08
2	1	0	0	0	563.868	0.521859	0.519837	-0.00346224	3	3.33412	12	-1.7998e-06
2	0	0	0	0	564.768	0.512859	0.511893	-0.00657082	3	3.33411	12	-3.36356e-06
2	0	0	0	0	565.668	0.503859	0.503958	-0.00924064	3	3.3341	12	-4.6569e-06
2	0	0	0	0	566.568	0.494859	0.494634	-0.0107319	3	3.33409	12	-5.30838e-06
2	0	0	0	0	567.468	0.485859	0.486421	-0.0124549	3	3.33408	12	-6.05831e-06
2	1	0	1	0	568.368	0.476859	0.476459	-0.0135453	3	3.33407	12	-6.45379e-06
2	1	0	1	0	569.268	0.467858	0.467179	-0.0146375	3	3.33406	12	-6.83834e-06
2	1	0	1	0	570.168	0.458858	0.459336	-0.0156629	3	3.33404	12	-7.19452e-06
2	1	0	1	0	571.068	0.449858	0.450482	-0.0166309	3	3.33403	12	-7.49191e-06
2	1	0	1	0	571.968	0.440858	0.440871	-0.0171258	3	3.33401	12	-7.55029e-06
2	1	0	1	0	572.868	0.431858	0.431803	-0.0176225	3	3.33399	12	-7.60943e-06
2	1	0	1	0	573.768	0.422857	0.424077	-0.0186106	3	3.33398	12	-7.89232e-06
2	1	0	1	0	574.668	0.413857	0.413522	-0.0189653	3	3.33396	12	-7.84257e-06
2	1	0	1	0	575.568	0.404857	0.402639	-0.0194239	3	3.33394	12	-7.82083e-06
2	1	0	1	0	576.468	0.395857	0.393108	-0.0196756	3	3.33392	12	-7.73463e-06
2	1	0	1	0	577.368	0.386857	0.38261	-0.0204685	3	3.33391	12	-7.83144e-06
2	1	0	1	0	578.268	0.377857	0.375616	-0.0205437	3	3.33389	12	-7.71656e-06
2	1	0	0	0	579.169	0.368857	0.365342	-0.0208757	3	3.33387	12	-7.62679e-06
2	1	0	0	0	580.069	0.359856	0.357738	-0.0213144	3	3.33385	12	-7.62494e-06
2	1	0	0	0	580.969	0.350856	0.349015	-0.0211556	3	3.33383	12	-7.38362e-06
2	1	0	0	0	581.869	0.341856	0.342569	-0.0215105	3	3.33381	12	-7.36884e-06
2	0	0	0	0	582.769	0.332856	0.334622	-0.0219206	3	3.33379	12	-7.33512e-06
2	0	0	0	0	583.669	0.323856	0.324716	-0.0218385	3	3.33377	12	-7.0913e-06
2	0	0	0	0	584.569	0.314856	0.315633	-0.0217285	3	3.33375	12	-6.85822e-06
2	0	0	0	0	585.469	0.305855	0.307615	-0.0217858	3	3.33373	12	-6.70164e-06
2	0	0	0	0	586.369	0.296855	0.29932	-0.0213985	3	3.33371	12	-6.405e-06
2	0	0	0	0	587.269	0.287855	0.290373	-0.0211693	3	3.33369	12	-6.14698e-06
2	0	0	0	0	588.169	0.278855	0.277638	-0.0208766	3	3.33367	12	-5.79614e-06
2	0	0	0	0	589.069	0.269855	0.26949	-0.0205372	3	3.33365	12	-5.53457e-06
2	0	0	1	0	589.969	0.260855	0.261734	-0.0201339	3	3.33363	12	-5.26972e-06
2	0	0	1	0	590.869	0.251854	0.2504	-0.0196832	3	3.33361	12	-4.92869e-06
2	0	0	1	0	591.769	0.242854	0.242251	-0.0194525	3	3.33359	12	-4.71238e-06
2	0	0	1	0	592.669	0.233854	0.233545	-0.0188806	3	3.33358	12	-4.40947e-06
2	0	0	1	0	593.569	0.224854	0.2253	-0.0182726	3	3.33356	12	-4.11681e-06
2	0	0	1	0	594.469	0.215854	0.216143	-0.0182992	3	3.33354	12	-3.95524e-06
2	0	0	1	0	595.369	0.206854	0.209044	-0.0175678	3	3.33353	12	-3.67244e-06
2	0	0	1	0	596.269	0.197853	0.19727	-0.0169579	3	3.33351	12	-3.34527e-06
2	0	0	1	0	597.169	0.188853	0.188301	-0.0171513	3	3.33349	12	-3.2296e-06
2	0	0	1	0	598.069	0.179853	0.179969	-0.0163215	3	3.33348	12	-2.93736e-06
2	1	0	1	0	598.969	0.170853	0.170496	-0.0161363	3	3.33346	12	-2.75117e-06
2	1	0	1	0	599.869	0.161853	0.159411	-0.0158733	3	3.33345	12	-2.53037e-06
2	1	0	0	0	600.769	0.152853	0.150516	-0.0146552	3	3.33343	12	-2.20583e-06
2	1	0	0	0	601.669	0.143852	0.142405	-0.0148484	3	3.33342	12	-2.1145e-06
2	1	0	0	0	602.569	0.134852	0.132925	-0.0145091	3	3.33341	12	-1.92862e-06
2	1	0	0	0	603.469	0.125852	0.123354	-0.0138102	3	3.33339	12	-1.70355e-06
2	1	0	0	0	604.369	0.116852	0.116559	-0.013888	3	3.33338	12	-1.61877e-06
2	1	0	0	0	605.269	0.107852	0.109691	-0.0132312	3	3.33337	12	-1.45134e-06
2	1	0	0	0	606.169	0.0988515	0.100106	-0.0129971	3	3.33336	12	-1.30109e-06
2	1	0	0	0	607.069	0.0898514	0.0924159	-0.0127091	3	3.33335	12	-1.17452e-06
2	1	0	0	0	607.969	0.0808512	0.0832108	-0.0121997	3	3.33333	12	-1.01515e-06
2	1	0	0	0	608.869	0.071851	0.0723573	-0.0119202	3	3.33332	12	-8.62512e-07
2	0	0	0	0	609.769	0.0628509	0.0658528	-0.0116649	3	3.33331	12	-7.68167e-07
2	0	0	1	0	610.669	0.0538507	0.0510322	-0.0113336	3	3.3333	12	-5.7838e-07
2	0	0	1	0	611.569	0.0448505	0.038788	-0.0110465	3	3.33329	12	-4.28472e-07
2	0	0	1	0	612.469	0.0358504	0.0341643	-0.010737	3	3.33328	12	-3.6682e-07
2	0	0	1	0	613.369	0.0268502	0.0292838	-0.0105652	3	3.33327	12	-3.09389e-07
2	0	0	1	0	614.269	0.01785	0.0171564	-0.010701	3	3.33326	12	-1.83591e-07
2	1	0	1	0	615.169	0.00884985	0.0078972	-0.0107736	3	3.33325	12	-8.50809e-08
2	1	0	1	0	616.034	0.000199694	0.00025245	-0.0103435	3	3.33324	12	-2.61121e-09
2	0	0	0	1	616.81	-0.00755045	-0.00764264	-0.0102811	3	3.33323	12	7.85751e-08
2	1	0	0	1	617.71	-0.0165506	-0.0155059	-0.0100425	3	3.33322	12	1.55719e-07
2	1	0	0	1	618.61	-0.0255508	-0.0269608	-0.0098249	3	3.33321	12	2.64887e-07
2	1	0	0	1	619.51	-0.034551	-0.0344518	-0.00992655	3	3.33321	12	3.41987e-07
2	1	0	0	1	620.41	-0.0435511	-0.0457317	-0.00994102	3	3.3332	12	4.54619e-07
2	1	0	1	1	621.31	-0.0525513	-0.0526976	-0.00967262	3	3.33319	12	5.09724e-07
2	1	0	1	1	622.21	-0.0615515	-0.0665286	-0.00966055	3	3.33318	12	6.42702e-07
2	0	0	1	1	623.11	-0.0705516	-0.0738763	-0.00950025	3	3.33317	12	7.01843e-07
2	0	0	1	1	624.01	-0.0795518	-0.0826571	-0.00916601	3	3.33316	12	7.57636e-07
2	0	0	1	1	624.91	-0.088552	-0.0908598	-0.00920365	3	3.33315	12	8.36242e-07
2	0	0	1	1	625.81	-0.0975522	-0.0973918	-0.00884994	3	3.33314	12	8.61912e-07
2	0	0	1	1	626.71	-0.106552	-0.104884	-0.00888671	3	3.33313	12	9.32072e-07
2	0	0	1	1	627.61	-0.115553	-0.117778	-0.00899861	3	3.33313	12	1.05984e-06
2	1	0	1	1	628.51	-0.124553	-0.12313	-0.00906173	3	3.33312	12	1.11577e-06
2	1	0	1	1	629.41	-0.133553	-0.13431	-0.00899244	3	3.33311	12	1.20777e-06
2	1	0	1	1	630.31	-0.142553	-0.144699	-0.00907995	3	3.3331	12	1.31386e-06
2	1	0	1	1	631.21	-0.151553	-0.153861	-0.00936368	3	3.33309	12	1.44071e-06
2	0	0	0	1	632.085	-0.160303	-0.160876	-0.00904379	3	3.33308	12	1.45493e-06
2	0	0	1	1	632.107	-0.160603	-0.163988	-0.016232	3	3.33308	12	2.66186e-06