File: Data_Lola/CoNiFeNx_400ºC_24h_13102022/Electrodes_20012023/Set 1/2023_01_20_CoNiFeNx_400ºC_24h_electrode2_set1_20012023_C05.mpt
EC-Lab ASCII FILE
Nb header lines : 64

Potentio Electrochemical Impedance Spectroscopy

Run on channel : 5 (SN 30436)
User :
CE vs. WE compliance from -10 V to 10 V
Electrode connection : standard
Potential control : Ewe
Ewe ctrl range : min = -2.50 V, max = 2.50 V
Safety Limits :
	Do not start on E overload
Acquisition started on : 01/20/2023 15:51:02.213
Loaded Setting File :  NONE
Saved on :
	File : 2023_01_20_CoNiFeNx_400ºC_24h_electrode2_set1_20012023_C05.mpr
	Directory : C:\Users\grupogalan\Documents\EC-Lab\Data\Lole Jurado\
	Host : 169.254.104.159
Device : VSP (SN 1176)
Address : USB
EC-Lab for windows v11.46 (software)
Internet server v11.40 (firmware)
Command interpretor v11.40 (firmware)
Electrode material :
Initial state :
Electrolyte :
Comments :
Electrode surface area : 0.001 cm²
Characteristic mass : 0.001 g
Equivalent Weight : 0.000 g/eq.
Density : 0.000 g/cm3
Volume (V) : 0.001 cm³
Record Ece
Cycle Definition : Charge/Discharge alternance
Mode                Single sine
E (V)               0.0000
vs.                 Eoc
tE (h:m:s)          0:00:0.0000
record              0
dI                  0.000
unit dI             mA
dt (s)              0.000
fi                  200.000
unit fi             kHz
ff                  100.000
unit ff             mHz
Nd                  6
Points              per decade
spacing             Logarithmic
Va (mV)             10.0
pw                  0.10
Na                  2
corr                0
E range min (V)     -2.500
E range max (V)     2.500
I Range             Auto
Bandwidth           5
nc cycles           0
goto Ns'            0
nr cycles           0
inc. cycle          0

freq/Hz	Re(Z)/Ohm	-Im(Z)/Ohm	|Z|/Ohm	Phase(Z)/deg	time/s	<Ewe>/V	<I>/mA	Cs/µF	Cp/µF	cycle number	I Range	|Ewe|/V	|I|/A	Ns	(Q-Qo)/mA.h	<Ece>/V	|Ece|/V	Phase(Zce)/deg	|Zce|/Ohm	Re(Zce)/Ohm	-Im(Zce)/Ohm	Phase(Zwe-ce)/deg	|Zwe-ce|/Ohm	Re(Zwe-ce)/Ohm	-Im(Zwe-ce)/Ohm	Re(Y)/Ohm-1	Im(Y)/Ohm-1	|Y|/Ohm-1	Phase(Y)/deg	dq/mA.h
199998	1.32479	-1.54771	2.03727	49.4374	2.19854	-0.158596	-0.122623	-0.514169	-0.296746	1	9	0.00700045	0.00343619	0	-2.1257e-05	-0.105129	0.00333048	-21.8939	0.969236	0.899331	0.361417	28.0743	2.52072	2.22412	-1.18629	0.319191	-0.372899	0.490853	-49.4374	-2.1257e-05
135123	0.812185	-0.570378	0.99246	35.0794	2.45353	-0.158863	-0.109914	-2.06504	-0.682069	1	9	0.00941721	0.00948876	0	-3.27532e-05	-0.110916	0.0127529	1.94753	1.344	1.34323	-0.0456749	15.9508	2.24172	2.15541	-0.616053	0.824574	-0.579078	1.0076	-35.0794	-1.14962e-05
91291.2	0.743795	-0.306469	0.804459	22.3933	2.95256	-0.158424	-0.153371	-5.6886	-0.8256	1	9	0.00968385	0.0120377	0	-5.07495e-05	-0.111107	0.0177392	5.02509	1.47363	1.46797	-0.129078	11.1403	2.25424	2.21176	-0.435547	1.14933	-0.473564	1.24307	-22.3933	-1.79964e-05
61674.2	0.760272	-0.159847	0.776895	11.8735	3.45152	-0.158762	-0.0911676	-16.144	-0.683434	1	9	0.0107619	0.0138525	0	-7.54775e-05	-0.105511	0.0206361	1.75557	1.48971	1.48901	-0.0456382	5.21983	2.25865	2.24928	-0.205485	1.25964	-0.264838	1.28718	-11.8735	-2.4728e-05
41669.8	0.73089	0.0473359	0.732422	-3.70557	3.82853	-0.158101	-0.0768933	80.6879	0.337029	1	9	0.00969112	0.0132316	0	-2.20222e-05	-0.0882237	0.0201187	2.78277	1.5205	1.51871	-0.0738193	0.674484	2.24975	2.2496	-0.0264834	1.36248	0.0882406	1.36533	3.70557	5.34553e-05
28151	0.722647	0.108745	0.730783	-8.55777	4.20554	-0.158591	-0.1486	51.9896	1.15122	1	9	0.0102905	0.0140815	0	3.13235e-05	-0.112196	0.0207661	2.65738	1.47471	1.47312	-0.0683724	-1.05336	2.19614	2.19577	0.0403728	1.35316	0.203626	1.3684	8.55777	5.33458e-05
19020.9	0.802036	0.22716	0.833585	-15.8137	4.70456	-0.158634	-0.0224424	36.8346	2.73541	1	9	0.0103807	0.0124531	0	-6.88964e-05	-0.118633	0.0190273	-2.08625	1.52792	1.5269	0.0556222	-6.92304	2.34604	2.32894	0.282783	1.15424	0.326914	1.19964	15.8137	-0.00010022
12850.7	0.767873	0.4189	0.874704	-28.6139	5.08153	-0.15925	-0.0994042	29.5653	6.7808	1	9	0.0109164	0.0124801	0	-6.918e-05	-0.105778	0.0191296	0.544449	1.53281	1.53274	-0.0145652	-9.96798	2.33588	2.30062	0.404335	1.00362	0.547506	1.14324	28.6139	-2.83686e-07
8684.68	0.806687	0.567714	0.98643	-35.1364	5.45855	-0.158532	-0.155719	32.2802	10.6921	1	9	0.0103335	0.0104756	0	-8.49223e-05	-0.108681	0.0157921	-6.51721	1.50751	1.49776	0.171104	-17.7761	2.41999	2.30445	0.738819	0.829035	0.583442	1.01376	35.1364	-1.57422e-05
5864.01	0.893191	0.834311	1.22224	-43.0479	5.71357	-0.159285	-0.161197	32.531	15.158	1	9	0.0102855	0.00841532	0	-9.00983e-05	-0.110229	0.0126613	-4.41854	1.50455	1.50008	0.115913	-21.6551	2.57501	2.39327	0.950224	0.597906	0.558491	0.818171	43.0479	-5.17602e-06
3960.08	0.936424	1.20188	1.52362	-52.0767	6.01483	-0.159419	-0.196194	33.4391	20.8078	1	9	0.00939358	0.00616531	0	-0.000103519	-0.109828	0.0102814	0.0743364	1.66761	1.66761	-0.00216359	-24.7362	2.86711	2.60404	1.19972	0.403386	0.517738	0.656332	52.0767	-1.34208e-05
2678.72	0.955632	1.7417	1.98664	-61.2474	7.05913	-0.159663	-0.195821	34.1129	26.2196	1	9	0.0102227	0.00514571	0	-0.00015227	-0.136073	0.00829074	-8.63106	1.61119	1.59295	0.241794	-37.8927	3.22948	2.54858	1.9835	0.242131	0.4413	0.503361	61.2474	-4.87505e-05
1808.26	0.894535	2.50327	2.6583	-70.3358	7.50507	-0.159064	-0.187584	35.1601	31.1787	1	9	0.00964874	0.00362966	0	-0.000179268	-0.092235	0.0056213	-11.7997	1.54871	1.51598	0.316697	-49.4761	3.70983	2.41052	2.81997	0.126587	0.354242	0.37618	70.3358	-2.69981e-05
1221.96	0.979099	3.27295	3.41626	-73.3455	8.19359	-0.158545	-0.0191298	39.7947	36.526	1	10	0.00915914	0.00268104	0	-0.000192354	-0.106427	0.00505828	-8.41628	1.88669	1.86637	0.276143	-51.2793	4.54893	2.84547	3.54909	0.0838927	0.280438	0.292718	73.3455	-1.3086e-05
825.264	1.52532	4.68604	4.92804	-71.9698	8.85184	-0.158989	-0.0161063	41.1548	37.2121	1	10	0.00993814	0.00201665	0	-0.000195184	-0.100028	0.00357629	-9.81934	1.77338	1.7474	0.302437	-56.7329	5.96621	3.27272	4.98848	0.0628076	0.192956	0.20292	71.9698	-2.83052e-06
558.036	1.22746	6.91218	7.02032	-79.9304	9.29859	-0.1589	-0.0142646	41.2613	40	1	10	0.00961031	0.00136893	0	-0.000196733	-0.10383	0.00190425	-20.1278	1.39105	1.3061	0.478682	-71.0785	7.81304	2.53355	7.39086	0.0249054	0.14025	0.142444	79.9304	-1.5485e-06
377.051	2.66557	10.898	11.2193	-76.2557	9.74177	-0.159378	-0.0323649	38.7323	36.5459	1	10	0.0106173	0.000946346	0	-0.000200425	-0.0998947	0.00215673	-25.186	2.27901	2.06235	0.969852	-68.2786	12.7749	4.72792	11.8678	0.0211769	0.0865803	0.0891325	76.2557	-3.69249e-06
254.755	2.78982	15.1738	15.4282	-79.5821	10.1881	-0.159019	-0.0263551	41.172	39.8257	1	10	0.0102242	0.0006627	0	-0.000204162	-0.107211	0.000907434	-6.14711	1.3693	1.36142	0.146627	-74.8391	15.8729	4.15125	15.3205	0.0117206	0.063748	0.0648165	79.5821	-3.73686e-06
172.037	2.09988	22.5691	22.6666	-84.6844	10.6285	-0.1581	-0.027947	40.9906	40.6388	1	10	0.0101253	0.000446706	0	-0.000206626	-0.108185	0.00148481	-22.2185	3.32391	3.0771	1.2569	-77.7412	24.382	5.17698	23.826	0.00408716	0.0439281	0.0441178	84.6844	-2.46363e-06
116.227	4.09022	32.1788	32.4377	-82.756	11.7328	-0.158901	-0.00425691	42.5541	41.8775	1	11	0.0103139	0.000317959	0	-0.000208247	-0.106332	0.00199776	-36.264	6.28307	5.06604	3.71648	-75.69	37.0447	9.15626	35.8953	0.00388728	0.0305822	0.0308283	82.756	-1.62158e-06
78.5176	7.61818	46.5695	47.1885	-80.7094	12.1856	-0.158356	-0.00171987	43.5262	42.3918	1	11	0.0104206	0.000220829	0	-0.00020837	-0.103715	0.000569625	-37.9244	2.57948	2.03475	1.5854	-78.665	49.1129	9.65293	48.1549	0.0034212	0.0209136	0.0211916	80.7094	-1.22426e-07
53.0478	8.42607	65.9228	66.4591	-82.7161	12.6472	-0.15846	-0.00296584	45.511	44.7795	1	11	0.0104001	0.000156488	0	-0.000208717	-0.105453	0.00166606	-54.9048	10.6465	6.12109	8.71098	-78.9705	76.0383	14.5472	74.6338	0.00190773	0.0149254	0.0150468	82.7161	-3.47774e-07
35.8372	11.743	99.2775	99.9696	-83.2542	13.0822	-0.159288	-0.00332002	44.7338	44.1165	1	11	0.0104929	0.000104961	0	-0.000209275	-0.0835056	0.0014129	-57.2949	13.4611	7.27326	11.327	-80.2445	112.227	19.0162	110.605	0.00117501	0.00993379	0.010003	83.2542	-5.57371e-07
24.2323	20.9589	136.171	137.775	-81.25	13.5412	-0.158662	-0.00263925	48.2325	47.1163	1	11	0.0103345	7.50103e-05	0	-0.000209735	-0.105511	0.000603447	-126.255	8.04485	-4.75759	6.48729	-83.5209	143.575	16.2013	142.658	0.00110415	0.00717375	0.00725823	81.25	-4.60649e-07
16.367	42.1748	200.323	204.715	-78.1109	14.1781	-0.158833	-0.000214293	48.5423	46.482	1	12	0.0105892	5.17265e-05	0	-0.000209465	-0.103505	0.00092719	26.6122	17.9248	16.0259	-8.02944	-73.1608	200.909	58.2007	192.294	0.00100636	0.00478005	0.00488484	78.1109	2.70186e-07
11.0502	56.2353	284.843	290.341	-78.832	14.5839	-0.159019	-0.00129825	50.5643	48.6674	1	12	0.0105277	3.62596e-05	0	-0.000209887	-0.11487	0.00118359	-53.8589	32.6421	19.2515	26.3607	-76.3654	320.228	75.4868	311.204	0.000667102	0.003379	0.00344423	78.832	-4.2147e-07
7.46893	92.0171	373.592	384.758	-76.1633	14.8917	-0.158404	-0.00125117	57.0379	53.7756	1	12	0.0100306	2.60699e-05	0	-0.000209599	-0.107765	0.00125381	-34.1216	48.0941	39.8146	26.9784	-71.7831	421.707	131.832	400.571	0.000621576	0.00252362	0.00259904	76.1633	2.87405e-07
5.04683	95.3046	586.87	594.558	-80.776	15.334	-0.159267	-0.00271117	53.7353	52.3546	1	12	0.0102839	1.72967e-05	0	-0.000209649	-0.123657	0.000986874	-59.3375	57.0555	29.0971	49.0783	-78.9318	648.001	124.402	635.948	0.000269604	0.00166017	0.00168192	80.776	-4.96311e-08
3.4086	185.775	742.126	765.025	-75.946	16.3114	-0.159373	-0.0005926	62.9169	59.2067	1	13	0.0095641	1.25017e-05	0	-0.000210014	-0.0716435	0.000676315	-93.3039	54.0979	-3.11775	54.008	-77.0782	816.819	182.657	796.134	0.000317422	0.00126802	0.00130715	75.946	-3.64513e-07
2.30321	220.372	1126.56	1147.91	-78.9318	17.2484	-0.15845	-0.000396214	61.3384	59.0777	1	13	0.0102315	8.91319e-06	0	-0.000210294	-0.0865809	0.000929256	-51.115	104.256	65.4478	81.1539	-76.6852	1241.07	285.82	1207.71	0.00016724	0.000854944	0.000871148	78.9318	-2.80866e-07
1.55627	529.608	1566.58	1653.68	-71.3213	18.623	-0.158806	-0.000476177	65.2803	58.5847	1	13	0.0102322	6.18753e-06	0	-0.000210393	-0.100984	0.000939091	-58.2121	151.772	79.9497	129.006	-70.2266	1801.82	609.558	1695.58	0.000193666	0.000572862	0.000604713	71.3213	-9.82873e-08
1.05233	645.658	2092.9	2190.23	-72.855	20.6433	-0.158716	-0.000267012	72.2635	65.9837	1	13	0.0103642	4.73201e-06	0	-0.000210468	-0.0909934	0.000434983	-58.6859	91.9234	47.7753	78.533	-72.2895	2279.47	693.434	2171.44	0.000134593	0.000436284	0.000456573	72.855	-7.55306e-08
0.710357	906.216	3241.21	3365.51	-74.3794	38.4438	-0.158819	-0.000377436	69.1253	64.1134	1	13	0.0102754	3.05316e-06	0	-0.000212705	-0.0795897	0.000648992	-35.1061	212.564	173.896	122.244	-72.1965	3532.62	1080.11	3363.45	8.00074e-05	0.000286158	0.000297132	74.3794	-2.2364e-06
0.480355	1577.36	4260.32	4542.95	-69.6832	64.4375	-0.158583	-0.000826318	77.7705	68.3949	1	13	0.0102241	2.25054e-06	0	-0.000216952	-0.106561	0.000616192	-74.8932	273.797	71.3568	264.335	-69.979	4815.68	1648.72	4524.66	7.64285e-05	0.000206427	0.000220121	69.6832	-4.247e-06
0.324439	2534.34	5524.04	6077.66	-65.3552	102.535	-0.158626	-0.00083522	88.8034	73.362	1	13	0.0101719	1.67366e-06	0	-0.000224992	-0.105625	0.000564757	-53.5007	337.439	200.713	271.255	-64.7354	6408.27	2735.05	5795.3	6.86107e-05	0.000149549	0.000164537	65.3552	-8.04057e-06
0.218838	3795.5	7463.59	8373.23	-63.045	158.692	-0.158823	-0.000876954	97.443	77.4212	1	13	0.00998446	1.19243e-06	0	-0.00023752	-0.127095	0.000385144	-88.8282	322.992	6.60537	322.925	-63.974	8665.21	3802.11	7786.52	5.41356e-05	0.000106454	0.000119428	63.045	-1.25278e-05
0.147897	7098.69	10296.4	12506.3	-55.4162	241.467	-0.158867	-0.000737348	104.515	70.8419	1	13	0.0100342	8.0233e-07	0	-0.000255002	-0.0997228	0.00052167	-40.5062	650.194	494.366	422.32	-54.6865	13135.6	7593.06	10718.7	4.53861e-05	6.58307e-05	7.99599e-05	55.4162	-1.74819e-05
0.0999041	9846.11	10934.7	14714.4	-47.9986	363.741	-0.158811	-0.000458795	145.69	80.4561	1	13	0.0100207	6.81014e-07	0	-0.0002768	-0.0944699	0.000393358	-62.1049	577.607	270.235	510.492	-48.5267	15275.2	10116.3	11445.2	4.54758e-05	5.05036e-05	6.79607e-05	47.9986	-2.17977e-05