File: Data_Lola/CoNiFeNx_400ºC_24h_13102022/Electrodes_20012023/Set 1/2023_01_20_CoNiFeNx_400ºC_24h_electrode3_set1_20012023_C05.mpt
EC-Lab ASCII FILE
Nb header lines : 64

Potentio Electrochemical Impedance Spectroscopy

Run on channel : 5 (SN 30436)
User :
CE vs. WE compliance from -10 V to 10 V
Electrode connection : standard
Potential control : Ewe
Ewe ctrl range : min = -2.50 V, max = 2.50 V
Safety Limits :
	Do not start on E overload
Acquisition started on : 01/20/2023 15:27:01.195
Loaded Setting File :  NONE
Saved on :
	File : 2023_01_20_CoNiFeNx_400ºC_24h_electrode1_set1_20012023_C05.mpr
	Directory : C:\Users\grupogalan\Documents\EC-Lab\Data\Lole Jurado\
	Host : 169.254.104.159
Device : VSP (SN 1176)
Address : USB
EC-Lab for windows v11.46 (software)
Internet server v11.40 (firmware)
Command interpretor v11.40 (firmware)
Electrode material :
Initial state :
Electrolyte :
Comments :
Electrode surface area : 0.001 cm²
Characteristic mass : 0.001 g
Equivalent Weight : 0.000 g/eq.
Density : 0.000 g/cm3
Volume (V) : 0.001 cm³
Record Ece
Cycle Definition : Charge/Discharge alternance
Mode                Single sine
E (V)               0.0000
vs.                 Eoc
tE (h:m:s)          0:00:0.0000
record              0
dI                  0.000
unit dI             mA
dt (s)              0.000
fi                  200.000
unit fi             kHz
ff                  100.000
unit ff             mHz
Nd                  6
Points              per decade
spacing             Logarithmic
Va (mV)             10.0
pw                  0.10
Na                  2
corr                0
E range min (V)     -2.500
E range max (V)     2.500
I Range             Auto
Bandwidth           5
nc cycles           0
goto Ns'            0
nr cycles           0
inc. cycle          0

freq/Hz	Re(Z)/Ohm	-Im(Z)/Ohm	|Z|/Ohm	Phase(Z)/deg	time/s	<Ewe>/V	<I>/mA	Cs/µF	Cp/µF	cycle number	I Range	|Ewe|/V	|I|/A	Ns	(Q-Qo)/mA.h	<Ece>/V	|Ece|/V	Phase(Zce)/deg	|Zce|/Ohm	Re(Zce)/Ohm	-Im(Zce)/Ohm	Phase(Zwe-ce)/deg	|Zwe-ce|/Ohm	Re(Zwe-ce)/Ohm	-Im(Zwe-ce)/Ohm	Re(Y)/Ohm-1	Im(Y)/Ohm-1	|Y|/Ohm-1	Phase(Y)/deg	dq/mA.h
199998	1.8718	-1.45507	2.37084	37.8602	2.19854	-0.140499	-0.168763	-0.546903	-0.206004	1	9	0.00813175	0.00342991	0	-2.12291e-05	-0.111317	0.0037992	-22.0258	1.10767	1.02683	0.415402	19.7317	3.07944	2.89863	-1.03967	0.333009	-0.258869	0.421792	-37.8602	-2.12291e-05
135123	1.31811	-0.677873	1.4822	27.2157	2.57556	-0.140735	-0.171633	-1.73757	-0.363434	1	9	0.0101051	0.00681762	0	-4.11159e-05	-0.107001	0.0116701	1.40649	1.71175	1.71124	-0.0420156	13.3677	3.11371	3.02935	-0.719889	0.59998	-0.308556	0.674672	-27.2157	-1.98868e-05
91291.2	1.17944	-0.330808	1.22496	15.6677	3.07453	-0.140184	-0.100709	-5.27005	-0.38435	1	9	0.010715	0.00874727	0	-6.66908e-05	-0.110878	0.0157968	3.84518	1.80591	1.80185	-0.121106	8.61948	3.01535	2.98129	-0.451914	0.786024	-0.220463	0.816356	-15.6677	-2.55749e-05
61674.2	1.16988	-0.127891	1.17685	6.23878	3.45151	-0.14068	-0.146178	-20.1779	-0.238294	1	9	0.00938914	0.00797818	0	-0.000108748	-0.120085	0.0138503	4.92231	1.73602	1.72962	-0.148959	5.45418	2.91269	2.8995	-0.27685	0.844692	-0.0923413	0.849724	-6.23878	-4.20567e-05
41669.8	1.10457	0.06048	1.10623	-3.13406	3.82852	-0.140926	-0.163396	63.152	0.188766	1	9	0.00999249	0.00903296	0	-0.00012382	-0.0972396	0.0163202	0.21329	1.80674	1.80672	-0.00672576	-1.05779	2.91179	2.9113	0.0537543	0.902623	0.0494225	0.903975	3.13406	-1.50728e-05
28151	1.14138	0.201283	1.15899	-10.0014	4.32754	-0.140541	-0.12322	28.0879	0.847182	1	9	0.00991468	0.00855461	0	-0.00010599	-0.114412	0.0154489	-0.786563	1.80592	1.80575	0.0247911	-4.38657	2.95578	2.94713	0.226074	0.84971	0.149848	0.862822	10.0014	1.78298e-05
19020.9	1.14826	0.24165	1.17342	-11.8844	4.70455	-0.139945	-0.0701476	34.6259	1.46849	1	9	0.0100951	0.00860317	0	-7.31779e-05	-0.11105	0.0148915	-1.9759	1.73094	1.72991	0.0596812	-5.97683	2.8939	2.87817	0.301331	0.833946	0.175502	0.852213	11.8844	3.28126e-05
12850.7	1.21045	0.493528	1.30719	-22.1819	5.20352	-0.140722	-0.151433	25.0946	3.57706	1	9	0.0095834	0.0073313	0	-9.30132e-05	-0.104708	0.01288	-2.3094	1.75685	1.75542	0.0707937	-10.773	3.01908	2.96587	0.564321	0.708382	0.288824	0.764999	22.1819	-1.98353e-05
8684.68	1.19675	0.642781	1.35844	-28.2406	5.45856	-0.140199	-0.162092	28.5104	6.38331	1	9	0.00988797	0.0072789	0	-0.000101286	-0.102512	0.012892	-2.26567	1.77114	1.76976	0.0700187	-13.511	3.05094	2.9665	0.712799	0.648513	0.348321	0.736137	28.2406	-8.27281e-06
5864.01	1.25556	0.852034	1.51736	-34.1612	5.71356	-0.1406	-0.171558	31.8543	10.0439	1	9	0.00970272	0.00639446	0	-0.000106845	-0.114259	0.0117969	-0.963448	1.84486	1.8446	0.0310206	-15.8991	3.22348	3.10016	0.883054	0.545328	0.370065	0.659038	34.1612	-5.55877e-06
3960.08	1.30373	1.27605	1.82429	-44.3852	6.01487	-0.140114	-0.178304	31.4955	15.4098	1	9	0.00958196	0.00525244	0	-0.000121348	-0.104517	0.00974026	-5.48555	1.85443	1.84593	0.177273	-24.7696	3.4688	3.14967	1.45333	0.391743	0.383426	0.548159	44.3852	-1.45031e-05
2678.72	1.4002	1.71261	2.21215	-50.731	6.4441	-0.140469	-0.15024	34.6925	20.7933	1	9	0.00905709	0.00409425	0	-0.000135736	-0.107726	0.0074701	-4.75317	1.82453	1.81826	0.151187	-30.0749	3.71917	3.21846	1.86379	0.28613	0.349969	0.452049	50.731	-1.43881e-05
1808.26	1.64317	2.51549	3.00461	-56.8466	7.10309	-0.139642	-0.150576	34.9893	24.5247	1	9	0.0104729	0.00348561	0	-0.000158328	-0.101041	0.00732251	-9.1152	2.10079	2.07426	0.332807	-37.4594	4.68317	3.71743	2.8483	0.182014	0.278642	0.332822	56.8466	-2.25924e-05
1221.96	1.57744	3.8999	4.20684	-67.9775	7.79151	-0.14036	-0.0239466	33.3973	28.7016	1	10	0.0111269	0.00264495	0	-0.000170543	-0.11913	0.0052688	-13.3338	1.99202	1.93833	0.459407	-51.1139	5.60037	3.51577	4.35931	0.0891334	0.220364	0.237708	67.9775	-1.22146e-05
825.264	1.73336	4.98007	5.27311	-70.809	8.23677	-0.140336	-0.0146374	38.725	34.5406	1	10	0.00965906	0.00183176	0	-0.000173708	-0.11552	0.00423865	0.550667	2.31398	2.31387	-0.0222392	-50.7742	6.40002	4.04724	4.95783	0.0623385	0.179103	0.189641	70.809	-3.16541e-06
558.036	2.29138	7.3596	7.70806	-72.7063	8.68357	-0.140097	-0.0214786	38.7529	35.3283	1	10	0.00969479	0.00125775	0	-0.000175528	-0.112884	0.00226936	-16.3893	1.80431	1.73099	0.509109	-62.9245	8.8372	4.02237	7.86871	0.0385662	0.123869	0.129734	72.7063	-1.81946e-06
377.051	2.12362	10.9472	11.1513	-79.0217	9.12675	-0.140233	-0.0278762	38.5583	37.1599	1	10	0.00981088	0.0008798	0	-0.000178864	-0.127019	0.00180026	-35.8266	2.04621	1.65905	1.19772	-72.7002	12.7203	3.78267	12.1449	0.0170777	0.0880349	0.089676	79.0217	-3.33651e-06
254.755	2.62373	15.6057	15.8247	-80.4563	9.57311	-0.140425	-0.0161362	40.0326	38.9321	1	10	0.00967134	0.000611155	0	-0.000181529	-0.109121	0.00134084	-37.3016	2.19394	1.74518	1.32955	-75.5344	17.4897	4.36892	16.9352	0.0104773	0.0623177	0.0631923	80.4563	-2.66471e-06
172.037	3.69026	23.7225	24.0078	-81.158	10.2555	-0.139677	-0.00191448	38.9976	38.0762	1	11	0.0102387	0.000426474	0	-0.00018332	-0.107612	0.00115943	-42.7356	2.71865	1.99683	1.84492	-77.4596	26.1923	5.68708	25.5674	0.00640251	0.0411581	0.0416531	81.158	-1.79107e-06
116.227	5.157	34.5613	34.9439	-81.5133	10.6958	-0.140212	-0.00222765	39.6207	38.7577	1	11	0.0102467	0.000293232	0	-0.0001837	-0.112139	0.00090861	11.4666	3.0986	3.03676	-0.615993	-76.4295	34.9202	8.19376	33.9453	0.00422332	0.0283039	0.0286173	81.5133	-3.79621e-07
78.5176	5.90071	47.1215	47.4895	-82.8624	11.1496	-0.139052	0.000964799	43.0164	42.3523	1	11	0.00963851	0.000202961	0	-0.000183802	-0.109656	0.00104485	-52.884	5.14806	3.1065	4.10514	-80.0276	52.0125	9.00721	51.2266	0.00261643	0.0208941	0.0210573	82.8624	-1.02723e-07
53.0478	9.74677	70.4627	71.1336	-82.1245	11.6103	-0.140607	-0.00356496	42.5788	41.7794	1	11	0.0100027	0.000140619	0	-0.000184361	-0.114565	0.001175	-13.5432	8.35591	8.12356	1.95677	-76.1385	74.5917	17.8703	72.4195	0.00192624	0.0139255	0.0140581	82.1245	-5.58237e-07
35.8372	5.94832	100.347	100.523	-86.6076	12.0462	-0.140224	-0.00174187	44.257	44.1021	1	11	0.00987826	9.82685e-05	0	-0.00018453	-0.1202	0.00102237	-68.6986	10.4038	3.77943	9.69306	-84.9481	110.469	9.72775	110.04	0.000588657	0.00993053	0.00994796	86.6076	-1.6906e-07
24.2323	7.0723	145.161	145.333	-87.2107	12.7542	-0.140899	-0.00107366	45.2455	45.1384	1	12	0.00986693	6.78919e-05	0	-0.000184712	-0.107822	0.00088872	-113.54	13.0902	-5.2281	12.0009	-89.3277	157.173	1.8442	157.162	0.000334836	0.00687259	0.00688075	87.2107	-1.82504e-07
16.367	40.5631	209.226	213.122	-79.028	13.1641	-0.140444	-0.00075342	46.4768	44.7932	1	12	0.0102532	4.81094e-05	0	-0.000184597	-0.110401	0.000872025	-46.1863	18.1259	12.5488	13.0795	-76.5631	228.562	53.112	222.305	0.000893051	0.00460638	0.00469215	79.028	1.15641e-07
11.0502	53.4465	307.186	311.801	-80.1301	13.5698	-0.139994	-0.000900624	46.8865	45.5089	1	12	0.0102504	3.28747e-05	0	-0.000184875	-0.108223	0.000979089	-54.7646	29.7824	17.1826	24.326	-77.9729	338.952	70.629	331.512	0.000549749	0.00315971	0.00320718	80.1301	-2.78522e-07
7.46893	100.529	421.096	432.929	-76.5729	13.8777	-0.140944	-0.00215881	50.6035	47.875	1	12	0.0103733	2.39607e-05	0	-0.000184856	-0.132062	0.00136542	-50.8215	56.9857	36.0001	44.1743	-73.6461	484.888	136.529	465.27	0.000536363	0.00224671	0.00230985	76.5729	1.90589e-08
5.04683	102.861	579.186	588.249	-79.9295	14.32	-0.139963	-0.000403396	54.4481	52.7833	1	12	0.00979852	1.66571e-05	0	-0.000184799	-0.110286	0.000904721	4.41382	54.3145	54.1534	-4.18001	-74.7269	596.058	157.014	575.006	0.000297254	0.00167377	0.00169996	79.9295	5.74233e-08
3.4086	186.753	812.344	833.534	-77.053	15.2974	-0.140544	-0.000733372	57.4784	54.5931	1	13	0.00960047	1.15178e-05	0	-0.000185037	-0.10935	0.000486508	-93.7279	42.2397	-2.74637	42.1503	-77.8475	874.081	184.006	854.494	0.000268795	0.00116921	0.00119971	77.053	-2.38914e-07
2.30321	261.349	1140.91	1170.46	-77.0978	16.2343	-0.140344	-0.000604552	60.567	57.5473	1	13	0.0094874	8.10572e-06	0	-0.000185296	-0.101022	0.000680664	-47.2221	83.9732	57.0311	61.6357	-75.1708	1243.97	318.381	1202.54	0.00019077	0.000832796	0.000854367	77.0978	-2.58475e-07
1.55627	467.886	1675.82	1739.91	-74.4004	17.6079	-0.140117	-0.000391725	61.0247	56.6117	1	13	0.00995508	5.7216e-06	0	-0.000185419	-0.101728	0.000659878	-38.1483	115.331	90.698	71.2399	-72.2695	1834.19	558.584	1747.06	0.000154556	0.00055357	0.000574741	74.4004	-1.23325e-07
1.05233	389.478	2382.51	2414.14	-80.7158	29.9069	-0.140418	-0.000375872	63.4794	61.8272	1	13	0.0100287	4.15414e-06	0	-0.000186799	-0.121327	0.000519149	-68.9411	124.972	44.9057	116.625	-80.1397	2536.61	434.383	2499.14	6.68281e-05	0.0004088	0.000414227	80.7158	-1.37986e-06
0.710357	927.037	3292.47	3420.49	-74.2747	47.777	-0.140506	-0.000583217	68.0491	63.0506	1	13	0.0102387	2.99334e-06	0	-0.000189166	-0.113323	0.000596494	-61.4159	199.274	95.3421	174.985	-73.5718	3615.03	1022.38	3467.45	7.92357e-05	0.000281414	0.000292356	74.2747	-2.36732e-06
0.480355	1275.57	4939.58	5101.62	-75.5206	73.7959	-0.140395	-0.000656098	67.076	62.8827	1	13	0.00989723	1.94002e-06	0	-0.000193205	-0.100754	0.000835152	-59.3288	430.487	219.596	370.266	-74.2736	5516.34	1495.17	5309.85	4.90104e-05	0.00018979	0.000196016	75.5206	-4.03863e-06
0.324439	2253.62	6566.56	6942.52	-71.058	111.976	-0.140464	-0.000610111	74.7048	66.833	1	13	0.0102222	1.47241e-06	0	-0.000199144	-0.109828	0.000517904	-41.5687	351.74	263.158	233.385	-69.6896	7250.76	2516.78	6799.95	4.67571e-05	0.00013624	0.00014404	71.058	-5.93859e-06
0.218838	3131.56	8660.65	9209.42	-70.1208	168.242	-0.140396	-0.000560402	83.9746	74.2649	1	13	0.0101451	1.1016e-06	0	-0.000208542	-0.101595	0.000639768	-55.6404	580.761	327.773	479.425	-69.2694	9772.82	3459.33	9140.07	3.69229e-05	0.000102114	0.000108584	70.1208	-9.39833e-06
0.147897	4955.79	12562.4	13504.5	-68.471	251.184	-0.140308	-0.00042141	85.6624	74.1264	1	13	0.0100099	7.41226e-07	0	-0.000219243	-0.108128	0.000308116	-68.4976	415.684	152.365	386.753	-68.4718	13920.2	5108.16	12949.1	2.7174e-05	6.88829e-05	7.40492e-05	68.471	-1.07006e-05
0.0999041	9374.2	14989.6	17679.5	-57.9789	373.766	-0.140386	6.12245e-05	106.279	76.3992	1	13	0.0101089	5.7179e-07	0	-0.000222659	-0.119092	0.000378141	-54.5992	661.328	383.102	539.062	-57.8571	18339.7	9757.3	15528.6	2.99914e-05	4.7957e-05	5.65628e-05	57.9789	-3.41645e-06