File: Data_Lola/CoNiFeNx_400ºC_24h_13102022/Electrodes_20012023/Set 1/2023_01_20_CoNiFeNx_400ºC_24h_electrode3_set1_20012023_1_01_CV_C01.mpt
EC-Lab ASCII FILE
Nb header lines : 57

Cyclic Voltammetry

Run on channel : 1 (SN 21648)
User :
CE vs. WE compliance from -10 V to 10 V
Electrode connection : standard
Potential control : Ewe
Ewe ctrl range : min = -2.50 V, max = 2.50 V
Safety Limits :
	Do not start on E overload
Acquisition started on : 01/20/2023 15:35:00.241
Loaded Setting File :  NONE
Saved on :
	File : 2023_01_20_CoNiFeNx_400ºC_24h_electrode1_set1_20012023_2_01_CV_C01.mpr
	Directory : C:\Users\grupogalan\Documents\EC-Lab\Data\Lole Jurado\
	Host : 169.254.104.159
Device : VSP (SN 1176)
Address : USB
EC-Lab for windows v11.46 (software)
Internet server v11.40 (firmware)
Command interpretor v11.40 (firmware)
Electrode material :
Initial state :
Electrolyte :
Comments :
Electrode surface area : 0.000 cm²
Characteristic mass : 0.001 g
Equivalent Weight : 0.000 g/eq.
Density : 0.000 g/cm3
Volume (V) : 0.001 cm³
Cycle Definition : Charge/Discharge alternance
Ei (V)              0.000
vs.                 Eoc
dE/dt               10.000
dE/dt unit          mV/s
E1 (V)              1.000
vs.                 Ref
Step percent        50
N                   10
E range min (V)     -2.500
E range max (V)     2.500
I Range             Auto
I Range min         Unset
I Range max         Unset
I Range init        Unset
Bandwidth           5
E2 (V)              0.000
vs.                 Ref
nc cycles           2
Reverse Scan        1
Ef (V)              0.000
vs.                 Eoc

mode	ox/red	error	control changes	counter inc.	time/s	control/V	Ewe/V	<I>/mA	cycle number	(Q-Qo)/C	I Range	P/W
2	0	0	1	0	0.000000000000000E+000	-0.177304	-0.168112	-0.0477846	1	0.0000000E+000	13	8.03318e-06
2	1	0	0	0	0.9852	-0.167454	-0.167842	0.000904579	1	8.46708e-07	12	-1.51826e-07
2	1	0	0	0	1.9852	-0.157453	-0.159393	0.00114301	1	2.29711e-06	12	-1.82188e-07
2	1	0	0	0	2.9852	-0.147453	-0.145008	0.00176745	1	4.12084e-06	12	-2.56295e-07
2	1	0	0	0	3.9852	-0.137453	-0.133482	0.00193083	1	6.33973e-06	12	-2.57732e-07
2	1	0	0	0	4.9852	-0.127453	-0.129044	0.00210004	1	8.94297e-06	12	-2.70998e-07
2	0	0	0	0	5.9852	-0.117453	-0.119185	0.00234432	1	1.19706e-05	12	-2.79407e-07
2	0	0	0	0	6.9852	-0.107452	-0.104049	0.00272385	1	1.53123e-05	12	-2.83414e-07
2	0	0	0	0	7.9852	-0.0974522	-0.096242	0.00330653	1	1.90088e-05	12	-3.18227e-07
2	0	0	0	0	8.9852	-0.087452	-0.0938119	0.00323454	1	2.31071e-05	12	-3.03438e-07
2	0	0	0	0	9.9852	-0.0774518	-0.0790262	0.00376831	1	2.74964e-05	12	-2.97795e-07
2	1	0	0	0	10.9852	-0.0674516	-0.0637377	0.00463389	1	3.22102e-05	12	-2.95354e-07
2	1	0	1	0	11.9854	-0.0574514	-0.0589687	0.00490579	1	3.71591e-05	12	-2.89288e-07
2	1	0	1	0	12.9854	-0.0474512	-0.0502441	0.0050717	1	4.24799e-05	12	-2.54823e-07
2	1	0	1	0	13.9854	-0.037451	-0.0374738	0.0048153	1	4.80583e-05	12	-1.80448e-07
2	0	0	1	0	14.9854	-0.0274508	-0.0280789	0.00465606	1	5.38654e-05	12	-1.30737e-07
2	0	0	1	0	15.9854	-0.0174506	-0.0169241	0.00527996	1	5.99383e-05	12	-8.93586e-08
2	1	0	1	0	16.9854	-0.00745045	-0.00827802	0.00610304	1	6.62224e-05	12	-5.05211e-08
2	1	0	1	0	17.9854	0.00254974	0.00317797	0.00685959	1	7.27838e-05	12	2.17996e-08
2	0	0	1	0	18.9854	0.0125499	0.0124997	0.00618648	1	7.95471e-05	12	7.73294e-08
2	0	0	1	0	19.9854	0.0225501	0.019665	0.00624241	1	8.64994e-05	12	1.22757e-07
2	1	0	1	0	20.9854	0.0325503	0.0340614	0.00635969	1	9.36937e-05	12	2.1662e-07
2	1	0	0	0	21.9856	0.0425505	0.0449403	0.00678941	1	0.000101082	12	3.05119e-07
2	1	0	0	0	22.9856	0.0525507	0.0528142	0.00745228	1	0.000108708	12	3.93586e-07
2	1	0	0	0	23.9856	0.0625509	0.060338	0.00743884	1	0.000116496	12	4.48845e-07
2	0	0	0	0	24.9856	0.072551	0.0748224	0.00706795	1	0.000124482	12	5.28842e-07
2	0	0	0	0	25.9856	0.0825512	0.0852537	0.00727597	1	0.000132783	12	6.20303e-07
2	0	0	0	0	26.9856	0.0925514	0.0881761	0.00815895	1	0.000141226	12	7.19424e-07
2	1	0	0	0	27.9856	0.102552	0.0990412	0.00885142	1	0.00014989	12	8.76655e-07
2	1	0	0	0	28.9856	0.112552	0.113437	0.00909717	1	0.000158861	12	1.03195e-06
2	1	0	0	0	29.9856	0.122552	0.122691	0.008715	1	0.000168075	12	1.06926e-06
2	1	0	0	0	30.9856	0.132552	0.12733	0.00859594	1	0.00017765	12	1.09452e-06
2	1	0	0	0	31.9856	0.142552	0.141502	0.00879192	1	0.000187491	12	1.24407e-06
2	1	0	1	0	32.9858	0.152553	0.153263	0.00913119	1	0.000197792	12	1.39947e-06
2	1	0	1	0	33.9858	0.162553	0.162129	0.0101203	1	0.000208607	12	1.64079e-06
2	1	0	1	0	34.9858	0.172553	0.170177	0.0113541	1	0.000219985	12	1.93219e-06
2	0	0	1	0	35.9858	0.182553	0.182518	0.0119829	1	0.000232095	12	2.1871e-06
2	1	0	1	0	36.9858	0.192553	0.192733	0.0125159	1	0.000244886	12	2.41223e-06
2	1	0	1	0	37.9858	0.202553	0.201146	0.0133722	1	0.000258498	12	2.68975e-06
2	1	0	1	0	38.9858	0.212554	0.213341	0.01377	1	0.000272921	12	2.93772e-06
2	1	0	1	0	39.9858	0.222554	0.223659	0.0150256	1	0.000287962	12	3.36061e-06
2	1	0	1	0	40.9858	0.232554	0.230847	0.0159563	1	0.000303836	12	3.68347e-06
2	0	0	1	0	41.9858	0.242554	0.242045	0.0167348	1	0.000320469	12	4.05056e-06
2	0	0	0	0	42.986	0.252554	0.252075	0.0174807	1	0.000338039	12	4.40644e-06
2	0	0	0	0	43.986	0.262555	0.268117	0.0182315	1	0.000356478	12	4.88817e-06
2	1	0	0	0	44.986	0.272555	0.271302	0.0189061	1	0.000375937	12	5.12926e-06
2	1	0	0	0	45.986	0.282555	0.280583	0.0201386	1	0.000396637	12	5.65054e-06
2	1	0	0	0	46.986	0.292555	0.292804	0.0220209	1	0.000418678	12	6.44782e-06
2	0	0	0	0	47.986	0.302555	0.310306	0.0246206	1	0.000442231	12	7.63991e-06
2	0	0	0	0	48.986	0.312555	0.310957	0.0264255	1	0.000467564	12	8.2172e-06
2	1	0	0	0	49.986	0.322556	0.317356	0.0277046	1	0.000494907	12	8.79221e-06
2	1	0	0	0	50.986	0.332556	0.33875	0.0299712	1	0.000524594	12	1.01528e-05
2	1	0	0	0	51.986	0.342556	0.345853	0.0328357	1	0.000556752	12	1.13563e-05
2	1	0	0	0	52.986	0.352556	0.346602	0.0358118	1	0.000591752	12	1.24124e-05
2	1	0	1	0	53.9862	0.362556	0.361965	0.0390849	1	0.000629853	12	1.41473e-05
2	1	0	1	0	54.9862	0.372557	0.370981	0.0426044	1	0.000671262	12	1.58054e-05
2	1	0	1	0	55.9862	0.382557	0.381286	0.0464794	1	0.000716253	12	1.7722e-05
2	1	0	1	0	56.9862	0.392557	0.390839	0.0503659	1	0.000765104	12	1.9685e-05
2	1	0	1	0	57.9862	0.402557	0.403477	0.0544818	1	0.000818165	12	2.19821e-05
2	1	0	1	0	58.9862	0.412557	0.409945	0.0591206	1	0.000875899	12	2.42362e-05
2	1	0	1	0	59.9862	0.422557	0.420293	0.0647075	1	0.000938607	12	2.71961e-05
2	1	0	1	0	60.9862	0.432558	0.435629	0.0707897	1	0.00100704	12	3.0838e-05
2	1	0	1	0	61.9862	0.442558	0.440396	0.0775239	1	0.00108192	12	3.41412e-05
2	1	0	1	0	62.9862	0.452558	0.449408	0.0855438	1	0.00116423	12	3.8444e-05
2	1	0	0	0	63.9864	0.462558	0.465266	0.0938507	1	0.00125469	12	4.36655e-05
2	1	0	0	0	64.9864	0.472558	0.473529	0.102245	1	0.00135348	12	4.84159e-05
2	1	0	0	0	65.9864	0.482559	0.48144	0.11068	1	0.00146074	12	5.32859e-05
2	1	0	0	0	66.9864	0.492559	0.490314	0.118708	1	0.00157631	12	5.82044e-05
2	1	0	0	0	67.9864	0.502559	0.503628	0.127592	1	0.00170038	12	6.42587e-05
2	1	0	0	0	68.9864	0.512559	0.512326	0.135842	1	0.00183289	12	6.95956e-05
2	1	0	0	0	69.9864	0.522559	0.520178	0.145113	1	0.00197415	12	7.54845e-05
2	1	0	0	0	70.9864	0.53256	0.532848	0.153577	1	0.00212441	12	8.18332e-05
2	1	0	0	0	71.9864	0.54256	0.545075	0.163529	1	0.00228397	12	8.91354e-05
2	1	0	0	0	72.9864	0.55256	0.550647	0.173402	1	0.00245332	12	9.5483e-05
2	1	0	0	0	73.9864	0.56256	0.561305	0.185206	1	0.00263328	12	0.000103957
2	1	0	1	0	74.9866	0.57256	0.573267	0.197604	1	0.00282541	12	0.00011328
2	1	0	1	0	75.9866	0.58256	0.582001	0.214664	1	0.00303229	12	0.000124935
2	1	0	1	0	76.9866	0.592561	0.591412	0.237024	1	0.0032585	12	0.000140179
2	1	0	1	0	77.9866	0.602561	0.604319	0.270215	1	0.00351215	12	0.000163296
2	1	0	1	0	78.9866	0.612561	0.612435	0.317036	1	0.00380559	12	0.000194164
2	1	0	1	0	79.9866	0.622561	0.622467	0.384318	1	0.004156	12	0.000239226
2	1	0	1	0	80.9866	0.632561	0.634666	0.476918	1	0.00458634	12	0.000302684
2	1	0	1	0	81.9866	0.642562	0.643403	0.601198	1	0.00512464	12	0.000386813
2	1	0	1	0	82.9866	0.652562	0.652648	0.760552	1	0.00580506	12	0.000496372
2	1	0	1	0	83.9866	0.662562	0.662899	0.961945	1	0.00666523	12	0.000637672
2	1	0	1	0	85.0168	0.672863	0.671317	1.21834	1	0.00778733	11	0.000817893
2	1	0	0	0	86.0168	0.682862	0.686078	1.51237	1	0.00914886	11	0.0010376
2	1	0	0	0	87.0168	0.692863	0.693178	1.85701	1	0.0108305	11	0.00128724
2	1	0	0	0	88.0168	0.702863	0.699418	2.26024	1	0.012889	11	0.00158085
2	1	0	0	0	89.0168	0.712863	0.714008	2.7264	1	0.0153803	11	0.00194667
2	1	0	0	0	90.0168	0.722863	0.725589	3.25009	1	0.0183656	11	0.00235823
2	1	0	0	0	91.0168	0.732863	0.730854	3.84393	1	0.0219109	11	0.00280935
2	1	0	0	0	92.0168	0.742863	0.740837	4.5087	1	0.026087	11	0.00334022
2	1	0	0	0	93.0168	0.752864	0.755086	5.25011	1	0.0309645	11	0.00396429
2	1	0	0	0	94.0168	0.762864	0.763196	6.06243	1	0.0366187	11	0.00462682
2	1	0	0	0	95.0168	0.772864	0.772444	6.96226	1	0.0431285	11	0.00537796
2	1	0	1	0	96.017	0.782864	0.782877	7.94244	1	0.0505828	11	0.00621795
2	1	0	1	0	97.017	0.792864	0.792893	9.00963	1	0.0590582	11	0.00714368
2	1	0	1	0	98.017	0.802864	0.801829	10.1669	1	0.0686443	11	0.00815211
2	1	0	1	0	99.047	0.813165	0.813503	11.4716	1	0.0797883	10	0.00933219
2	1	0	1	0	100.047	0.823165	0.822897	12.7745	1	0.0919172	10	0.0105121
2	1	0	1	0	101.047	0.833165	0.832191	14.2451	1	0.105437	10	0.0118546
2	1	0	1	0	102.047	0.843165	0.843721	15.7407	1	0.120421	10	0.0132807
2	1	0	1	0	103.047	0.853166	0.853756	17.371	1	0.136974	10	0.0148306
2	1	0	1	0	104.047	0.863166	0.861101	19.0813	1	0.155197	10	0.0164309
2	1	0	1	0	105.047	0.873166	0.872917	20.9088	1	0.175196	10	0.0182516
2	1	0	1	0	106.047	0.883165	0.883265	22.8385	1	0.197074	10	0.0201725
2	1	0	0	0	107.047	0.893166	0.8896	24.8538	1	0.220918	10	0.02211
2	1	0	0	0	108.047	0.903166	0.899725	26.9997	1	0.246848	10	0.0242923
2	1	0	0	0	109.047	0.913167	0.912884	29.1788	1	0.274956	10	0.0266369
2	1	0	0	0	110.047	0.923167	0.924146	31.4279	1	0.305276	10	0.029044
2	1	0	0	0	111.047	0.933167	0.931033	33.716	1	0.337853	10	0.0313907
2	1	0	0	0	112.047	0.943167	0.941086	35.9541	1	0.372717	10	0.0338359
2	1	0	0	0	113.047	0.953167	0.956642	38.2507	1	0.409845	10	0.0365922
2	1	0	0	0	114.047	0.963168	0.963699	40.3933	1	0.449188	10	0.038927
2	1	0	0	0	115.047	0.973168	0.971921	42.5806	1	0.490697	10	0.0413849
2	1	0	0	0	116.047	0.983168	0.985933	44.6205	1	0.534336	10	0.0439929
2	1	0	1	0	117.047	0.993168	0.998023	46.6142	1	0.579977	10	0.0465221
2	1	0	1	0	117.888	0.998468	0.994925	47.2834	1	0.619755	10	0.0470435
2	1	0	1	0	118.888	0.988468	0.990959	43.7006	1	0.665205	10	0.0433055
2	1	0	0	0	119.888	0.978468	0.975708	40.4128	1	0.707228	10	0.0394311
2	1	0	0	0	120.888	0.968468	0.968571	37.4662	1	0.746141	10	0.0362886
2	1	0	0	0	121.888	0.958467	0.959867	34.6908	1	0.782198	10	0.0332986
2	1	0	0	0	122.888	0.948467	0.948254	32.0392	1	0.815528	10	0.0303813
2	1	0	0	0	123.888	0.938467	0.936805	29.5693	1	0.846307	10	0.0277006
2	1	0	0	0	124.888	0.928467	0.929233	27.2393	1	0.874708	10	0.0253117
2	1	0	0	0	125.888	0.918467	0.921469	25.0409	1	0.900803	10	0.0230744
2	1	0	0	0	126.888	0.908467	0.909033	22.9261	1	0.924765	10	0.0208406
2	1	0	0	0	127.888	0.898466	0.897265	20.902	1	0.946663	10	0.0187546
2	1	0	0	0	128.888	0.888466	0.88996	19.0108	1	0.966607	10	0.0169188
2	1	0	1	0	129.888	0.878466	0.880051	17.2436	1	0.984714	10	0.0151752
2	1	0	1	0	130.888	0.868466	0.866954	15.5751	1	1.0011	10	0.0135029
2	1	0	1	0	131.888	0.858466	0.856345	14.0294	1	1.01588	10	0.012014
2	1	0	1	0	132.888	0.848465	0.848623	12.5831	1	1.02917	10	0.0106783
2	1	0	1	0	133.888	0.838465	0.838659	11.2575	1	1.04108	10	0.00944123
2	1	0	1	0	134.888	0.828465	0.831561	10.0348	1	1.0517	10	0.00834453
2	1	0	1	0	135.888	0.818465	0.820289	8.92127	1	1.06116	10	0.00731802
2	1	0	1	0	136.888	0.808465	0.806632	7.87436	1	1.06955	10	0.00635171
2	1	0	1	0	137.888	0.798464	0.799669	6.98506	1	1.07698	10	0.00558574
2	1	0	1	0	138.888	0.788464	0.788169	6.13728	1	1.08352	10	0.00483721
2	1	0	1	0	139.888	0.778464	0.77657	5.38343	1	1.08927	10	0.00418061
2	1	0	0	0	140.888	0.768464	0.768435	4.68507	1	1.09431	10	0.00360017
2	1	0	0	0	141.918	0.758164	0.756856	4.0699	1	1.09881	11	0.00308033
2	1	0	0	0	142.918	0.748164	0.748493	3.52359	1	1.1026	11	0.00263738
2	1	0	0	0	143.918	0.738163	0.739308	3.04086	1	1.10588	11	0.00224814
2	1	0	0	0	144.918	0.728163	0.72427	2.60309	1	1.10869	11	0.00188534
2	1	0	0	0	145.918	0.718163	0.718163	2.22241	1	1.1111	11	0.00159605
2	1	0	0	0	146.918	0.708163	0.711581	1.88041	1	1.11314	11	0.00133806
2	1	0	0	0	147.918	0.698163	0.698601	1.58426	1	1.11487	11	0.00110677
2	1	0	0	0	148.918	0.688162	0.685306	1.31731	1	1.11631	11	0.000902759
2	1	0	0	0	149.918	0.678162	0.677939	1.08588	1	1.11751	11	0.000736162
2	1	0	1	0	150.919	0.668162	0.670342	0.887613	1	1.1185	11	0.000595004
2	1	0	1	0	151.919	0.658162	0.658413	0.717521	1	1.11929	11	0.000472425
2	1	0	1	0	152.919	0.648162	0.646353	0.567299	1	1.11993	11	0.000366675
2	1	0	1	0	153.919	0.638162	0.639418	0.442612	1	1.12043	11	0.000283014
2	1	0	1	0	154.949	0.627861	0.627952	0.338339	1	1.12083	12	0.000212461
2	1	0	1	0	155.949	0.617861	0.615904	0.25507	1	1.12113	12	0.000157099
2	1	0	1	0	156.949	0.607861	0.607597	0.188515	1	1.12135	12	0.000114541
2	1	0	1	0	157.949	0.597861	0.598851	0.136274	1	1.12151	12	8.16077e-05
2	1	0	1	0	158.949	0.587861	0.587163	0.0962732	1	1.12162	12	5.6528e-05
2	1	0	1	0	159.949	0.57786	0.577872	0.0655904	1	1.1217	12	3.79029e-05
2	1	0	1	0	160.949	0.56786	0.568474	0.0430486	1	1.12175	12	2.4472e-05
2	1	0	0	0	161.949	0.55786	0.556684	0.0267527	1	1.12179	12	1.48928e-05
2	1	0	0	0	162.949	0.54786	0.548771	0.015018	1	1.12181	12	8.24143e-06
2	1	0	0	0	163.949	0.53786	0.536103	0.00625201	1	1.12181	12	3.35172e-06
2	1	0	0	0	164.949	0.527859	0.525488	6.68795e-05	1	1.12182	12	3.51444e-08
2	0	0	0	0	165.949	0.517859	0.518021	-0.00393654	1	1.12181	12	-2.03921e-06
2	0	0	0	0	166.949	0.507859	0.508892	-0.00791369	1	1.12181	12	-4.02721e-06
2	0	0	0	0	167.949	0.497859	0.497149	-0.010023	1	1.1218	12	-4.98294e-06
2	0	0	0	0	168.949	0.487859	0.484771	-0.0121762	1	1.12178	12	-5.90265e-06
2	0	0	0	0	169.949	0.477859	0.478959	-0.0137675	1	1.12177	12	-6.59407e-06
2	0	0	0	0	170.949	0.467858	0.469583	-0.0148994	1	1.12176	12	-6.99649e-06
2	0	0	1	0	171.949	0.457858	0.454731	-0.0162122	1	1.12174	12	-7.3722e-06
2	0	0	1	0	172.949	0.447858	0.449227	-0.0166646	1	1.12172	12	-7.4862e-06
2	0	0	1	0	173.949	0.437858	0.433363	-0.017901	1	1.1217	12	-7.75762e-06
2	0	0	1	0	174.949	0.427858	0.428028	-0.0182045	1	1.12168	12	-7.79205e-06
2	0	0	1	0	175.949	0.417857	0.41981	-0.0188863	1	1.12167	12	-7.92866e-06
2	0	0	1	0	176.949	0.407857	0.409468	-0.0190101	1	1.12165	12	-7.78403e-06
2	1	0	1	0	177.949	0.397857	0.397226	-0.0197153	1	1.12163	12	-7.83143e-06
2	1	0	1	0	178.949	0.387857	0.386606	-0.0199977	1	1.1216	12	-7.73122e-06
2	1	0	1	0	179.949	0.377857	0.376817	-0.0202872	1	1.12158	12	-7.64455e-06
2	1	0	1	0	180.949	0.367857	0.365177	-0.0203595	1	1.12156	12	-7.43482e-06
2	1	0	1	0	181.949	0.357856	0.358636	-0.0212326	1	1.12154	12	-7.61476e-06
2	0	0	0	0	182.949	0.347856	0.347713	-0.02121	1	1.12152	12	-7.37499e-06
2	0	0	0	0	183.949	0.337856	0.336912	-0.0207779	1	1.1215	12	-7.00033e-06
2	0	0	0	0	184.949	0.327856	0.327409	-0.020901	1	1.12148	12	-6.84318e-06
2	0	0	0	0	185.949	0.317856	0.317583	-0.0206282	1	1.12146	12	-6.55116e-06
2	1	0	0	0	186.949	0.307855	0.307242	-0.0206196	1	1.12144	12	-6.3352e-06
2	1	0	0	0	187.949	0.297855	0.297888	-0.0199277	1	1.12141	12	-5.93623e-06
2	1	0	0	0	188.949	0.287855	0.28942	-0.0196841	1	1.12139	12	-5.69696e-06
2	1	0	0	0	189.949	0.277855	0.277671	-0.0194333	1	1.12137	12	-5.39605e-06
2	1	0	0	0	190.949	0.267855	0.269511	-0.018749	1	1.12135	12	-5.05307e-06
2	1	0	0	0	191.949	0.257854	0.257294	-0.0182856	1	1.12134	12	-4.70479e-06
2	1	0	1	0	192.949	0.247854	0.247699	-0.0179377	1	1.12132	12	-4.44315e-06
2	1	0	1	0	193.949	0.237854	0.237427	-0.0172857	1	1.1213	12	-4.10411e-06
2	1	0	1	0	194.949	0.227854	0.22862	-0.0166786	1	1.12128	12	-3.81306e-06
2	1	0	1	0	195.949	0.217854	0.21704	-0.0163347	1	1.12126	12	-3.54529e-06
2	1	0	1	0	196.949	0.207854	0.207487	-0.0159188	1	1.12125	12	-3.30295e-06
2	1	0	1	0	197.949	0.197853	0.198637	-0.0150757	1	1.12123	12	-2.99459e-06
2	1	0	1	0	198.949	0.187853	0.189013	-0.0146826	1	1.12122	12	-2.77521e-06
2	1	0	1	0	199.949	0.177853	0.178134	-0.0144516	1	1.1212	12	-2.57432e-06
2	1	0	1	0	200.949	0.167853	0.170511	-0.0138345	1	1.12119	12	-2.35893e-06
2	1	0	1	0	201.949	0.157853	0.159306	-0.0132372	1	1.12117	12	-2.10877e-06
2	1	0	1	0	202.949	0.147852	0.149325	-0.0132123	1	1.12116	12	-1.97292e-06
2	0	0	0	0	203.95	0.137852	0.136033	-0.0129999	1	1.12114	12	-1.76842e-06
2	0	0	0	0	204.95	0.127852	0.127493	-0.0125724	1	1.12113	12	-1.6029e-06
2	0	0	0	0	205.95	0.117852	0.117402	-0.0117701	1	1.12112	12	-1.38183e-06
2	0	0	0	0	206.95	0.107852	0.105811	-0.0119559	1	1.12111	12	-1.26507e-06
2	0	0	0	0	207.95	0.0978515	0.0981364	-0.0113141	1	1.1211	12	-1.11033e-06
2	0	0	0	0	208.95	0.0878513	0.0860132	-0.0107196	1	1.12108	12	-9.22024e-07
2	0	0	0	0	209.95	0.0778511	0.0756954	-0.0103257	1	1.12107	12	-7.81612e-07
2	0	0	0	0	210.95	0.0678509	0.068878	-0.0103205	1	1.12106	12	-7.10853e-07
2	0	0	0	0	211.95	0.0578508	0.0615027	-0.0100466	1	1.12105	12	-6.17891e-07
2	0	0	0	0	212.95	0.0478506	0.0465124	-0.00961171	1	1.12104	12	-4.47063e-07
2	1	0	1	0	213.95	0.0378504	0.0387796	-0.0095285	1	1.12103	12	-3.69511e-07
2	1	0	1	0	214.95	0.0278502	0.0258937	-0.0094215	1	1.12102	12	-2.43957e-07
2	1	0	1	0	215.95	0.01785	0.0163248	-0.00922504	1	1.12101	12	-1.50597e-07
2	1	0	1	0	216.95	0.00784983	0.00764262	-0.00904998	1	1.121	12	-6.91656e-08
2	1	0	1	1	217.79	0.0005497	0.000234417	-0.00850624	2	1.12099	12	-1.99401e-09
2	1	0	1	1	218.79	0.0105499	0.0110603	-0.00720484	2	1.12099	12	-7.96879e-08
2	1	0	1	1	219.79	0.0205501	0.019821	-0.00628546	2	1.12098	12	-1.24584e-07
2	1	0	1	1	220.79	0.0305503	0.0302936	-0.00528318	2	1.12097	12	-1.60047e-07
2	1	0	0	1	221.79	0.0405504	0.0379076	-0.00468456	2	1.12097	12	-1.7758e-07
2	1	0	0	1	222.79	0.0505506	0.0510534	-0.00440591	2	1.12096	12	-2.24937e-07
2	1	0	0	1	223.79	0.0605508	0.0609989	-0.00371932	2	1.12096	12	-2.26874e-07
2	0	0	0	1	224.79	0.070551	0.0691687	-0.00323997	2	1.12096	12	-2.24105e-07
2	0	0	0	1	225.79	0.0805512	0.0799617	-0.00281021	2	1.12095	12	-2.24709e-07
2	0	0	0	1	226.79	0.0905514	0.0909096	-0.00271851	2	1.12095	12	-2.47139e-07
2	0	0	0	1	227.79	0.100552	0.098706	-0.00254267	2	1.12095	12	-2.50977e-07
2	0	0	0	1	228.79	0.110552	0.104902	-0.00203585	2	1.12095	12	-2.13564e-07
2	1	0	0	1	229.79	0.120552	0.117415	-0.00170363	2	1.12095	12	-2.00033e-07
2	1	0	0	1	230.79	0.130552	0.129277	-0.00105052	2	1.12095	12	-1.35808e-07
2	1	0	0	1	231.79	0.140552	0.138021	-0.000616736	2	1.12094	12	-8.51227e-08
2	1	0	1	1	232.791	0.150552	0.150612	-0.000286285	2	1.12094	12	-4.3118e-08
2	1	0	1	1	233.791	0.160553	0.164532	0.000236518	2	1.12094	12	3.89149e-08
2	1	0	1	1	234.791	0.170553	0.172014	0.000710018	2	1.12094	12	1.22133e-07
2	0	0	1	1	235.791	0.180553	0.177017	0.00087419	2	1.12095	12	1.54747e-07
2	0	0	1	1	236.791	0.190553	0.193819	0.000982077	2	1.12095	12	1.90345e-07
2	0	0	1	1	237.791	0.200553	0.20569	0.00149806	2	1.12095	12	3.08136e-07
2	0	0	1	1	238.791	0.210554	0.213948	0.00193805	2	1.12095	12	4.14641e-07
2	0	0	1	1	239.791	0.220554	0.219724	0.00195294	2	1.12095	12	4.29107e-07
2	0	0	1	1	240.791	0.230554	0.232747	0.00245858	2	1.12096	12	5.72228e-07
2	0	0	1	1	241.791	0.240554	0.238823	0.00302244	2	1.12096	12	7.21829e-07
2	0	0	0	1	242.791	0.250554	0.255764	0.00382518	2	1.12096	12	9.78345e-07
2	1	0	0	1	243.791	0.260555	0.26183	0.00417304	2	1.12097	12	1.09263e-06
2	1	0	0	1	244.791	0.270555	0.269658	0.00513086	2	1.12097	12	1.38358e-06
2	1	0	0	1	245.791	0.280555	0.283492	0.005874	2	1.12098	12	1.66523e-06
2	1	0	0	1	246.791	0.290555	0.294757	0.00710793	2	1.12099	12	2.09511e-06
2	1	0	0	1	247.791	0.300555	0.298399	0.0079431	2	1.121	12	2.37021e-06
2	1	0	0	1	248.791	0.310555	0.305697	0.00933233	2	1.121	12	2.85286e-06
2	1	0	0	1	249.791	0.320556	0.32318	0.0106692	2	1.12102	12	3.44807e-06
2	1	0	0	1	250.791	0.330556	0.331932	0.0118221	2	1.12103	12	3.92413e-06
2	0	0	0	1	251.791	0.340556	0.337253	0.0130734	2	1.12104	12	4.40904e-06
2	0	0	0	1	252.791	0.350556	0.351784	0.0141296	2	1.12105	12	4.97055e-06
2	0	0	1	1	253.791	0.360556	0.356949	0.016007	2	1.12107	12	5.71368e-06
2	0	0	1	1	254.791	0.370557	0.372704	0.0176914	2	1.12109	12	6.59366e-06
2	1	0	1	1	255.791	0.380557	0.382017	0.0194545	2	1.1211	12	7.43194e-06
2	1	0	1	1	256.791	0.390557	0.38674	0.0212103	2	1.12112	12	8.20287e-06
2	1	0	1	1	257.791	0.400557	0.397597	0.0236557	2	1.12115	12	9.40542e-06
2	1	0	1	1	258.791	0.410557	0.415484	0.0261589	2	1.12117	12	1.08686e-05
2	1	0	1	1	259.791	0.420557	0.422802	0.0287407	2	1.1212	12	1.21516e-05
2	1	0	1	1	260.791	0.430558	0.425633	0.0306925	2	1.12123	12	1.30638e-05
2	1	0	1	1	261.791	0.440558	0.441974	0.0334382	2	1.12126	12	1.47788e-05
2	1	0	1	1	262.791	0.450558	0.455233	0.0358178	2	1.1213	12	1.63055e-05
2	1	0	1	1	263.791	0.460559	0.458179	0.038232	2	1.12134	12	1.75171e-05
2	1	0	0	1	264.791	0.470558	0.46565	0.0405516	2	1.12138	12	1.88829e-05
2	1	0	0	1	265.791	0.480559	0.480107	0.0432662	2	1.12142	12	2.07724e-05
2	1	0	0	1	266.791	0.490559	0.491093	0.0458673	2	1.12146	12	2.25251e-05
2	1	0	0	1	267.791	0.500559	0.496516	0.0485426	2	1.12151	12	2.41022e-05
2	1	0	0	1	268.791	0.510559	0.509368	0.0511278	2	1.12156	12	2.60429e-05
2	1	0	0	1	269.791	0.520559	0.523181	0.0538661	2	1.12162	12	2.81817e-05
2	1	0	0	1	270.791	0.53056	0.528867	0.0571092	2	1.12167	12	3.02032e-05
2	1	0	0	1	271.791	0.54056	0.53949	0.0605223	2	1.12173	12	3.26512e-05
2	1	0	0	1	272.791	0.55056	0.553302	0.0637474	2	1.12179	12	3.52716e-05
2	1	0	0	1	273.791	0.56056	0.561056	0.0681745	2	1.12186	12	3.82497e-05
2	1	0	1	1	274.791	0.57056	0.569773	0.0742523	2	1.12193	12	4.2307e-05
2	1	0	1	1	275.791	0.58056	0.581609	0.0829669	2	1.12201	12	4.82543e-05
2	1	0	1	1	276.791	0.590561	0.591447	0.0955184	2	1.1221	12	5.64941e-05
2	1	0	1	1	277.791	0.600561	0.60048	0.115087	2	1.12221	12	6.91074e-05
2	1	0	1	1	278.791	0.610561	0.609745	0.143516	2	1.12234	12	8.75079e-05
2	1	0	1	1	279.791	0.620561	0.621593	0.183755	2	1.1225	12	0.000114221
2	1	0	1	1	280.791	0.630561	0.631448	0.239283	2	1.12271	12	0.000151095
2	1	0	1	1	281.791	0.640562	0.642139	0.312817	2	1.12299	12	0.000200872
2	1	0	1	1	282.791	0.650562	0.649931	0.408848	2	1.12335	12	0.000265723
2	1	0	1	1	283.791	0.660562	0.659517	0.532321	2	1.12382	12	0.000351075
2	1	0	1	1	284.791	0.670562	0.670926	0.686676	2	1.12443	12	0.000460709
2	1	0	0	1	285.792	0.680562	0.682364	0.875797	2	1.12521	12	0.000597612
2	1	0	0	1	286.822	0.690863	0.690104	1.1138	2	1.12623	11	0.000768637
2	1	0	0	1	287.822	0.700863	0.700399	1.39332	2	1.12749	11	0.000975876
2	1	0	0	1	288.822	0.710863	0.713777	1.71762	2	1.12904	11	0.001226
2	1	0	0	1	289.822	0.720863	0.72134	2.09225	2	1.13094	11	0.00150922
2	1	0	0	1	290.822	0.730863	0.728058	2.52925	2	1.13325	11	0.00184144
2	1	0	0	1	291.822	0.740863	0.744324	3.03216	2	1.13603	11	0.00225691
2	1	0	0	1	292.822	0.750864	0.752031	3.59901	2	1.13934	11	0.00270657
2	1	0	0	1	293.822	0.760864	0.758064	4.24262	2	1.14326	11	0.00321618
2	1	0	0	1	294.822	0.770864	0.768883	4.95637	2	1.14786	11	0.00381087
2	1	0	1	1	295.822	0.780864	0.784537	5.75392	2	1.15321	11	0.00451416
2	1	0	1	1	296.822	0.790864	0.790449	6.62739	2	1.1594	11	0.00523861
2	1	0	1	1	297.822	0.800865	0.797975	7.58916	2	1.16651	11	0.00605596
2	1	0	1	1	298.822	0.810865	0.812081	8.62331	2	1.17461	11	0.00700283
2	1	0	1	1	299.822	0.820865	0.821293	9.74595	2	1.1838	11	0.00800428
2	1	0	1	1	300.852	0.831165	0.828879	10.9971	2	1.19448	10	0.00911525
2	1	0	1	1	301.852	0.841165	0.839976	12.2676	2	1.20611	10	0.0103045
2	1	0	1	1	302.852	0.851166	0.850696	13.6039	2	1.21905	10	0.0115728
2	1	0	1	1	303.852	0.861166	0.860599	15.0203	2	1.23337	10	0.0129265
2	1	0	1	1	304.852	0.871166	0.870133	16.5094	2	1.24913	10	0.0143654
2	1	0	1	1	305.852	0.881166	0.88137	18.0267	2	1.2664	10	0.0158882
2	1	0	0	1	306.852	0.891166	0.891216	19.645	2	1.28523	10	0.017508
2	1	0	0	1	307.852	0.901166	0.899768	21.2616	2	1.30569	10	0.0191305
2	1	0	0	1	308.852	0.911167	0.909791	23.0203	2	1.32785	10	0.0209437
2	1	0	0	1	309.852	0.921167	0.921048	24.7098	2	1.35172	10	0.0227589
2	1	0	0	1	310.852	0.931167	0.933106	26.5584	2	1.37736	10	0.0247818
2	1	0	0	1	311.852	0.941167	0.941732	28.3422	2	1.40483	10	0.0266908
2	1	0	0	1	312.852	0.951167	0.94982	30.2378	2	1.43414	10	0.0287205
2	1	0	0	1	313.852	0.961168	0.961838	32.0625	2	1.46529	10	0.0308389
2	1	0	0	1	314.852	0.971168	0.971261	34.0121	2	1.49834	10	0.0330346
2	1	0	0	1	315.852	0.981168	0.981458	35.9014	2	1.53331	10	0.0352357
2	1	0	1	1	316.852	0.991168	0.992376	37.9489	2	1.57026	10	0.0376596
2	1	0	1	1	317.738	1.00002	0.997935	39.4776	2	1.60466	10	0.0393961
2	1	0	1	1	318.693	0.990468	0.991527	37.1232	2	1.64131	10	0.0368087
2	1	0	0	1	319.693	0.980468	0.980168	34.635	2	1.67717	10	0.0339481
2	1	0	0	1	320.693	0.970468	0.97304	32.4169	2	1.71067	10	0.0315429
2	1	0	0	1	321.693	0.960468	0.958833	30.1444	2	1.7419	10	0.0289034
2	1	0	0	1	322.693	0.950467	0.951132	27.9087	2	1.77091	10	0.0265448
2	1	0	0	1	323.693	0.940467	0.941157	25.8446	2	1.79777	10	0.0243238
2	1	0	0	1	324.693	0.930467	0.927139	23.8622	2	1.82261	10	0.0221236
2	1	0	0	1	325.693	0.920467	0.919507	21.9516	2	1.8455	10	0.0201846
2	1	0	0	1	326.693	0.910467	0.912241	20.1474	2	1.86654	10	0.0183793
2	1	0	0	1	327.693	0.900466	0.900104	18.3915	2	1.8858	10	0.0165543
2	1	0	0	1	328.693	0.890466	0.8875	16.7537	2	1.90336	10	0.0148689
2	1	0	1	1	329.693	0.880466	0.878795	15.1878	2	1.91932	10	0.0133469
2	1	0	1	1	330.693	0.870466	0.869837	13.7484	2	1.93377	10	0.0119589
2	1	0	1	1	331.693	0.860466	0.858874	12.3732	2	1.94682	10	0.010627
2	1	0	1	1	332.693	0.850465	0.848473	11.1014	2	1.95854	10	0.00941926
2	1	0	1	1	333.693	0.840465	0.837472	9.93894	2	1.96905	10	0.00832358
2	1	0	1	1	334.693	0.830465	0.830755	8.85382	2	1.97843	10	0.00735536
2	1	0	1	1	335.693	0.820465	0.821743	7.84806	2	1.98677	10	0.00644909
2	1	0	1	1	336.693	0.810465	0.808193	6.93811	2	1.99415	10	0.00560733
2	1	0	1	1	337.693	0.800464	0.800392	6.12062	2	2.00067	10	0.00489889
2	1	0	1	1	338.693	0.790464	0.790873	5.37536	2	2.00641	10	0.00425123
2	1	0	1	1	339.693	0.780464	0.780408	4.68847	2	2.01143	10	0.00365892
2	1	0	0	1	340.723	0.770164	0.768915	4.04456	2	2.01592	11	0.00310992
2	1	0	0	1	341.723	0.760164	0.758968	3.50628	2	2.01968	11	0.00266116
2	1	0	0	1	342.723	0.750164	0.749103	3.01493	2	2.02294	11	0.0022585
2	1	0	0	1	343.723	0.740163	0.741092	2.5842	2	2.02573	11	0.00191513
2	1	0	0	1	344.723	0.730163	0.730815	2.1942	2	2.02812	11	0.00160355
2	1	0	0	1	345.723	0.720163	0.717615	1.85972	2	2.03014	11	0.00133456
2	1	0	0	1	346.723	0.710163	0.711556	1.56109	2	2.03184	11	0.0011108
2	1	0	0	1	347.723	0.700163	0.701829	1.30151	2	2.03327	11	0.000913435
2	1	0	0	1	348.723	0.690162	0.687121	1.07447	2	2.03445	11	0.00073829
2	1	0	0	1	349.723	0.680162	0.678897	0.877525	2	2.03542	11	0.000595748
2	1	0	1	1	350.723	0.670162	0.673239	0.711494	2	2.03622	11	0.000479005
2	1	0	1	1	351.723	0.660162	0.658472	0.570712	2	2.03685	11	0.000375798
2	1	0	1	1	352.738	0.650012	0.648437	0.441742	2	2.03737	11	0.000286442
2	1	0	1	1	353.753	0.639862	0.643195	0.347054	2	2.03777	12	0.000223224
2	1	0	1	1	354.753	0.629861	0.630613	0.267197	2	2.03807	12	0.000168498
2	1	0	1	1	355.753	0.619861	0.618923	0.201973	2	2.0383	12	0.000125006
2	1	0	1	1	356.753	0.609861	0.613551	0.150259	2	2.03848	12	9.21918e-05
2	1	0	1	1	357.753	0.599861	0.605904	0.109901	2	2.03861	12	6.65893e-05
2	1	0	1	1	358.753	0.589861	0.589613	0.0788865	2	2.0387	12	4.65125e-05
2	1	0	1	1	359.753	0.57986	0.581696	0.0549297	2	2.03876	12	3.19524e-05
2	0	0	1	1	360.753	0.56986	0.573192	0.0369334	2	2.03881	12	2.11699e-05
2	0	0	0	1	361.754	0.55986	0.561333	0.0240544	2	2.03884	12	1.35025e-05
2	1	0	0	1	362.754	0.54986	0.543598	0.0139345	2	2.03885	12	7.57479e-06
2	1	0	0	1	363.754	0.53986	0.539896	0.00671416	2	2.03886	12	3.62495e-06
2	1	0	0	1	364.754	0.529859	0.533835	0.00151429	2	2.03887	12	8.08382e-07
2	1	0	0	1	365.754	0.519859	0.51642	-0.00226173	2	2.03886	12	-1.168e-06
2	1	0	0	1	366.754	0.509859	0.50865	-0.00558046	2	2.03886	12	-2.8385e-06
2	1	0	0	1	367.754	0.499859	0.502883	-0.0079154	2	2.03885	12	-3.98052e-06
2	1	0	0	1	368.754	0.489859	0.490347	-0.00949567	2	2.03884	12	-4.65617e-06
2	1	0	0	1	369.754	0.479859	0.473141	-0.0110347	2	2.03883	12	-5.22099e-06
2	0	0	0	1	370.754	0.469858	0.469986	-0.0122694	2	2.03882	12	-5.76646e-06
2	0	0	1	1	371.754	0.459858	0.456742	-0.0127291	2	2.03881	12	-5.81391e-06
2	0	0	1	1	372.754	0.449858	0.452324	-0.0135928	2	2.03879	12	-6.14835e-06
2	0	0	1	1	373.754	0.439858	0.441421	-0.0144855	2	2.03878	12	-6.39423e-06
2	0	0	1	1	374.754	0.429858	0.428073	-0.0150267	2	2.03876	12	-6.43254e-06
2	0	0	1	1	375.754	0.419857	0.421703	-0.0155214	2	2.03875	12	-6.54541e-06
2	0	0	1	1	376.754	0.409857	0.411482	-0.0158476	2	2.03873	12	-6.52101e-06
2	0	0	1	1	377.754	0.399857	0.399337	-0.0166016	2	2.03871	12	-6.62964e-06
2	0	0	1	1	378.754	0.389857	0.389452	-0.0170787	2	2.0387	12	-6.65133e-06
2	0	0	1	1	379.754	0.379857	0.380495	-0.017294	2	2.03868	12	-6.58028e-06
2	0	0	1	1	380.754	0.369857	0.368624	-0.0176717	2	2.03866	12	-6.51422e-06
2	0	0	1	1	381.754	0.359856	0.359729	-0.0177547	2	2.03864	12	-6.38686e-06
2	0	0	0	1	382.754	0.349856	0.345735	-0.018215	2	2.03862	12	-6.29758e-06
2	0	0	0	1	383.754	0.339856	0.337369	-0.0179425	2	2.03861	12	-6.05326e-06
2	0	0	0	1	384.754	0.329856	0.327932	-0.0182156	2	2.03859	12	-5.97346e-06
2	0	0	0	1	385.754	0.319856	0.325075	-0.0181387	2	2.03857	12	-5.89644e-06
2	0	0	0	1	386.754	0.309855	0.309945	-0.0183078	2	2.03855	12	-5.67442e-06
2	0	0	0	1	387.754	0.299855	0.298372	-0.0181453	2	2.03853	12	-5.41406e-06
2	0	0	0	1	388.754	0.289855	0.290673	-0.0176065	2	2.03851	12	-5.11774e-06
2	0	0	0	1	389.754	0.279855	0.279238	-0.017216	2	2.03849	12	-4.80736e-06
2	0	0	0	1	390.754	0.269855	0.26529	-0.0171524	2	2.03848	12	-4.55035e-06
2	0	0	0	1	391.754	0.259854	0.258907	-0.0168008	2	2.03846	12	-4.34986e-06
2	0	0	1	1	392.754	0.249855	0.250857	-0.0162832	2	2.03844	12	-4.08476e-06
2	0	0	1	1	393.754	0.239854	0.239702	-0.0156458	2	2.03843	12	-3.75031e-06
2	0	0	1	1	394.754	0.229854	0.229274	-0.0156632	2	2.03841	12	-3.59117e-06
2	0	0	1	1	395.754	0.219854	0.223726	-0.015398	2	2.03839	12	-3.44494e-06
2	0	0	1	1	396.754	0.209854	0.210582	-0.0148655	2	2.03838	12	-3.13041e-06
2	0	0	1	1	397.754	0.199853	0.200724	-0.0145742	2	2.03836	12	-2.92538e-06
2	1	0	1	1	398.754	0.189853	0.189677	-0.0146369	2	2.03835	12	-2.77629e-06
2	1	0	1	1	399.754	0.179853	0.17927	-0.0139202	2	2.03833	12	-2.49547e-06
2	1	0	1	1	400.754	0.169853	0.169501	-0.0136216	2	2.03832	12	-2.30888e-06
2	1	0	1	1	401.754	0.159853	0.15943	-0.0132131	2	2.03831	12	-2.10657e-06
2	1	0	1	1	402.754	0.149852	0.150723	-0.0130475	2	2.03829	12	-1.96655e-06
2	1	0	0	1	403.754	0.139852	0.138991	-0.012421	2	2.03828	12	-1.7264e-06
2	1	0	0	1	404.754	0.129852	0.129827	-0.0118082	2	2.03827	12	-1.53302e-06
2	0	0	0	1	405.754	0.119852	0.118624	-0.0112926	2	2.03826	12	-1.33957e-06
2	0	0	0	1	406.754	0.109852	0.10839	-0.0106258	2	2.03824	12	-1.15173e-06
2	0	0	0	1	407.754	0.0998515	0.101296	-0.0108548	2	2.03823	12	-1.09955e-06
2	1	0	0	1	408.754	0.0898514	0.0885696	-0.0107876	2	2.03822	12	-9.55452e-07
2	0	0	0	1	409.754	0.0798512	0.0780418	-0.0103418	2	2.03821	12	-8.07095e-07
2	1	0	0	1	410.754	0.069851	0.0701467	-0.00998992	2	2.0382	12	-7.0076e-07
2	1	0	0	1	411.754	0.0598508	0.0618687	-0.0102754	2	2.03819	12	-6.35725e-07
2	0	0	0	1	412.754	0.0498506	0.0472029	-0.0100927	2	2.03818	12	-4.76406e-07
2	0	0	1	1	413.754	0.0398495	0.0377427	-0.00968264	2	2.03817	12	-3.65449e-07
2	0	0	1	1	414.755	0.0298502	0.0316906	-0.00927304	2	2.03816	12	-2.93869e-07
2	0	0	1	1	415.755	0.0198501	0.0193839	-0.00936869	2	2.03815	12	-1.81602e-07
2	1	0	1	1	416.755	0.00984987	0.00563782	-0.00910788	2	2.03814	12	-5.13486e-08
2	1	0	1	1	417.72	0.000199694	-0.00266405	-0.00915131	2	2.03813	12	2.43796e-08
2	1	0	1	0	418.595	0.00854985	0.00768717	-0.00740708	3	2.03812	12	-5.69395e-08
2	1	0	1	0	419.595	0.01855	0.0202972	-0.00674678	3	2.03812	12	-1.36941e-07
2	1	0	1	0	420.595	0.0285502	0.0270626	-0.00619971	3	2.03811	12	-1.67781e-07
2	0	0	1	0	421.595	0.0385504	0.0365053	-0.00527418	3	2.03811	12	-1.92536e-07
2	0	0	0	0	422.595	0.0485506	0.0496521	-0.00457414	3	2.0381	12	-2.27116e-07
2	0	0	0	0	423.595	0.0585508	0.0566986	-0.0040336	3	2.0381	12	-2.28699e-07
2	0	0	0	0	424.595	0.068551	0.0681355	-0.00343468	3	2.03809	12	-2.34024e-07
2	1	0	0	0	425.595	0.0785511	0.0776143	-0.00315129	3	2.03809	12	-2.44585e-07
2	1	0	0	0	426.595	0.0885513	0.0882758	-0.00333392	3	2.03809	12	-2.94305e-07
2	0	0	0	0	427.595	0.0985515	0.099631	-0.00290304	3	2.03809	12	-2.89233e-07
2	0	0	0	0	428.595	0.108552	0.109258	-0.00225478	3	2.03808	12	-2.46353e-07
2	0	0	0	0	429.595	0.118552	0.116354	-0.00172666	3	2.03808	12	-2.00903e-07
2	1	0	0	0	430.595	0.128552	0.127767	-0.00124809	3	2.03808	12	-1.59465e-07
2	1	0	0	0	431.595	0.138552	0.137871	-0.00109564	3	2.03808	12	-1.51057e-07
2	1	0	1	0	432.595	0.148552	0.149634	-0.00050225	3	2.03808	12	-7.51538e-08
2	1	0	1	0	433.595	0.158553	0.157925	-0.000456512	3	2.03808	12	-7.20946e-08
2	0	0	1	0	434.595	0.168553	0.169803	-0.000214341	3	2.03808	12	-3.63958e-08
2	0	0	1	0	435.595	0.178553	0.179328	0.000223673	3	2.03808	12	4.01107e-08
2	0	0	1	0	436.595	0.188553	0.188329	0.000673986	3	2.03808	12	1.26931e-07
2	0	0	1	0	437.595	0.198553	0.193189	0.000986643	3	2.03808	12	1.90609e-07
2	1	0	1	0	438.595	0.208554	0.210025	0.00157906	3	2.03808	12	3.31643e-07
2	1	0	1	0	439.595	0.218554	0.21849	0.0022931	3	2.03808	12	5.01019e-07
2	1	0	1	0	440.595	0.228554	0.225758	0.00203755	3	2.03809	12	4.59994e-07
2	0	0	1	0	441.595	0.238554	0.236499	0.00247356	3	2.03809	12	5.84995e-07
2	0	0	1	0	442.595	0.248554	0.249812	0.0032458	3	2.03809	12	8.10838e-07
2	0	0	0	0	443.596	0.258554	0.25495	0.00405383	3	2.0381	12	1.03352e-06
2	1	0	0	0	444.596	0.268555	0.265603	0.00471905	3	2.0381	12	1.25339e-06
2	1	0	0	0	445.596	0.278555	0.281091	0.00568785	3	2.03811	12	1.5988e-06
2	1	0	0	0	446.596	0.288555	0.287617	0.00636265	3	2.03811	12	1.83001e-06
2	0	0	0	0	447.596	0.298555	0.292796	0.00699483	3	2.03812	12	2.04806e-06
2	0	0	0	0	448.596	0.308555	0.310413	0.00746256	3	2.03813	12	2.31647e-06
2	0	0	0	0	449.596	0.318556	0.320074	0.00854618	3	2.03813	12	2.73541e-06
2	1	0	0	0	450.596	0.328556	0.321826	0.00949094	3	2.03814	12	3.05443e-06
2	1	0	0	0	451.596	0.338556	0.337723	0.0105641	3	2.03815	12	3.56776e-06
2	1	0	0	0	452.596	0.348556	0.352511	0.011676	3	2.03817	12	4.11592e-06
2	1	0	1	0	453.596	0.358556	0.35793	0.0128754	3	2.03818	12	4.60848e-06
2	1	0	1	0	454.596	0.368557	0.365075	0.0143115	3	2.03819	12	5.22475e-06
2	1	0	1	0	455.596	0.378557	0.380879	0.0160087	3	2.03821	12	6.09737e-06
2	0	0	1	0	456.596	0.388557	0.391036	0.0178331	3	2.03822	12	6.9734e-06
2	0	0	1	0	457.596	0.398557	0.393675	0.0194914	3	2.03824	12	7.67329e-06
2	0	0	1	0	458.596	0.408557	0.406693	0.0213657	3	2.03826	12	8.6893e-06
2	0	0	1	0	459.596	0.418557	0.421725	0.0234986	3	2.03829	12	9.90996e-06
2	0	0	1	0	460.596	0.428558	0.427025	0.0255111	3	2.03831	12	1.08939e-05
2	1	0	1	0	461.596	0.438558	0.436936	0.0273455	3	2.03834	12	1.19482e-05
2	1	0	1	0	462.596	0.448558	0.449204	0.0292203	3	2.03837	12	1.31259e-05
2	1	0	1	0	463.596	0.458558	0.459859	0.0318131	3	2.0384	12	1.46295e-05
2	1	0	0	0	464.596	0.468558	0.466957	0.0339636	3	2.03843	12	1.58595e-05
2	1	0	0	0	465.596	0.478559	0.477685	0.0360925	3	2.03847	12	1.72408e-05
2	1	0	0	0	466.596	0.488559	0.490634	0.0383172	3	2.0385	12	1.87997e-05
2	1	0	0	0	467.596	0.498559	0.496792	0.0405123	3	2.03854	12	2.01262e-05
2	1	0	0	0	468.596	0.508559	0.505891	0.0428174	3	2.03859	12	2.16609e-05
2	1	0	0	0	469.596	0.518559	0.521869	0.0446955	3	2.03863	12	2.33252e-05
2	1	0	0	0	470.596	0.528559	0.529823	0.0470522	3	2.03868	12	2.49294e-05
2	1	0	0	0	471.596	0.53856	0.534448	0.049795	3	2.03873	12	2.66129e-05
2	1	0	0	0	472.596	0.54856	0.549292	0.0525688	3	2.03878	12	2.88756e-05
2	1	0	0	0	473.596	0.55856	0.562013	0.0561639	3	2.03883	12	3.15648e-05
2	1	0	1	0	474.596	0.56856	0.567275	0.0608769	3	2.03889	12	3.45339e-05
2	1	0	1	0	475.596	0.57856	0.577261	0.0675256	3	2.03896	12	3.89799e-05
2	1	0	1	0	476.596	0.588561	0.591113	0.0768409	3	2.03903	12	4.54217e-05
2	1	0	1	0	477.596	0.598561	0.599591	0.0910577	3	2.03912	12	5.45974e-05
2	1	0	1	0	478.596	0.608561	0.607066	0.1115	3	2.03922	12	6.76877e-05
2	1	0	1	0	479.596	0.618561	0.619062	0.141376	3	2.03935	12	8.75208e-05
2	1	0	1	0	480.596	0.628561	0.631512	0.181529	3	2.03951	12	0.000114638
2	1	0	1	0	481.596	0.638562	0.636749	0.235929	3	2.03972	12	0.000150227
2	1	0	1	0	482.596	0.648562	0.647418	0.306262	3	2.03999	12	0.000198279
2	1	0	1	0	483.596	0.658562	0.659385	0.398477	3	2.04034	12	0.00026275
2	1	0	1	0	484.596	0.668562	0.669096	0.514586	3	2.04079	12	0.000344308
2	1	0	0	0	485.596	0.678562	0.679446	0.659709	3	2.04138	12	0.000448237
2	1	0	0	0	486.596	0.688562	0.687229	0.836447	3	2.04212	12	0.000574831
2	1	0	0	0	487.626	0.698863	0.696101	1.06108	3	2.0431	11	0.000738621
2	1	0	0	0	488.626	0.708863	0.705537	1.31729	3	2.04429	11	0.000929394
2	1	0	0	0	489.626	0.718863	0.716029	1.62029	3	2.04575	11	0.00116018
2	1	0	0	0	490.626	0.728863	0.727611	1.97051	3	2.04755	11	0.00143377
2	1	0	0	0	491.626	0.738863	0.736108	2.37938	3	2.04972	11	0.00175148
2	1	0	0	0	492.626	0.748864	0.748108	2.84461	3	2.05233	11	0.00212808
2	1	0	0	0	493.626	0.758864	0.763074	3.37819	3	2.05544	11	0.00257781
2	1	0	0	0	494.626	0.768864	0.768473	3.97715	3	2.05911	11	0.00305633
2	1	0	1	0	495.627	0.778865	0.773125	4.64818	3	2.06342	11	0.00359362
2	1	0	1	0	496.627	0.788864	0.791902	5.39081	3	2.06844	11	0.004269
2	1	0	1	0	497.627	0.798864	0.801991	6.2165	3	2.07424	11	0.00498558
2	1	0	1	0	498.627	0.808865	0.805087	7.10753	3	2.0809	11	0.00572218
2	1	0	1	0	499.627	0.818865	0.815965	8.07677	3	2.0885	11	0.00659036
2	1	0	1	0	500.627	0.828865	0.831639	9.11067	3	2.09709	11	0.00757679
2	1	0	1	0	501.627	0.838865	0.838717	10.222	3	2.10676	11	0.00857336
2	1	0	1	0	502.657	0.849165	0.846069	11.4476	3	2.11793	10	0.00968546
2	1	0	1	0	503.657	0.859166	0.861382	12.6787	3	2.12999	10	0.0109212
2	1	0	1	0	504.657	0.869166	0.869424	13.9677	3	2.14332	10	0.0121439
2	1	0	1	0	505.657	0.879166	0.875088	15.3415	3	2.15798	10	0.0134251
2	1	0	0	0	506.657	0.889166	0.8909	16.7387	3	2.17402	10	0.0149125
2	1	0	0	0	507.657	0.899166	0.895774	18.1949	3	2.19149	10	0.0162986
2	1	0	0	0	508.657	0.909166	0.911063	19.6598	3	2.21042	10	0.0179113
2	1	0	0	0	509.657	0.919167	0.919926	21.2136	3	2.23087	10	0.0195149
2	1	0	0	0	510.657	0.929167	0.923173	22.7756	3	2.25288	10	0.0210258
2	1	0	0	0	511.657	0.939167	0.938369	24.3972	3	2.27648	10	0.0228936
2	1	0	0	0	512.657	0.949167	0.952762	26.0391	3	2.30169	10	0.0248091
2	1	0	0	0	513.657	0.959167	0.95728	27.7323	3	2.32859	10	0.0265476
2	1	0	0	0	514.657	0.969168	0.968632	29.4247	3	2.35717	10	0.0285017
2	1	0	0	0	515.657	0.979168	0.979677	31.1637	3	2.38744	10	0.0305304
2	1	0	1	0	516.657	0.989168	0.988997	32.9265	3	2.41951	10	0.0325642
2	1	0	1	0	517.657	0.999168	0.997016	34.722	3	2.45337	10	0.0346184
2	1	0	1	0	518.497	0.992468	0.994532	33.0475	3	2.48196	10	0.0328668
2	1	0	0	0	519.498	0.982468	0.982863	30.8352	3	2.51389	10	0.0303067
2	1	0	0	0	520.498	0.972468	0.973833	28.6823	3	2.54364	10	0.0279318
2	1	0	0	0	521.498	0.962467	0.961798	26.6426	3	2.5713	10	0.0256248
2	1	0	0	0	522.498	0.952467	0.951676	24.706	3	2.59697	10	0.0235121
2	1	0	0	0	523.498	0.942467	0.942505	22.8385	3	2.62071	10	0.0215254
2	1	0	0	0	524.498	0.932467	0.934158	21.0144	3	2.64262	10	0.0196308
2	1	0	0	0	525.498	0.922467	0.921157	19.3166	3	2.66279	10	0.0177936
2	1	0	0	0	526.498	0.912467	0.912734	17.7236	3	2.6813	10	0.0161769
2	1	0	0	0	527.498	0.902466	0.905094	16.1991	3	2.69824	10	0.0146617
2	1	0	0	0	528.498	0.892466	0.892367	14.7344	3	2.71369	10	0.0131485
2	1	0	1	0	529.498	0.882466	0.880148	13.4009	3	2.72776	10	0.0117948
2	1	0	1	0	530.498	0.872466	0.873967	12.1446	3	2.74052	10	0.010614
2	1	0	1	0	531.498	0.862466	0.864577	10.9446	3	2.75204	10	0.00946245
2	1	0	1	0	532.498	0.852466	0.850407	9.83251	3	2.76242	10	0.00836164
2	1	0	1	0	533.498	0.842465	0.842215	8.78916	3	2.77172	10	0.00740237
2	1	0	1	0	534.498	0.832465	0.835325	7.85938	3	2.78004	10	0.00656514
2	1	0	1	0	535.498	0.822465	0.820835	6.97607	3	2.78744	10	0.00572621
2	1	0	1	0	536.498	0.812465	0.808746	6.17039	3	2.794	10	0.00499028
2	1	0	1	0	537.498	0.802465	0.803833	5.43303	3	2.7998	10	0.00436725
2	1	0	1	0	538.498	0.792464	0.793309	4.77188	3	2.80489	10	0.00378557
2	1	0	1	0	539.528	0.782164	0.780893	4.13587	3	2.80947	11	0.00322967
2	1	0	0	0	540.528	0.772164	0.771539	3.5945	3	2.81332	11	0.0027733
2	1	0	0	0	541.528	0.762164	0.762346	3.10425	3	2.81667	11	0.00236652
2	1	0	0	0	542.528	0.752164	0.750184	2.67031	3	2.81955	11	0.00200322
2	1	0	0	0	543.528	0.742163	0.739825	2.27841	3	2.82201	11	0.00168563
2	1	0	0	0	544.528	0.732163	0.732748	1.93409	3	2.82412	11	0.0014172
2	1	0	0	0	545.528	0.722163	0.720403	1.63271	3	2.82589	11	0.00117621
2	1	0	0	0	546.528	0.712163	0.712179	1.36182	3	2.82739	11	0.000969858
2	1	0	0	0	547.528	0.702163	0.703105	1.13416	3	2.82863	11	0.000797434
2	1	0	0	0	548.528	0.692163	0.690065	0.930064	3	2.82966	11	0.000641805
2	1	0	0	0	549.528	0.682162	0.682105	0.763194	3	2.8305	11	0.000520579
2	1	0	1	0	550.528	0.672161	0.673369	0.609767	3	2.83119	11	0.000410598
2	1	0	1	0	551.528	0.662162	0.664882	0.491068	3	2.83173	11	0.000326503
2	1	0	1	0	552.558	0.651862	0.653975	0.382313	3	2.83218	12	0.000250024
2	1	0	1	0	553.558	0.641862	0.639982	0.297911	3	2.83252	12	0.000190658
2	1	0	1	0	554.558	0.631861	0.628587	0.229162	3	2.83278	12	0.000144048
2	1	0	1	0	555.558	0.621861	0.620757	0.174177	3	2.83298	12	0.000108122
2	1	0	1	0	556.558	0.611861	0.606451	0.130103	3	2.83313	12	7.89011e-05
2	1	0	1	0	557.558	0.601861	0.600338	0.0961653	3	2.83324	12	5.77317e-05
2	1	0	1	0	558.558	0.591861	0.59421	0.0694367	3	2.83332	12	4.126e-05
2	1	0	1	0	559.558	0.58186	0.582459	0.0495489	3	2.83338	12	2.88602e-05
2	1	0	1	0	560.558	0.57186	0.570124	0.0345319	3	2.83342	12	1.96875e-05
2	1	0	0	0	561.558	0.56186	0.564148	0.0235702	3	2.83345	12	1.32971e-05
2	1	0	0	0	562.558	0.55186	0.551547	0.0144877	3	2.83347	12	7.99066e-06
2	1	0	0	0	563.558	0.54186	0.540532	0.00790199	3	2.83348	12	4.27127e-06
2	1	0	0	0	564.558	0.53186	0.52817	0.00385884	3	2.83348	12	2.03812e-06
2	1	0	0	0	565.558	0.521859	0.523827	0.000581566	3	2.83348	12	3.0464e-07
2	0	0	0	0	566.558	0.511859	0.514592	-0.0025234	3	2.83348	12	-1.29852e-06
2	1	0	0	0	567.558	0.501859	0.49955	-0.00444133	3	2.83348	12	-2.21866e-06
2	1	0	0	0	568.558	0.491859	0.492459	-0.00636537	3	2.83347	12	-3.13469e-06
2	0	0	0	0	569.558	0.481859	0.482799	-0.00754942	3	2.83347	12	-3.64485e-06
2	1	0	0	0	570.558	0.471858	0.472923	-0.00898407	3	2.83346	12	-4.24878e-06
2	1	0	1	0	571.558	0.461858	0.460721	-0.01034	3	2.83345	12	-4.76387e-06
2	1	0	1	0	572.559	0.451858	0.451431	-0.0107613	3	2.83344	12	-4.85797e-06
2	0	0	1	0	573.559	0.441858	0.440564	-0.010933	3	2.83342	12	-4.8167e-06
2	0	0	1	0	574.559	0.431858	0.433333	-0.0112906	3	2.83341	12	-4.89261e-06
2	0	0	1	0	575.559	0.421857	0.418587	-0.0124094	3	2.8334	12	-5.19441e-06
2	1	0	1	0	576.559	0.411857	0.412308	-0.0129306	3	2.83339	12	-5.33141e-06
2	1	0	1	0	577.559	0.401857	0.400333	-0.0136474	3	2.83337	12	-5.4635e-06
2	0	0	1	0	578.559	0.391857	0.393486	-0.0139778	3	2.83336	12	-5.50006e-06
2	0	0	1	0	579.559	0.381857	0.385625	-0.014614	3	2.83334	12	-5.63552e-06
2	0	0	1	0	580.559	0.371857	0.374107	-0.0147736	3	2.83333	12	-5.52692e-06
2	0	0	1	0	581.559	0.361856	0.362938	-0.0149203	3	2.83331	12	-5.41516e-06
2	0	0	0	0	582.559	0.351856	0.35249	-0.0149821	3	2.8333	12	-5.28103e-06
2	0	0	0	0	583.559	0.341856	0.341498	-0.0151458	3	2.83328	12	-5.17224e-06
2	0	0	0	0	584.559	0.331856	0.334559	-0.0158409	3	2.83327	12	-5.29971e-06
2	1	0	0	0	585.559	0.321856	0.321832	-0.0157444	3	2.83325	12	-5.06705e-06
2	1	0	0	0	586.559	0.311855	0.311187	-0.016038	3	2.83323	12	-4.99081e-06
2	1	0	0	0	587.559	0.301855	0.301348	-0.0160158	3	2.83322	12	-4.82634e-06
2	0	0	0	0	588.559	0.291855	0.291368	-0.0158477	3	2.8332	12	-4.61751e-06
2	0	0	0	0	589.559	0.281855	0.281509	-0.015232	3	2.83319	12	-4.28793e-06
2	0	0	0	0	590.559	0.271855	0.272104	-0.0146419	3	2.83317	12	-3.98413e-06
2	0	0	0	0	591.559	0.261855	0.260573	-0.0146493	3	2.83315	12	-3.81721e-06
2	0	0	0	0	592.559	0.251854	0.248236	-0.0142463	3	2.83314	12	-3.53646e-06
2	0	0	1	0	593.559	0.241854	0.239957	-0.0141438	3	2.83313	12	-3.39391e-06
2	1	0	1	0	594.559	0.231854	0.235638	-0.0138578	3	2.83311	12	-3.26544e-06
2	1	0	1	0	595.559	0.221854	0.221536	-0.0138956	3	2.8331	12	-3.07838e-06
2	1	0	1	0	596.559	0.211854	0.209957	-0.0140814	3	2.83308	12	-2.95649e-06
2	0	0	1	0	597.559	0.201853	0.203106	-0.0138358	3	2.83307	12	-2.81013e-06
2	0	0	1	0	598.559	0.191853	0.191295	-0.0136036	3	2.83306	12	-2.6023e-06
2	0	0	1	0	599.559	0.181853	0.180475	-0.0128797	3	2.83304	12	-2.32447e-06
2	0	0	1	0	600.559	0.171853	0.172914	-0.0130728	3	2.83303	12	-2.26047e-06
2	0	0	1	0	601.559	0.161853	0.163455	-0.0124605	3	2.83302	12	-2.03673e-06
2	0	0	1	0	602.559	0.151853	0.150273	-0.0118223	3	2.83301	12	-1.77658e-06
2	0	0	0	0	603.559	0.141852	0.141297	-0.0116551	3	2.83299	12	-1.64683e-06
2	0	0	0	0	604.559	0.131852	0.132231	-0.0113557	3	2.83298	12	-1.50157e-06
2	0	0	0	0	605.559	0.121852	0.123442	-0.0106811	3	2.83297	12	-1.3185e-06
2	0	0	0	0	606.559	0.111852	0.112876	-0.0103951	3	2.83296	12	-1.17336e-06
2	1	0	0	0	607.559	0.101852	0.101644	-0.0101187	3	2.83295	12	-1.02851e-06
2	1	0	0	0	608.559	0.0918514	0.0918664	-0.0101928	3	2.83294	12	-9.36379e-07
2	1	0	0	0	609.559	0.0818512	0.0822805	-0.00953102	3	2.83293	12	-7.84217e-07
2	1	0	0	0	610.559	0.071851	0.0733522	-0.00970637	3	2.83292	12	-7.11984e-07
2	0	0	0	0	611.559	0.0618508	0.0593759	-0.00958056	3	2.83291	12	-5.68855e-07
2	0	0	0	0	612.559	0.0518506	0.0509516	-0.00917865	3	2.8329	12	-4.67666e-07
2	0	0	0	0	613.559	0.0418505	0.0440716	-0.0095356	3	2.83289	12	-4.20249e-07
2	0	0	1	0	614.559	0.0318503	0.0310478	-0.00927561	3	2.83288	12	-2.87988e-07
2	0	0	1	0	615.559	0.0218501	0.0190891	-0.00908579	3	2.83287	12	-1.73439e-07
2	0	0	1	0	616.559	0.0118499	0.0159111	-0.00876586	3	2.83286	12	-1.39474e-07
2	0	0	1	0	617.559	0.00184972	0.00259562	-0.00886988	3	2.83285	12	-2.30229e-08
2	0	0	0	1	618.4	-0.00655043	-0.00522839	-0.00870235	3	2.83285	12	4.54993e-08
2	0	0	0	1	619.4	-0.0165506	-0.0194232	-0.00894049	3	2.83284	12	1.73653e-07
2	0	0	0	1	620.4	-0.0265508	-0.0274445	-0.00860249	3	2.83283	12	2.36091e-07
2	0	0	0	1	621.4	-0.036551	-0.0333295	-0.00872406	3	2.83282	12	2.90769e-07
2	0	0	0	1	622.4	-0.0465512	-0.0455259	-0.00861124	3	2.83281	12	3.92035e-07
2	0	0	0	1	623.4	-0.0565514	-0.0613702	-0.00841403	3	2.8328	12	5.16371e-07
2	0	0	1	1	624.4	-0.0665522	-0.063538	-0.00812384	3	2.83279	12	5.16172e-07
2	0	0	1	1	625.4	-0.0765518	-0.0737002	-0.00831311	3	2.83279	12	6.12678e-07
2	0	0	1	1	626.4	-0.0865519	-0.0892517	-0.00854628	3	2.83278	12	7.6277e-07
2	0	0	1	1	627.4	-0.0965521	-0.0985905	-0.00800288	3	2.83277	12	7.89008e-07
2	0	0	1	1	628.4	-0.106552	-0.104372	-0.00797939	3	2.83276	12	8.32821e-07
2	0	0	1	1	629.4	-0.116553	-0.115787	-0.00818622	3	2.83275	12	9.4786e-07
2	0	0	1	1	630.4	-0.126553	-0.128513	-0.00810672	3	2.83274	12	1.04182e-06
2	0	0	1	1	631.4	-0.136553	-0.135386	-0.0079234	3	2.83274	12	1.07272e-06
2	0	0	1	1	632.4	-0.146553	-0.144791	-0.00788058	3	2.83273	12	1.14104e-06
2	0	0	1	1	633.4	-0.156553	-0.159048	-0.00830993	3	2.83272	12	1.32168e-06
2	0	0	1	1	634.4	-0.166553	-0.170304	-0.00807991	3	2.83271	12	1.37604e-06
2	0	0	0	1	635.4	-0.176554	-0.176466	-0.00816933	3	2.8327	12	1.44161e-06
2	1	0	1	1	635.494	-0.177504	-0.179072	-0.0148326	3	2.8327	12	2.6561e-06