File: Data_1/2022_01_25 Co30Ni60Fe10Nx 1mg  ref309 elect1 set1_01_CV_C02.mpt
EC-Lab ASCII FILE
Nb header lines : 57

Cyclic Voltammetry

Run on channel : 2 (SN 12477)
User :
CE vs. WE compliance from -10 V to 10 V
Electrode connection : standard
Potential control : Ewe
Ewe ctrl range : min = -2.50 V, max = 2.50 V
Safety Limits :
	Do not start on E overload
Acquisition started on : 01/25/2023 15:23:40.993
Loaded Setting File :  C:\Users\grupogalan\Documents\EC-Lab\Data\Scott\2022_01_24 Co50Ni25Fe25Nx elec1 set1.1.mps
Saved on :
	File : 2022_01_25 Co30Ni60Fe10Nx 1mg  ref309 elect1 set1_01_CV_C02.mpr
	Directory : C:\Users\grupogalan\Documents\EC-Lab\Data\Scott\
	Host : 169.254.104.159
Device : VSP (SN 1176)
Address : USB
EC-Lab for windows v11.46 (software)
Internet server v11.40 (firmware)
Command interpretor v11.40 (firmware)
Electrode material :
Initial state :
Electrolyte :
Comments :
Electrode surface area : 0.000 cm²
Characteristic mass : 0.001 g
Equivalent Weight : 0.000 g/eq.
Density : 0.000 g/cm3
Volume (V) : 0.001 cm³
Cycle Definition : Charge/Discharge alternance
Ei (V)              0.000
vs.                 Eoc
dE/dt               10.000
dE/dt unit          mV/s
E1 (V)              1.000
vs.                 Ref
Step percent        50
N                   10
E range min (V)     -2.500
E range max (V)     2.500
I Range             Auto
I Range min         Unset
I Range max         Unset
I Range init        Unset
Bandwidth           5
E2 (V)              0.000
vs.                 Ref
nc cycles           2
Reverse Scan        1
Ef (V)              0.000
vs.                 Eoc

mode	ox/red	error	control changes	counter inc.	time/s	control/V	Ewe/V	<I>/mA	cycle number	(Q-Qo)/C	I Range	P/W
2	0	0	0	0	0.000000000000000E+000	-0.169771	-0.166283	-0.00796736	1	0.0000000E+000	13	1.32484e-06
2	0	0	1	0	0.8551	-0.161219	-0.161606	0.000555316	1	4.93195e-07	13	-8.97423e-08
2	0	0	0	0	1.7554	-0.152216	-0.153357	0.000828611	1	1.23376e-06	13	-1.27074e-07
2	0	0	1	0	2.6556	-0.143214	-0.144108	0.00105273	1	2.19758e-06	13	-1.51707e-07
2	0	0	0	0	3.5558	-0.134212	-0.135751	0.00138975	1	3.4427e-06	13	-1.8866e-07
2	0	0	1	0	4.456	-0.12521	-0.125897	0.00183837	1	5.04309e-06	13	-2.31445e-07
2	0	0	0	0	5.3562	-0.116208	-0.115925	0.00229623	1	7.06943e-06	13	-2.66191e-07
2	0	0	1	0	6.2564	-0.107206	-0.108693	0.00273468	1	9.51621e-06	13	-2.97239e-07
2	0	0	0	0	7.1566	-0.0982038	-0.0995303	0.00314661	1	1.22928e-05	13	-3.13183e-07
2	1	0	1	0	8.0568	-0.0892017	-0.0911009	0.0033939	1	1.53199e-05	13	-3.09187e-07
2	1	0	0	0	8.957	-0.0801996	-0.0813054	0.00360103	1	1.86009e-05	13	-2.92784e-07
2	1	0	1	0	9.8572	-0.0711975	-0.0716605	0.0038201	1	2.20529e-05	13	-2.7375e-07
2	1	0	0	0	10.7574	-0.0621953	-0.0619361	0.00388327	1	2.56331e-05	13	-2.40514e-07
2	1	0	1	0	11.6576	-0.0531932	-0.0520101	0.00396685	1	2.92611e-05	13	-2.06316e-07
2	1	0	0	0	12.5578	-0.0441911	-0.0467628	0.00392629	1	3.28809e-05	13	-1.83604e-07
2	1	0	1	0	13.458	-0.035189	-0.0337163	0.00388794	1	3.64674e-05	13	-1.31087e-07
2	1	0	0	0	14.3582	-0.0261869	-0.0258714	0.00383819	1	4.00054e-05	13	-9.92994e-08
2	1	0	1	0	15.2584	-0.0171848	-0.018105	0.00383447	1	4.34925e-05	13	-6.9423e-08
2	1	0	1	0	16.1587	-0.00818219	-0.00837187	0.00374957	1	4.69178e-05	13	-3.13909e-08
2	1	0	1	0	17.0589	0.000818811	0.000553171	0.00359507	1	5.02705e-05	13	1.98869e-09
2	1	0	1	0	17.9592	0.00982159	0.00950062	0.00353362	1	5.35468e-05	13	3.35716e-08
2	1	0	0	0	18.8594	0.0188237	0.0195751	0.00343702	1	5.6744e-05	13	6.72799e-08
2	1	0	1	0	19.7596	0.0278258	0.0291892	0.0033935	1	5.98692e-05	13	9.90537e-08
2	1	0	0	0	20.6598	0.0368279	0.0372961	0.00332803	1	6.29043e-05	13	1.24123e-07
2	1	0	1	0	21.56	0.04583	0.0458188	0.00332025	1	6.58569e-05	13	1.5213e-07
2	1	0	0	0	22.4602	0.0548321	0.0539851	0.00323672	1	6.87553e-05	13	1.74734e-07
2	1	0	1	0	23.3604	0.0638343	0.0621609	0.003078	1	7.16101e-05	13	1.91331e-07
2	1	0	0	0	24.2606	0.0728364	0.0717061	0.00314889	1	7.44379e-05	13	2.25795e-07
2	1	0	1	0	25.1608	0.0818385	0.081281	0.00311354	1	7.7257e-05	13	2.53071e-07
2	1	0	0	0	26.061	0.0908406	0.0897591	0.00324849	1	8.01049e-05	13	2.91581e-07
2	1	0	1	0	26.9612	0.0998427	0.100349	0.00317738	1	8.2985e-05	13	3.18847e-07
2	1	0	0	0	27.8614	0.108845	0.108102	0.00333647	1	8.59285e-05	13	3.60678e-07
2	1	0	1	0	28.7616	0.117847	0.117094	0.00353284	1	8.89723e-05	13	4.13675e-07
2	1	0	0	0	29.6618	0.126849	0.127272	0.00360009	1	9.21701e-05	13	4.58189e-07
2	1	0	1	0	30.562	0.135851	0.135458	0.00399061	1	9.5634e-05	13	5.4056e-07
2	1	0	1	0	31.4623	0.144854	0.143776	0.00447543	1	9.94943e-05	13	6.43461e-07
2	1	0	1	0	32.3625	0.153855	0.15181	0.00524672	1	0.000103925	13	7.96505e-07
2	1	0	1	0	33.2628	0.162857	0.162069	0.00627713	1	0.000109171	13	1.01733e-06
2	1	0	0	0	34.163	0.17186	0.171934	0.00734487	1	0.000115398	13	1.26283e-06
2	1	0	1	0	35.0632	0.180862	0.181014	0.0084446	1	0.000122631	13	1.52859e-06
2	1	0	0	0	35.9634	0.189864	0.18895	0.00941926	1	0.000130795	13	1.77977e-06
2	1	0	1	0	36.8636	0.198866	0.199072	0.0101818	1	0.000139735	13	2.02692e-06
2	1	0	0	0	37.7638	0.207868	0.206674	0.0109551	1	0.000149273	13	2.26413e-06
2	1	0	1	0	38.664	0.21687	0.219658	0.0113126	1	0.00015931	13	2.4849e-06
2	1	0	0	0	39.5642	0.225872	0.226148	0.0116431	1	0.000169747	13	2.63307e-06
2	1	0	1	0	40.4644	0.234874	0.235376	0.0119988	1	0.000180501	13	2.82423e-06
2	1	0	0	0	41.3646	0.243876	0.246118	0.0122357	1	0.000191548	13	3.01143e-06
2	1	0	1	0	42.2648	0.252879	0.253159	0.0125115	1	0.000202876	13	3.1674e-06
2	1	0	0	0	43.165	0.261881	0.262799	0.0128259	1	0.000214493	13	3.37063e-06
2	1	0	1	0	44.0652	0.270883	0.269435	0.0132489	1	0.000226446	13	3.5697e-06
2	1	0	0	0	44.9654	0.279885	0.281238	0.0135777	1	0.000238787	13	3.81856e-06
2	1	0	1	0	45.8656	0.288887	0.289229	0.0142157	1	0.000251605	13	4.11159e-06
2	1	0	0	0	46.7658	0.297889	0.297662	0.0149553	1	0.000265016	13	4.45161e-06
2	1	0	1	0	47.6661	0.306891	0.306623	0.0158868	1	0.000279205	13	4.87125e-06
2	1	0	1	0	48.5663	0.315893	0.314897	0.0170825	1	0.000294417	13	5.37923e-06
2	1	0	0	0	49.4666	0.324895	0.325188	0.0189348	1	0.000310995	13	6.15738e-06
2	1	0	1	0	50.3668	0.333898	0.333223	0.0212281	1	0.000329384	13	7.07368e-06
2	1	0	0	0	51.267	0.3429	0.341743	0.0242845	1	0.000350192	13	8.29905e-06
2	1	0	1	0	52.1672	0.351902	0.352696	0.0282083	1	0.000374193	13	9.94897e-06
2	1	0	0	0	53.0674	0.360904	0.360236	0.0333239	1	0.000402419	13	1.20045e-05
2	1	0	1	0	53.9676	0.369906	0.368554	0.0402009	1	0.000436214	13	1.48162e-05
2	1	0	0	0	54.8678	0.378908	0.378108	0.0492831	1	0.00047733	13	1.86343e-05
2	1	0	1	0	55.768	0.38791	0.387748	0.0613779	1	0.000528052	13	2.37991e-05
2	1	0	0	0	56.6682	0.396912	0.396221	0.0771232	1	0.000591376	13	3.05579e-05
2	1	0	1	0	57.5984	0.406215	0.406322	0.099217	1	0.000674787	12	4.03141e-05
2	1	0	0	0	58.4986	0.415217	0.415123	0.12617	1	0.000776734	12	5.23759e-05
2	1	0	1	0	59.3988	0.424219	0.423438	0.160114	1	0.000905943	12	6.77981e-05
2	1	0	0	0	60.299	0.433221	0.432544	0.202097	1	0.00106934	12	8.74159e-05
2	1	0	1	0	61.1992	0.442223	0.442149	0.252435	1	0.00127464	12	0.000111614
2	1	0	1	0	62.0995	0.451226	0.447432	0.311208	1	0.00152939	12	0.000139244
2	1	0	1	0	62.9997	0.460227	0.45858	0.376946	1	0.00184031	12	0.00017286
2	1	0	1	0	63.9	0.469229	0.469804	0.447274	1	0.00221275	12	0.000210131
2	1	0	0	0	64.8002	0.478231	0.478632	0.518865	1	0.00264937	12	0.000248345
2	1	0	1	0	65.7004	0.487234	0.484446	0.590462	1	0.00315058	12	0.000286047
2	1	0	0	0	66.6006	0.496236	0.497373	0.660102	1	0.00371575	12	0.000328317
2	1	0	1	0	67.5008	0.505238	0.505834	0.726396	1	0.00434249	12	0.000367435
2	1	0	0	0	68.401	0.51424	0.514631	0.790536	1	0.00502786	12	0.000406834
2	1	0	1	0	69.3012	0.523242	0.523362	0.850196	1	0.00576878	12	0.00044496
2	1	0	0	0	70.2014	0.532244	0.532231	0.90656	1	0.00656227	12	0.000482499
2	1	0	1	0	71.1016	0.541246	0.541709	0.959255	1	0.00740521	12	0.000519637
2	1	0	0	0	72.0018	0.550248	0.551289	1.00814	1	0.00829419	12	0.000555778
2	1	0	1	0	72.932	0.559551	0.559039	1.05725	1	0.00925985	11	0.000591045
2	1	0	0	0	73.8322	0.568553	0.56841	1.09798	1	0.010233	11	0.000624103
2	1	0	1	0	74.7324	0.577555	0.575805	1.13648	1	0.0112416	11	0.000654393
2	1	0	0	0	75.6326	0.586557	0.585987	1.17077	1	0.0122831	11	0.000686056
2	1	0	1	0	76.5328	0.595559	0.595741	1.2062	1	0.0133563	11	0.000718582
2	1	0	0	0	77.433	0.604561	0.6038	1.24286	1	0.0144621	11	0.000750438
2	1	0	1	0	78.3333	0.613563	0.614547	1.29089	1	0.0156052	11	0.00079331
2	1	0	1	0	79.2336	0.622565	0.623054	1.35158	1	0.0167951	11	0.000842107
2	1	0	0	0	80.1338	0.631567	0.6312	1.44286	1	0.0180535	11	0.000910734
2	1	0	1	0	81.034	0.64057	0.639569	1.58127	1	0.0194137	11	0.00101133
2	1	0	0	0	81.9342	0.649572	0.648462	1.77935	1	0.0209237	11	0.00115384
2	1	0	1	0	82.8344	0.658574	0.657494	2.05758	1	0.0226481	11	0.00135284
2	1	0	0	0	83.7346	0.667576	0.666222	2.42824	1	0.0246649	11	0.00161775
2	1	0	1	0	84.6348	0.676578	0.674982	2.90149	1	0.0270612	11	0.00195846
2	1	0	0	0	85.535	0.68558	0.686333	3.47905	1	0.0299305	11	0.00238778
2	1	0	1	0	86.4352	0.694582	0.696178	4.1598	1	0.033366	11	0.00289596
2	1	0	0	0	87.3354	0.703584	0.701978	4.93485	1	0.0374574	11	0.00346416
2	1	0	1	0	88.2356	0.712586	0.712825	5.80357	1	0.0422908	11	0.00413693
2	1	0	0	0	89.1358	0.721588	0.722863	6.75969	1	0.0479453	11	0.00488633
2	1	0	1	0	90.036	0.730591	0.730187	7.79057	1	0.054494	11	0.00568857
2	1	0	0	0	90.9362	0.739593	0.738745	8.89386	1	0.0620036	11	0.00657029
2	1	0	1	0	91.8364	0.748595	0.747644	10.058	1	0.0705335	11	0.00751984
2	1	0	1	0	92.7667	0.757898	0.756562	11.3308	1	0.0804868	10	0.00857242
2	1	0	1	0	93.6669	0.766899	0.766663	12.6167	1	0.0912708	10	0.00967278
2	1	0	1	0	94.5672	0.775901	0.776297	13.941	1	0.10323	10	0.0108224
2	1	0	0	0	95.4674	0.784903	0.786488	15.3194	1	0.116403	10	0.0120485
2	1	0	1	0	96.3676	0.793906	0.794288	16.727	1	0.130831	10	0.0132861
2	1	0	0	0	97.2678	0.802908	0.802164	18.1774	1	0.146546	10	0.0145813
2	1	0	1	0	98.168	0.81191	0.810134	19.6558	1	0.163573	10	0.0159238
2	1	0	0	0	99.0682	0.820912	0.819961	21.1431	1	0.181937	10	0.0173365
2	1	0	1	0	99.9684	0.829914	0.829956	22.6913	1	0.201678	10	0.0188328
2	1	0	0	0	100.869	0.838916	0.839022	24.2668	1	0.222816	10	0.0203604
2	1	0	1	0	101.769	0.847918	0.844873	25.8357	1	0.245381	10	0.0218278
2	1	0	0	0	102.669	0.85692	0.857	27.4638	1	0.269381	10	0.0235365
2	1	0	1	0	103.569	0.865922	0.864165	29.1192	1	0.294859	10	0.0251638
2	1	0	0	0	104.469	0.874925	0.87264	30.8427	1	0.321838	10	0.0269146
2	1	0	1	0	105.37	0.883927	0.882798	32.5602	1	0.350377	10	0.0287441
2	1	0	0	0	106.27	0.892929	0.893596	34.2978	1	0.380476	10	0.0306483
2	1	0	1	0	107.17	0.901931	0.901195	36.2092	1	0.412228	10	0.0326315
2	1	0	1	0	108.07	0.910934	0.909799	38.0925	1	0.445684	10	0.0346565
2	1	0	1	0	108.97	0.919935	0.919815	39.9592	1	0.480845	10	0.0367551
2	1	0	1	0	109.871	0.928937	0.930167	41.883	1	0.517684	10	0.0389582
2	1	0	0	0	110.771	0.937939	0.938313	43.9235	1	0.556281	10	0.041214
2	1	0	1	0	111.671	0.946941	0.946204	45.905	1	0.596734	10	0.0434355
2	1	0	0	0	112.571	0.955943	0.954712	47.8169	1	0.638951	10	0.0456513
2	1	0	1	0	113.472	0.964946	0.965226	49.8188	1	0.682914	10	0.0480864
2	1	0	0	0	114.372	0.973948	0.974119	51.888	1	0.728623	10	0.0505451
2	1	0	1	0	115.272	0.98295	0.984031	53.7936	1	0.776228	10	0.0529346
2	1	0	0	0	116.172	0.991952	0.993582	55.9107	1	0.825495	10	0.0555518
2	1	0	1	0	116.978	1	0.999479	57.6879	1	0.871278	10	0.0576578
2	1	0	0	0	117.833	0.991452	0.989731	55.0747	1	0.919518	10	0.0545091
2	1	0	1	0	118.733	0.98245	0.981099	52.3099	1	0.967849	10	0.0513212
2	1	0	0	0	119.633	0.973448	0.973334	50.3086	1	1.01398	10	0.048967
2	1	0	1	0	120.534	0.964446	0.964577	47.797	1	1.05814	10	0.0461039
2	1	0	0	0	121.434	0.955443	0.956235	45.5827	1	1.10016	10	0.0435878
2	1	0	1	0	122.334	0.946441	0.947344	43.461	1	1.14027	10	0.0411725
2	1	0	0	0	123.234	0.937439	0.937777	41.2879	1	1.17847	10	0.0387189
2	1	0	1	0	124.134	0.928437	0.926504	39.2488	1	1.21481	10	0.0363642
2	1	0	1	0	125.035	0.919435	0.918349	37.2023	1	1.24923	10	0.0341647
2	1	0	0	0	125.935	0.910433	0.910753	35.2377	1	1.28181	10	0.0320929
2	1	0	1	0	126.835	0.901431	0.902055	33.1832	1	1.31258	10	0.0299331
2	1	0	0	0	127.735	0.892429	0.893597	31.4851	1	1.3416	10	0.0281349
2	1	0	1	0	128.636	0.883427	0.883519	29.6337	1	1.36908	10	0.026182
2	1	0	0	0	129.536	0.874424	0.874152	27.76	1	1.39488	10	0.0242665
2	1	0	1	0	130.436	0.865422	0.865298	26.089	1	1.41909	10	0.0225747
2	1	0	0	0	131.336	0.85642	0.855801	24.6764	1	1.44185	10	0.0211181
2	1	0	1	0	132.236	0.847418	0.847243	23.1037	1	1.46333	10	0.0195744
2	1	0	0	0	133.137	0.838416	0.838602	21.5725	1	1.48342	10	0.0180907
2	1	0	1	0	134.037	0.829414	0.829205	20.1229	1	1.50218	10	0.016686
2	1	0	0	0	134.937	0.820412	0.819667	18.7299	1	1.51965	10	0.0153523
2	1	0	1	0	135.837	0.81141	0.811666	17.376	1	1.53589	10	0.0141035
2	1	0	0	0	136.737	0.802408	0.802958	16.1045	1	1.55095	10	0.0129312
2	1	0	1	0	137.638	0.793405	0.793578	14.8748	1	1.56489	10	0.0118043
2	1	0	0	0	138.538	0.784403	0.783869	13.6508	1	1.57771	10	0.0107004
2	1	0	1	0	139.438	0.775401	0.77479	12.564	1	1.5895	10	0.0097345
2	1	0	1	0	140.338	0.766399	0.76549	11.4449	1	1.6003	10	0.00876099
2	1	0	0	0	141.239	0.757397	0.758356	10.5239	1	1.61022	10	0.00798085
2	1	0	1	0	142.139	0.748395	0.747531	9.52634	1	1.61923	10	0.00712123
2	1	0	0	0	143.039	0.739393	0.739738	8.57622	1	1.62737	10	0.00634416
2	1	0	1	0	143.939	0.730391	0.729903	7.67868	1	1.63468	10	0.00560469
2	1	0	0	0	144.839	0.721388	0.719919	6.84367	1	1.6412	10	0.00492689
2	1	0	1	0	145.74	0.712386	0.71211	6.04517	1	1.64699	10	0.00430482
2	1	0	0	0	146.64	0.703384	0.70248	5.30281	1	1.65209	10	0.00372511
2	1	0	1	0	147.54	0.694382	0.69484	4.61975	1	1.65655	10	0.00320998
2	1	0	0	0	148.47	0.68508	0.68148	3.94579	1	1.66052	11	0.00268898
2	1	0	1	0	149.37	0.676078	0.67463	3.37154	1	1.66381	11	0.00227454
2	1	0	0	0	150.271	0.667076	0.666221	2.83804	1	1.6666	11	0.00189076
2	1	0	1	0	151.171	0.658074	0.656849	2.35528	1	1.66893	11	0.00154706
2	1	0	0	0	152.071	0.649072	0.648681	1.92187	1	1.67084	11	0.00124668
2	1	0	1	0	152.971	0.640069	0.640043	1.54038	1	1.67239	11	0.000985908
2	1	0	0	0	153.871	0.631067	0.63041	1.21106	1	1.67362	11	0.000763465
2	1	0	1	0	154.772	0.622065	0.621881	0.93097	1	1.67458	11	0.000578952
2	1	0	1	0	155.672	0.613063	0.612484	0.69732	1	1.67531	11	0.000427098
2	1	0	0	0	156.572	0.604061	0.604026	0.506169	1	1.67584	11	0.000305739
2	1	0	1	0	157.502	0.594759	0.595928	0.349586	1	1.67624	12	0.000208328
2	1	0	0	0	158.403	0.585757	0.586574	0.233492	1	1.67649	12	0.00013696
2	1	0	1	0	159.303	0.576755	0.57492	0.147043	1	1.67666	12	8.4538e-05
2	1	0	0	0	160.203	0.567752	0.566267	0.0845215	1	1.67676	12	4.78617e-05
2	1	0	1	0	161.103	0.55875	0.558464	0.0390465	1	1.67681	12	2.18061e-05
2	0	0	0	0	162.003	0.549748	0.549882	0.00580359	1	1.67683	12	3.19129e-06
2	0	0	1	0	162.904	0.540746	0.540366	-0.0172017	1	1.67682	12	-9.29525e-06
2	0	0	0	0	163.804	0.531744	0.533132	-0.0340707	1	1.67679	12	-1.81641e-05
2	0	0	1	0	164.704	0.522742	0.521822	-0.045994	1	1.67676	12	-2.40007e-05
2	0	0	0	0	165.604	0.51374	0.511803	-0.055749	1	1.67671	12	-2.85325e-05
2	0	0	1	0	166.504	0.504738	0.504324	-0.0646509	1	1.67665	12	-3.2605e-05
2	0	0	0	0	167.405	0.495736	0.494412	-0.0722717	1	1.67659	12	-3.5732e-05
2	0	0	1	0	168.305	0.486733	0.486638	-0.077623	1	1.67652	12	-3.77743e-05
2	0	0	1	0	169.205	0.477731	0.475643	-0.0820898	1	1.67644	12	-3.90454e-05
2	0	0	1	0	170.105	0.468729	0.468313	-0.0880286	1	1.67636	12	-4.1225e-05
2	0	0	1	0	171.006	0.459727	0.458879	-0.0921057	1	1.67628	12	-4.22654e-05
2	0	0	0	0	171.906	0.450725	0.452145	-0.0957772	1	1.67619	12	-4.33052e-05
2	0	0	1	0	172.806	0.441723	0.44264	-0.100869	1	1.6761	12	-4.46488e-05
2	0	0	0	0	173.706	0.432721	0.431342	-0.105383	1	1.67601	12	-4.54563e-05
2	0	0	1	0	174.606	0.423719	0.424362	-0.109258	1	1.67591	12	-4.63648e-05
2	0	0	0	0	175.507	0.414717	0.413037	-0.114311	1	1.67581	12	-4.72145e-05
2	0	0	1	0	176.407	0.405714	0.404664	-0.118995	1	1.6757	12	-4.81529e-05
2	0	0	0	0	177.307	0.396712	0.396423	-0.124326	1	1.67559	12	-4.92858e-05
2	0	0	1	0	178.207	0.38771	0.388578	-0.130725	1	1.67547	12	-5.07967e-05
2	0	0	0	0	179.107	0.378708	0.376497	-0.137273	1	1.67535	12	-5.16829e-05
2	0	0	1	0	180.008	0.369706	0.370418	-0.143294	1	1.67522	12	-5.30787e-05
2	0	0	0	0	180.908	0.360704	0.361408	-0.150768	1	1.67509	12	-5.44888e-05
2	0	0	1	0	181.808	0.351702	0.352299	-0.159266	1	1.67495	12	-5.61092e-05
2	0	0	0	0	182.708	0.3427	0.341124	-0.168183	1	1.6748	12	-5.73713e-05
2	0	0	1	0	183.608	0.333698	0.332286	-0.178867	1	1.67464	12	-5.94352e-05
2	0	0	0	0	184.509	0.324695	0.323978	-0.188801	1	1.67447	12	-6.11674e-05
2	0	0	1	0	185.409	0.315693	0.315897	-0.195627	1	1.6743	12	-6.17981e-05
2	0	0	1	0	186.309	0.306692	0.308275	-0.197902	1	1.67412	12	-6.10081e-05
2	0	0	0	0	187.209	0.297689	0.296905	-0.195581	1	1.67394	12	-5.8069e-05
2	0	0	1	0	188.11	0.288687	0.288819	-0.189515	1	1.67377	12	-5.47355e-05
2	0	0	0	0	189.01	0.279685	0.280108	-0.179891	1	1.6736	12	-5.03889e-05
2	0	0	1	0	189.91	0.270683	0.269182	-0.168364	1	1.67344	12	-4.53207e-05
2	0	0	0	0	190.81	0.261681	0.26032	-0.156648	1	1.6733	12	-4.07787e-05
2	0	0	1	0	191.71	0.252679	0.253041	-0.145009	1	1.67316	12	-3.66932e-05
2	0	0	0	0	192.611	0.243676	0.245934	-0.134423	1	1.67304	12	-3.30591e-05
2	0	0	1	0	193.511	0.234674	0.23579	-0.124976	1	1.67292	12	-2.94681e-05
2	0	0	0	0	194.411	0.225672	0.225141	-0.116586	1	1.67281	12	-2.62483e-05
2	0	0	1	0	195.311	0.21667	0.216767	-0.109054	1	1.67271	12	-2.36394e-05
2	0	0	0	0	196.211	0.207668	0.207886	-0.102538	1	1.67261	12	-2.13162e-05
2	0	0	1	0	197.112	0.198666	0.198079	-0.0966058	1	1.67252	12	-1.91355e-05
2	0	0	0	0	198.012	0.189664	0.189432	-0.0916935	1	1.67244	12	-1.73697e-05
2	0	0	1	0	198.912	0.180662	0.180803	-0.0872351	1	1.67235	12	-1.57724e-05
2	0	0	0	0	199.812	0.17166	0.170796	-0.083251	1	1.67228	12	-1.4219e-05
2	0	0	1	0	200.712	0.162657	0.162693	-0.0801573	1	1.6722	12	-1.3041e-05
2	0	0	1	0	201.613	0.153656	0.153301	-0.0767245	1	1.67213	12	-1.17619e-05
2	0	0	0	0	202.513	0.144653	0.145636	-0.0742212	1	1.67206	12	-1.08093e-05
2	0	0	1	0	203.413	0.135651	0.135072	-0.0713481	1	1.672	12	-9.63715e-06
2	0	0	0	0	204.313	0.126649	0.125618	-0.0692405	1	1.67193	12	-8.69787e-06
2	0	0	1	0	205.214	0.117647	0.117678	-0.0667903	1	1.67187	12	-7.85974e-06
2	0	0	0	0	206.114	0.108645	0.108668	-0.0648288	1	1.67181	12	-7.04484e-06
2	0	0	1	0	207.014	0.0996427	0.0998848	-0.0631323	1	1.67175	12	-6.30596e-06
2	0	0	0	0	207.914	0.0906405	0.0903078	-0.0612702	1	1.6717	12	-5.53317e-06
2	0	0	1	0	208.814	0.0816384	0.0818753	-0.0595373	1	1.67164	12	-4.87463e-06
2	0	0	0	0	209.715	0.0726363	0.0730301	-0.0582384	1	1.67159	12	-4.25316e-06
2	0	0	1	0	210.615	0.0636342	0.0632813	-0.0569745	1	1.67154	12	-3.60542e-06
2	0	0	0	0	211.515	0.0546321	0.0565565	-0.0554497	1	1.67149	12	-3.13604e-06
2	0	0	1	0	212.415	0.04563	0.0449568	-0.0541998	1	1.67144	12	-2.43665e-06
2	0	0	0	0	213.315	0.0366279	0.036956	-0.0533198	1	1.67139	12	-1.97048e-06
2	0	0	1	0	214.216	0.0276258	0.0293073	-0.0522287	1	1.67134	12	-1.53068e-06
2	0	0	0	0	215.116	0.0186237	0.0199308	-0.0511304	1	1.67129	12	-1.01907e-06
2	0	0	1	0	216.016	0.00962154	0.0104174	-0.0501919	1	1.67125	12	-5.22869e-07
2	0	0	1	0	216.916	0.000619429	0.00135455	-0.0493203	1	1.6712	12	-6.68067e-08
2	0	0	0	1	217.637	0.00652081	0.00688847	-0.0456003	2	1.67117	12	-3.14116e-07
2	0	0	1	1	218.537	0.0155229	0.0153273	-0.0419662	2	1.67113	12	-6.4323e-07
2	0	0	0	1	219.437	0.024525	0.0252342	-0.0391272	2	1.67109	12	-9.87345e-07
2	0	0	1	1	220.338	0.0335272	0.0343488	-0.0367211	2	1.67106	12	-1.26133e-06
2	0	0	0	1	221.238	0.0425293	0.0409622	-0.0343979	2	1.67103	12	-1.40901e-06
2	0	0	1	1	222.138	0.0515316	0.0506459	-0.0324536	2	1.671	12	-1.64364e-06
2	0	0	1	1	223.038	0.0605326	0.05987	-0.0307703	2	1.67097	12	-1.84221e-06
2	0	0	0	1	223.939	0.0695356	0.0689327	-0.0292243	2	1.67094	12	-2.01451e-06
2	0	0	1	1	224.839	0.0785377	0.0803383	-0.0278399	2	1.67092	12	-2.23661e-06
2	0	0	0	1	225.739	0.0875398	0.0879796	-0.0263156	2	1.67089	12	-2.31524e-06
2	0	0	1	1	226.639	0.0965419	0.0951159	-0.0250577	2	1.67087	12	-2.38339e-06
2	0	0	0	1	227.539	0.105544	0.106482	-0.0237418	2	1.67085	12	-2.52808e-06
2	0	0	1	1	228.44	0.114546	0.114983	-0.0228229	2	1.67083	12	-2.62424e-06
2	0	0	0	1	229.34	0.123548	0.123954	-0.0214399	2	1.67081	12	-2.65756e-06
2	0	0	1	1	230.24	0.13255	0.131844	-0.0203846	2	1.67079	12	-2.68757e-06
2	0	0	0	1	231.14	0.141552	0.139946	-0.0195698	2	1.67077	12	-2.73872e-06
2	0	0	1	1	232.04	0.150555	0.149487	-0.0183611	2	1.67076	12	-2.74475e-06
2	0	0	0	1	232.941	0.159557	0.159983	-0.0174648	2	1.67074	12	-2.79406e-06
2	0	0	1	1	233.841	0.168559	0.169616	-0.01637	2	1.67073	12	-2.77661e-06
2	0	0	0	1	234.741	0.177561	0.175543	-0.0155594	2	1.67071	12	-2.73135e-06
2	0	0	1	1	235.641	0.186563	0.186795	-0.0144557	2	1.6707	12	-2.70025e-06
2	0	0	0	1	236.541	0.195565	0.194429	-0.0135266	2	1.67069	12	-2.62995e-06
2	0	0	1	1	237.442	0.204568	0.20475	-0.0125146	2	1.67068	12	-2.56236e-06
2	0	0	1	1	238.342	0.213569	0.212984	-0.0116743	2	1.67067	12	-2.48644e-06
2	0	0	0	1	239.242	0.222571	0.222821	-0.0104538	2	1.67066	12	-2.32934e-06
2	0	0	1	1	240.142	0.231574	0.230778	-0.00931769	2	1.67065	12	-2.15031e-06
2	1	0	0	1	241.043	0.240576	0.239682	-0.00803234	2	1.67064	12	-1.92521e-06
2	1	0	1	1	241.943	0.249578	0.248642	-0.00672185	2	1.67063	12	-1.67133e-06
2	0	0	0	1	242.843	0.25858	0.25899	-0.00519364	2	1.67063	12	-1.3451e-06
2	0	0	1	1	243.743	0.267582	0.268951	-0.00336695	2	1.67063	12	-9.05544e-07
2	1	0	0	1	244.643	0.276584	0.276758	-0.00157446	2	1.67062	12	-4.35743e-07
2	1	0	1	1	245.544	0.285586	0.28464	0.000685443	2	1.67062	12	1.95104e-07
2	1	0	0	1	246.444	0.294588	0.292801	0.00335747	2	1.67063	12	9.83069e-07
2	0	0	1	1	247.344	0.30359	0.302198	0.00628522	2	1.67063	12	1.89938e-06
2	1	0	0	1	248.244	0.312593	0.313269	0.0101696	2	1.67064	12	3.1858e-06
2	1	0	1	1	249.144	0.321595	0.319621	0.0151326	2	1.67065	12	4.8367e-06
2	1	0	0	1	250.045	0.330597	0.332217	0.0215684	2	1.67067	12	7.16539e-06
2	1	0	1	1	250.945	0.339599	0.33955	0.0299056	2	1.67069	12	1.01544e-05
2	1	0	0	1	251.845	0.348601	0.348203	0.0404466	2	1.67072	12	1.40836e-05
2	1	0	1	1	252.745	0.357604	0.356089	0.0537104	2	1.67077	12	1.91257e-05
2	1	0	1	1	253.645	0.366605	0.366162	0.0702837	2	1.67082	12	2.57352e-05
2	1	0	0	1	254.546	0.375607	0.374956	0.0904092	2	1.67089	12	3.38994e-05
2	1	0	1	1	255.446	0.384609	0.384015	0.114371	2	1.67099	12	4.39202e-05
2	1	0	0	1	256.346	0.393612	0.392352	0.142559	2	1.6711	12	5.59331e-05
2	1	0	1	1	257.246	0.402614	0.402661	0.174425	2	1.67125	12	7.0234e-05
2	1	0	0	1	258.147	0.411616	0.411642	0.207695	2	1.67142	12	8.54958e-05
2	1	0	1	1	259.047	0.420618	0.420638	0.238887	2	1.67162	12	0.000100485
2	1	0	0	1	259.947	0.42962	0.429744	0.266128	2	1.67185	12	0.000114367
2	1	0	1	1	260.847	0.438622	0.438513	0.289472	2	1.6721	12	0.000126937
2	1	0	0	1	261.747	0.447624	0.446857	0.309554	2	1.67237	12	0.000138326
2	1	0	1	1	262.648	0.456626	0.455371	0.325766	2	1.67266	12	0.000148344
2	1	0	0	1	263.548	0.465629	0.465827	0.338044	2	1.67296	12	0.00015747
2	1	0	1	1	264.448	0.474631	0.476005	0.347728	2	1.67327	12	0.00016552
2	1	0	0	1	265.348	0.483633	0.484503	0.353757	2	1.67359	12	0.000171396
2	1	0	1	1	266.248	0.492635	0.492786	0.357233	2	1.67391	12	0.000176039
2	1	0	0	1	267.149	0.501637	0.501365	0.358106	2	1.67423	12	0.000179542
2	1	0	1	1	268.049	0.510639	0.510268	0.356893	2	1.67456	12	0.000182111
2	1	0	1	1	268.949	0.519641	0.519519	0.353776	2	1.67488	12	0.000183793
2	1	0	1	1	269.849	0.528642	0.528069	0.349855	2	1.6752	12	0.000184748
2	1	0	1	1	270.75	0.537645	0.53695	0.34559	2	1.67551	12	0.000185565
2	1	0	0	1	271.65	0.546648	0.543402	0.341256	2	1.67582	12	0.000185439
2	1	0	1	1	272.55	0.55565	0.554963	0.338057	2	1.67613	12	0.000187609
2	1	0	0	1	273.45	0.564652	0.563602	0.337409	2	1.67644	12	0.000190164
2	1	0	1	1	274.35	0.573654	0.570257	0.340147	2	1.67674	12	0.000193971
2	1	0	0	1	275.251	0.582656	0.583182	0.351898	2	1.67706	12	0.000205221
2	1	0	1	1	276.151	0.591658	0.590559	0.374335	2	1.67738	12	0.000221067
2	1	0	0	1	277.051	0.60066	0.598541	0.414626	2	1.67774	12	0.000248171
2	1	0	1	1	277.951	0.609662	0.609826	0.47949	2	1.67814	12	0.000292406
2	1	0	0	1	278.851	0.618664	0.618288	0.575438	2	1.67862	12	0.000355786
2	1	0	1	1	279.752	0.627667	0.627688	0.71228	2	1.6792	12	0.000447089
2	1	0	0	1	280.652	0.636669	0.636885	0.895728	2	1.67992	12	0.000570476
2	1	0	1	1	281.582	0.645971	0.64646	1.14121	2	1.68087	11	0.000737746
2	1	0	0	1	282.482	0.654973	0.65437	1.43162	2	1.68202	11	0.000936807
2	1	0	1	1	283.382	0.663975	0.662222	1.78155	2	1.68347	11	0.00117979
2	1	0	1	1	284.283	0.672977	0.672526	2.19086	2	1.68526	11	0.00147341
2	1	0	1	1	285.183	0.681978	0.682527	2.65944	2	1.68744	11	0.00181514
2	1	0	1	1	286.083	0.690981	0.689934	3.18831	2	1.69007	11	0.00219972
2	1	0	0	1	286.983	0.699983	0.700449	3.77748	2	1.69321	11	0.00264593
2	1	0	1	1	287.884	0.708986	0.709913	4.42986	2	1.6969	11	0.00314481
2	1	0	0	1	288.784	0.717988	0.718026	5.13448	2	1.7012	11	0.00368669
2	1	0	1	1	289.684	0.72699	0.727144	5.8941	2	1.70617	11	0.00428586
2	1	0	0	1	290.584	0.735992	0.735599	6.711	2	1.71184	11	0.0049366
2	1	0	1	1	291.484	0.744994	0.745347	7.58194	2	1.71828	11	0.00565118
2	1	0	0	1	292.385	0.753996	0.753517	8.50763	2	1.72552	11	0.00641064
2	1	0	1	1	293.285	0.762998	0.762214	9.48118	2	1.73362	11	0.00722669
2	1	0	0	1	294.185	0.772	0.772325	10.5168	2	1.74262	11	0.00812236
2	1	0	1	1	295.115	0.781303	0.780775	11.6399	2	1.75293	10	0.00908812
2	1	0	0	1	296.015	0.790305	0.78997	12.7789	2	1.76393	10	0.0100949
2	1	0	1	1	296.916	0.799307	0.798367	13.9704	2	1.77597	10	0.0111535
2	1	0	0	1	297.816	0.808309	0.808935	15.2081	2	1.7891	10	0.0123024
2	1	0	1	1	298.716	0.817311	0.816616	16.4921	2	1.80338	10	0.0134677
2	1	0	1	1	299.616	0.826313	0.826511	17.8478	2	1.81885	10	0.0147514
2	1	0	0	1	300.517	0.835315	0.833448	19.2388	2	1.83554	10	0.0160345
2	1	0	1	1	301.417	0.844317	0.843154	20.6879	2	1.85351	10	0.0174431
2	1	0	0	1	302.317	0.853319	0.853454	22.1622	2	1.87281	10	0.0189144
2	1	0	1	1	303.217	0.862321	0.862644	23.7011	2	1.89346	10	0.0204456
2	1	0	0	1	304.117	0.871324	0.870951	25.2897	2	1.91551	10	0.0220261
2	1	0	1	1	305.018	0.880326	0.880583	26.9785	2	1.93903	10	0.0237568
2	1	0	0	1	305.918	0.889328	0.889131	28.7342	2	1.96411	10	0.0255485
2	1	0	1	1	306.818	0.89833	0.896156	30.3992	2	1.99072	10	0.0272424
2	1	0	0	1	307.718	0.907332	0.906487	32.1404	2	2.01886	10	0.0291348
2	1	0	1	1	308.618	0.916334	0.91724	33.8806	2	2.04862	10	0.0310767
2	1	0	0	1	309.519	0.925336	0.92736	35.5692	2	2.07991	10	0.0329855
2	1	0	1	1	310.419	0.934339	0.93539	37.3933	2	2.11276	10	0.0349773
2	1	0	0	1	311.319	0.943341	0.939072	39.2631	2	2.14722	10	0.0368708
2	1	0	1	1	312.219	0.952343	0.952799	41.1579	2	2.18335	10	0.0392152
2	1	0	0	1	313.119	0.961345	0.959535	42.9566	2	2.22124	10	0.0412183
2	1	0	1	1	314.02	0.970347	0.970274	45.0019	2	2.26087	10	0.0436642
2	1	0	1	1	314.92	0.979349	0.97945	46.8336	2	2.30222	10	0.0458712
2	1	0	1	1	315.82	0.98835	0.989412	49.2522	2	2.34547	10	0.0487307
2	1	0	1	1	316.72	0.997353	0.996804	51.1804	2	2.39066	10	0.0510168
2	1	0	0	1	317.441	0.995453	0.994313	50.3676	2	2.42754	10	0.0500811
2	1	0	1	1	318.341	0.986451	0.984323	48.3107	2	2.47175	10	0.0475534
2	1	0	0	1	319.241	0.977449	0.976368	45.746	2	2.51401	10	0.0446649
2	1	0	1	1	320.142	0.968446	0.968972	43.3415	2	2.55408	10	0.0419967
2	1	0	0	1	321.042	0.959444	0.958275	41.1003	2	2.59209	10	0.0393854
2	1	0	1	1	321.942	0.950442	0.949818	38.8798	2	2.62809	10	0.0369287
2	1	0	0	1	322.842	0.94144	0.940884	36.7854	2	2.66212	10	0.0346108
2	1	0	1	1	323.742	0.932438	0.931208	34.837	2	2.69434	10	0.0324405
2	1	0	0	1	324.643	0.923436	0.922126	32.997	2	2.72488	10	0.0304274
2	1	0	1	1	325.543	0.914434	0.915214	31.3125	2	2.7537	10	0.0286576
2	1	0	0	1	326.443	0.905432	0.905968	29.8141	2	2.78112	10	0.0270106
2	1	0	1	1	327.343	0.89643	0.895432	28.1004	2	2.80717	10	0.025162
2	1	0	0	1	328.243	0.887427	0.887215	26.3779	2	2.83167	10	0.0234028
2	1	0	1	1	329.144	0.878425	0.879346	24.7448	2	2.85466	10	0.0217592
2	1	0	0	1	330.044	0.869423	0.870485	23.4752	2	2.87622	10	0.0204348
2	1	0	1	1	330.944	0.860421	0.860147	22.0331	2	2.89673	10	0.0189517
2	1	0	1	1	331.844	0.85142	0.852058	20.6344	2	2.91591	10	0.0175817
2	1	0	0	1	332.745	0.842417	0.840039	19.3139	2	2.93386	10	0.0162244
2	1	0	1	1	333.645	0.833415	0.832962	17.9868	2	2.95064	10	0.0149823
2	1	0	0	1	334.545	0.824413	0.824444	16.7016	2	2.96624	10	0.0137695
2	1	0	1	1	335.445	0.81541	0.814164	15.5223	2	2.98073	10	0.0126377
2	1	0	0	1	336.345	0.806408	0.808376	14.3482	2	2.99417	10	0.0115987
2	1	0	1	1	337.246	0.797406	0.797943	13.2231	2	3.00657	10	0.0105513
2	1	0	0	1	338.146	0.788404	0.78814	12.1411	2	3.01797	10	0.00956892
2	1	0	1	1	339.046	0.779402	0.776395	11.1188	2	3.02843	10	0.00863261
2	1	0	0	1	339.946	0.7704	0.768749	10.1897	2	3.03802	10	0.00783333
2	1	0	1	1	340.846	0.761398	0.760934	9.30116	2	3.04679	10	0.00707757
2	1	0	0	1	341.747	0.752396	0.752017	8.42265	2	3.05476	10	0.00633398
2	1	0	1	1	342.647	0.743394	0.743095	7.60154	2	3.06197	10	0.00564866
2	1	0	0	1	343.547	0.734392	0.7347	6.83169	2	3.06845	10	0.00501925
2	1	0	1	1	344.447	0.725389	0.725125	6.10074	2	3.07427	10	0.0044238
2	1	0	0	1	345.347	0.716387	0.715061	5.40982	2	3.07944	10	0.00386835
2	1	0	1	1	346.248	0.707385	0.707751	4.77742	2	3.08402	10	0.00338122
2	1	0	1	1	347.178	0.698083	0.699536	4.14827	2	3.08817	11	0.00290186
2	1	0	0	1	348.078	0.689081	0.688602	3.59511	2	3.09164	11	0.0024756
2	1	0	1	1	348.978	0.680079	0.679624	3.09135	2	3.09465	11	0.00210095
2	1	0	0	1	349.879	0.671077	0.67088	2.62857	2	3.09722	11	0.00176345
2	1	0	1	1	350.779	0.662075	0.661806	2.20385	2	3.09938	11	0.00145852
2	1	0	0	1	351.679	0.653072	0.653181	1.81946	2	3.10119	11	0.00118843
2	1	0	1	1	352.579	0.64407	0.644071	1.481	2	3.10267	11	0.000953869
2	1	0	0	1	353.479	0.635068	0.635422	1.18212	2	3.10386	11	0.000751143
2	1	0	1	1	354.38	0.626066	0.626009	0.924492	2	3.1048	11	0.000578741
2	1	0	0	1	355.28	0.617064	0.61708	0.706643	2	3.10553	11	0.000436056
2	1	0	1	1	356.18	0.608062	0.608844	0.52586	2	3.10608	11	0.000320166
2	1	0	0	1	357.11	0.59876	0.59929	0.373167	2	3.10649	12	0.000223636
2	1	0	1	1	358.01	0.589758	0.590978	0.256497	2	3.10677	12	0.000151584
2	1	0	0	1	358.911	0.580756	0.582697	0.16602	2	3.10696	12	9.67391e-05
2	1	0	1	1	359.811	0.571753	0.572952	0.0973239	2	3.10707	12	5.5762e-05
2	1	0	1	1	360.711	0.562751	0.562909	0.0481674	2	3.10713	12	2.71138e-05
2	0	0	1	1	361.611	0.55375	0.553675	0.0110391	2	3.10716	12	6.1121e-06
2	0	0	1	1	362.512	0.544747	0.545761	-0.0158791	2	3.10715	12	-8.66622e-06
2	0	0	0	1	363.412	0.535745	0.535309	-0.0348104	2	3.10712	12	-1.86343e-05
2	0	0	1	1	364.312	0.526743	0.526469	-0.0485087	2	3.10709	12	-2.55383e-05
2	0	0	0	1	365.212	0.517741	0.518425	-0.0598781	2	3.10703	12	-3.10423e-05
2	0	0	1	1	366.112	0.508739	0.508017	-0.0679761	2	3.10697	12	-3.4533e-05
2	0	0	0	1	367.013	0.499736	0.498622	-0.0753941	2	3.10691	12	-3.75931e-05
2	0	0	1	1	367.913	0.490734	0.489709	-0.0807937	2	3.10684	12	-3.95654e-05
2	0	0	0	1	368.813	0.481732	0.481452	-0.0858674	2	3.10676	12	-4.13411e-05
2	0	0	1	1	369.713	0.47273	0.471909	-0.0901824	2	3.10668	12	-4.25579e-05
2	0	0	0	1	370.613	0.463728	0.464328	-0.094039	2	3.10659	12	-4.36649e-05
2	0	0	1	1	371.514	0.454726	0.453883	-0.096983	2	3.10651	12	-4.40189e-05
2	0	0	0	1	372.414	0.445724	0.445516	-0.100455	2	3.10642	12	-4.47545e-05
2	0	0	1	1	373.314	0.436722	0.437907	-0.104817	2	3.10632	12	-4.59002e-05
2	0	0	0	1	374.214	0.42772	0.426213	-0.108856	2	3.10622	12	-4.63958e-05
2	0	0	1	1	375.114	0.418717	0.418302	-0.113333	2	3.10612	12	-4.74076e-05
2	0	0	0	1	376.015	0.409715	0.409302	-0.117544	2	3.10602	12	-4.81111e-05
2	0	0	1	1	376.915	0.400713	0.400724	-0.122562	2	3.10591	12	-4.91136e-05
2	0	0	1	1	377.815	0.391712	0.391082	-0.128983	2	3.10579	12	-5.0443e-05
2	0	0	0	1	378.715	0.382709	0.383109	-0.134853	2	3.10567	12	-5.16636e-05
2	0	0	1	1	379.616	0.373707	0.375438	-0.14152	2	3.10555	12	-5.3132e-05
2	0	0	0	1	380.516	0.364705	0.365873	-0.148391	2	3.10542	12	-5.42923e-05
2	0	0	1	1	381.416	0.355703	0.353717	-0.156607	2	3.10528	12	-5.53947e-05
2	0	0	0	1	382.316	0.346701	0.34506	-0.164087	2	3.10513	12	-5.66198e-05
2	0	0	1	1	383.216	0.337699	0.336774	-0.172775	2	3.10498	12	-5.8186e-05
2	0	0	0	1	384.117	0.328696	0.32847	-0.182026	2	3.10482	12	-5.97899e-05
2	0	0	1	1	385.017	0.319694	0.316856	-0.189118	2	3.10465	12	-5.99232e-05
2	0	0	0	1	385.917	0.310692	0.310981	-0.192914	2	3.10448	12	-5.99925e-05
2	0	0	1	1	386.817	0.30169	0.302206	-0.192755	2	3.1043	12	-5.82518e-05
2	0	0	0	1	387.717	0.292688	0.291224	-0.188621	2	3.10413	12	-5.49311e-05
2	0	0	1	1	388.618	0.283686	0.284507	-0.180117	2	3.10396	12	-5.12446e-05
2	0	0	0	1	389.518	0.274684	0.273603	-0.169552	2	3.1038	12	-4.63898e-05
2	0	0	1	1	390.418	0.265682	0.265127	-0.158402	2	3.10366	12	-4.19966e-05
2	0	0	0	1	391.318	0.256679	0.255355	-0.146764	2	3.10352	12	-3.74769e-05
2	0	0	1	1	392.218	0.247677	0.24731	-0.136337	2	3.10339	12	-3.37174e-05
2	0	0	1	1	393.119	0.238676	0.238711	-0.126634	2	3.10327	12	-3.02291e-05
2	0	0	0	1	394.019	0.229673	0.230582	-0.118123	2	3.10316	12	-2.72371e-05
2	0	0	1	1	394.919	0.220671	0.220522	-0.110363	2	3.10306	12	-2.43374e-05
2	0	0	0	1	395.819	0.211669	0.211156	-0.103763	2	3.10296	12	-2.19102e-05
2	0	0	1	1	396.72	0.202667	0.200204	-0.0980397	2	3.10287	12	-1.9628e-05
2	0	0	0	1	397.62	0.193665	0.193284	-0.0928803	2	3.10278	12	-1.79523e-05
2	0	0	1	1	398.52	0.184663	0.183542	-0.0881831	2	3.1027	12	-1.61853e-05
2	0	0	0	1	399.42	0.17566	0.176632	-0.0842165	2	3.10262	12	-1.48754e-05
2	0	0	1	1	400.32	0.166658	0.168643	-0.0806346	2	3.10255	12	-1.35985e-05
2	0	0	0	1	401.221	0.157656	0.157629	-0.0774392	2	3.10248	12	-1.22067e-05
2	0	0	1	1	402.121	0.148654	0.147882	-0.0747	2	3.10241	12	-1.10468e-05
2	0	0	0	1	403.021	0.139652	0.137878	-0.0721362	2	3.10234	12	-9.94598e-06
2	0	0	1	1	403.921	0.13065	0.130234	-0.069702	2	3.10228	12	-9.0776e-06
2	0	0	0	1	404.821	0.121648	0.120713	-0.0674335	2	3.10221	12	-8.14007e-06
2	0	0	1	1	405.722	0.112646	0.11154	-0.0652864	2	3.10215	12	-7.28203e-06
2	0	0	0	1	406.622	0.103644	0.103316	-0.06341	2	3.1021	12	-6.55128e-06
2	0	0	1	1	407.522	0.0946406	0.0947009	-0.0616027	2	3.10204	12	-5.83383e-06
2	0	0	1	1	408.422	0.0856396	0.0853096	-0.0598009	2	3.10198	12	-5.10159e-06
2	0	0	0	1	409.323	0.0766373	0.0777386	-0.0582308	2	3.10193	12	-4.52678e-06
2	0	0	1	1	410.223	0.0676352	0.067487	-0.056719	2	3.10188	12	-3.82779e-06
2	0	0	0	1	411.123	0.058633	0.0579535	-0.0554739	2	3.10183	12	-3.2149e-06
2	0	0	1	1	412.023	0.0496309	0.0490118	-0.0541694	2	3.10178	12	-2.65494e-06
2	0	0	0	1	412.923	0.0406288	0.0387952	-0.0529232	2	3.10173	12	-2.05317e-06
2	0	0	1	1	413.824	0.0316267	0.0321319	-0.0518652	2	3.10168	12	-1.66653e-06
2	0	0	0	1	414.724	0.0226246	0.0225867	-0.0505434	2	3.10164	12	-1.14161e-06
2	0	0	1	1	415.624	0.0136225	0.0121877	-0.049774	2	3.10159	12	-6.0663e-07
2	0	0	0	1	416.524	0.00462037	0.00472784	-0.0486737	2	3.10155	12	-2.30121e-07
2	0	0	0	0	417.245	0.00251988	0.00209519	-0.0466854	3	3.10151	12	-9.7815e-08
2	0	0	1	0	418.145	0.011522	0.0129822	-0.0428682	3	3.10147	12	-5.56521e-07
2	0	0	0	0	419.045	0.0205241	0.021928	-0.0396105	3	3.10143	12	-8.68581e-07
2	0	0	1	0	419.946	0.0295262	0.0324151	-0.0371586	3	3.1014	12	-1.2045e-06
2	0	0	0	0	420.846	0.0385283	0.0378639	-0.0350201	3	3.10137	12	-1.326e-06
2	0	0	1	0	421.746	0.0475304	0.0475565	-0.0331169	3	3.10134	12	-1.57492e-06
2	0	0	0	0	422.646	0.0565325	0.0569416	-0.0314123	3	3.10131	12	-1.78867e-06
2	0	0	1	0	423.546	0.0655347	0.064691	-0.0297615	3	3.10128	12	-1.9253e-06
2	0	0	0	0	424.447	0.0745368	0.0731893	-0.028338	3	3.10126	12	-2.07404e-06
2	0	0	1	0	425.347	0.0835389	0.0815581	-0.0271049	3	3.10123	12	-2.21063e-06
2	0	0	0	0	426.247	0.092541	0.0924366	-0.0257965	3	3.10121	12	-2.38454e-06
2	0	0	1	0	427.147	0.101543	0.101475	-0.0245079	3	3.10119	12	-2.48694e-06
2	0	0	0	0	428.047	0.110545	0.110214	-0.023651	3	3.10116	12	-2.60666e-06
2	0	0	1	0	428.948	0.119548	0.118727	-0.0224263	3	3.10114	12	-2.6626e-06
2	0	0	1	0	429.848	0.128549	0.127958	-0.0214705	3	3.10112	12	-2.74733e-06
2	0	0	0	0	430.748	0.137552	0.137539	-0.0199954	3	3.10111	12	-2.75016e-06
2	0	0	1	0	431.648	0.146554	0.147068	-0.0195962	3	3.10109	12	-2.88196e-06
2	0	0	0	0	432.549	0.155556	0.154857	-0.0182997	3	3.10107	12	-2.83384e-06
2	0	0	1	0	433.449	0.164558	0.164618	-0.0177013	3	3.10106	12	-2.91396e-06
2	0	0	0	0	434.349	0.17356	0.173107	-0.0167232	3	3.10104	12	-2.8949e-06
2	0	0	1	0	435.249	0.182562	0.182956	-0.0158495	3	3.10103	12	-2.89977e-06
2	0	0	0	0	436.149	0.191564	0.191312	-0.0149313	3	3.10101	12	-2.85655e-06
2	0	0	1	0	437.05	0.200566	0.199006	-0.0137802	3	3.101	12	-2.74234e-06
2	0	0	0	0	437.95	0.209568	0.209351	-0.0130258	3	3.10099	12	-2.72695e-06
2	0	0	1	0	438.85	0.218571	0.21805	-0.0117458	3	3.10098	12	-2.56117e-06
2	0	0	0	0	439.75	0.227573	0.226627	-0.0106309	3	3.10097	12	-2.40925e-06
2	0	0	1	0	440.65	0.236575	0.237273	-0.0101516	3	3.10096	12	-2.40871e-06
2	1	0	0	0	441.551	0.245577	0.24547	-0.00874518	3	3.10095	12	-2.14668e-06
2	1	0	1	0	442.451	0.254579	0.253414	-0.00727994	3	3.10094	12	-1.84484e-06
2	0	0	0	0	443.351	0.263581	0.261985	-0.00585511	3	3.10094	12	-1.53395e-06
2	0	0	1	0	444.251	0.272584	0.272394	-0.00434826	3	3.10093	12	-1.18444e-06
2	1	0	1	0	445.151	0.281585	0.2779	-0.00235886	3	3.10093	12	-6.55529e-07
2	1	0	0	0	446.052	0.290587	0.291158	-0.000279351	3	3.10093	12	-8.13352e-08
2	1	0	1	0	446.952	0.29959	0.300056	0.0021668	3	3.10093	12	6.5016e-07
2	0	0	0	0	447.852	0.308592	0.309594	0.00550226	3	3.10094	12	1.70346e-06
2	1	0	1	0	448.752	0.317594	0.319357	0.00924522	3	3.10094	12	2.95253e-06
2	1	0	0	0	449.653	0.326596	0.326129	0.0141862	3	3.10095	12	4.62652e-06
2	1	0	1	0	450.553	0.335598	0.334674	0.020704	3	3.10097	12	6.92908e-06
2	1	0	0	0	451.453	0.3446	0.3445	0.0292323	3	3.10099	12	1.00705e-05
2	1	0	1	0	452.353	0.353602	0.353592	0.0402575	3	3.10103	12	1.42347e-05
2	1	0	0	0	453.253	0.362604	0.362834	0.0536667	3	3.10107	12	1.94721e-05
2	1	0	1	0	454.154	0.371606	0.372686	0.0699093	3	3.10112	12	2.60542e-05
2	1	0	0	0	455.054	0.380609	0.38223	0.0892302	3	3.1012	12	3.41064e-05
2	1	0	1	0	455.954	0.389611	0.389087	0.112524	3	3.10129	12	4.37816e-05
2	1	0	0	0	456.854	0.398613	0.397261	0.139266	3	3.1014	12	5.5325e-05
2	1	0	1	0	457.754	0.407615	0.405845	0.168662	3	3.10154	12	6.84505e-05
2	1	0	0	0	458.655	0.416617	0.417471	0.198126	3	3.10171	12	8.27119e-05
2	1	0	1	0	459.555	0.42562	0.425375	0.224111	3	3.1019	12	9.53311e-05
2	1	0	1	0	460.455	0.434621	0.435756	0.246742	3	3.10211	12	0.000107519
2	1	0	0	0	461.355	0.443623	0.442894	0.265858	3	3.10234	12	0.000117747
2	1	0	1	0	462.256	0.452625	0.453535	0.282023	3	3.10259	12	0.000127907
2	1	0	0	0	463.156	0.461628	0.460234	0.29483	3	3.10285	12	0.000135691
2	1	0	1	0	464.056	0.47063	0.471855	0.304932	3	3.10312	12	0.000143884
2	1	0	0	0	464.956	0.479632	0.479223	0.312427	3	3.1034	12	0.000149722
2	1	0	1	0	465.856	0.488634	0.48801	0.316336	3	3.10369	12	0.000154375
2	1	0	0	0	466.757	0.497636	0.497246	0.317823	3	3.10398	12	0.000158036
2	1	0	1	0	467.657	0.506638	0.50664	0.317674	3	3.10426	12	0.000160946
2	1	0	0	0	468.557	0.51564	0.515824	0.316154	3	3.10455	12	0.00016308
2	1	0	1	0	469.457	0.524642	0.52401	0.312718	3	3.10483	12	0.000163867
2	1	0	0	0	470.357	0.533644	0.533631	0.308042	3	3.10512	12	0.000164381
2	1	0	1	0	471.258	0.542647	0.542577	0.302774	3	3.10539	12	0.000164278
2	1	0	0	0	472.158	0.551649	0.551176	0.298527	3	3.10567	12	0.000164541
2	1	0	1	0	473.058	0.560651	0.559932	0.296014	3	3.10593	12	0.000165748
2	1	0	0	0	473.958	0.569653	0.569121	0.296007	3	3.1062	12	0.000168464
2	1	0	1	0	474.858	0.578655	0.578768	0.302461	3	3.10647	12	0.000175055
2	1	0	1	0	475.759	0.587658	0.585572	0.318418	3	3.10675	12	0.000186457
2	1	0	1	0	476.659	0.596659	0.595741	0.347767	3	3.10706	12	0.000207179
2	1	0	1	0	477.559	0.605661	0.606308	0.399434	3	3.10739	12	0.00024218
2	1	0	0	0	478.459	0.614663	0.616035	0.476633	3	3.10779	12	0.000293623
2	1	0	1	0	479.36	0.623666	0.623858	0.588338	3	3.10826	12	0.000367039
2	1	0	0	0	480.26	0.632668	0.632361	0.739221	3	3.10886	12	0.000467454
2	1	0	1	0	481.16	0.64167	0.640396	0.932932	3	3.10961	12	0.000597446
2	1	0	0	0	482.09	0.650972	0.650342	1.18087	3	3.11059	11	0.000767972
2	1	0	1	0	482.99	0.659974	0.660126	1.47161	3	3.11179	11	0.000971451
2	1	0	0	0	483.891	0.668976	0.665413	1.81048	3	3.11327	11	0.00120472
2	1	0	1	0	484.791	0.677978	0.67793	2.20261	3	3.11507	11	0.00149321
2	1	0	0	0	485.691	0.68698	0.685947	2.64491	3	3.11725	11	0.00181427
2	1	0	1	0	486.591	0.695983	0.695742	3.14168	3	3.11986	11	0.0021858
2	1	0	0	0	487.491	0.704985	0.7052	3.68823	3	3.12293	11	0.00260094
2	1	0	1	0	488.392	0.713987	0.713464	4.28637	3	3.12652	11	0.00305817
2	1	0	0	0	489.292	0.722989	0.723254	4.93502	3	3.13067	11	0.00356927
2	1	0	1	0	490.192	0.731991	0.731424	5.63796	3	3.13543	11	0.00412374
2	1	0	1	0	491.092	0.740994	0.741151	6.39242	3	3.14084	11	0.00473775
2	1	0	1	0	491.992	0.749994	0.749953	7.19791	3	3.14696	11	0.00539809
2	1	0	1	0	492.893	0.758997	0.759084	8.05918	3	3.15383	11	0.00611759
2	1	0	0	0	493.793	0.767999	0.767411	8.96626	3	3.16149	11	0.00688081
2	1	0	1	0	494.693	0.777002	0.77814	9.93202	3	3.17	11	0.0077285
2	1	0	0	0	495.608	0.786154	0.786116	10.9821	3	3.17956	11	0.0086332
2	1	0	1	0	496.524	0.795306	0.795003	12.0709	3	3.1901	10	0.0095964
2	1	0	0	0	497.424	0.804308	0.805011	13.1991	3	3.20147	10	0.0106254
2	1	0	1	0	498.324	0.81331	0.814017	14.3654	3	3.21389	10	0.0116937
2	1	0	0	0	499.224	0.822312	0.82272	15.6251	3	3.22739	10	0.0128551
2	1	0	1	0	500.124	0.831314	0.831408	16.9003	3	3.24204	10	0.014051
2	1	0	0	0	501.025	0.840316	0.839656	18.2456	3	3.25786	10	0.01532
2	1	0	1	0	501.925	0.849318	0.849248	19.6324	3	3.27492	10	0.0166728
2	1	0	0	0	502.825	0.858321	0.857991	21.0697	3	3.29325	10	0.0180777
2	1	0	1	0	503.725	0.867323	0.867546	22.5437	3	3.31289	10	0.0195577
2	1	0	0	0	504.625	0.876325	0.876688	24.0613	3	3.33387	10	0.0210942
2	1	0	1	0	505.526	0.885328	0.885955	25.6352	3	3.35625	10	0.0227117
2	1	0	1	0	506.426	0.894329	0.895259	27.2219	3	3.38004	10	0.0243707
2	1	0	0	0	507.326	0.903331	0.905969	28.7993	3	3.40526	10	0.0260913
2	1	0	1	0	508.226	0.912333	0.914065	30.4312	3	3.43193	10	0.0278161
2	1	0	0	0	509.127	0.921335	0.920494	32.0945	3	3.46009	10	0.0295428
2	1	0	1	0	510.027	0.930338	0.932328	33.8115	3	3.48977	10	0.0315234
2	1	0	0	0	510.927	0.93934	0.937067	35.4705	3	3.52096	10	0.0332382
2	1	0	1	0	511.827	0.948342	0.946958	37.2404	3	3.55369	10	0.0352651
2	1	0	0	0	512.727	0.957344	0.95732	39.1741	3	3.58806	10	0.0375022
2	1	0	1	0	513.628	0.966346	0.965829	40.9149	3	3.6241	10	0.0395168
2	1	0	0	0	514.528	0.975348	0.974636	42.6952	3	3.66176	10	0.0416123
2	1	0	1	0	515.428	0.98435	0.984425	44.5461	3	3.70104	10	0.0438523
2	1	0	0	0	516.328	0.993352	0.992301	46.3996	3	3.74197	10	0.0460423
2	1	0	1	0	517.049	0.999454	1.00041	47.6338	3	3.77592	10	0.0476533
2	1	0	0	0	517.949	0.990452	0.988709	45.1602	3	3.8177	10	0.0446503
2	1	0	1	0	518.849	0.98145	0.982559	42.9591	3	3.85732	10	0.0422099
2	1	0	0	0	519.749	0.972447	0.974423	40.6879	3	3.89497	10	0.0396473
2	1	0	1	0	520.65	0.963445	0.962665	38.5406	3	3.93061	10	0.0371017
2	1	0	0	0	521.55	0.954443	0.95561	36.984	3	3.96465	10	0.0353422
2	1	0	1	0	522.45	0.945441	0.94571	35.2945	3	3.99713	10	0.0333784
2	1	0	1	0	523.35	0.936439	0.937183	33.3281	3	4.02799	10	0.0312345
2	1	0	0	0	524.251	0.927437	0.927239	31.5218	3	4.05717	10	0.0292282
2	1	0	1	0	525.151	0.918435	0.919535	29.7749	3	4.08474	10	0.0273791
2	1	0	0	0	526.051	0.909433	0.90986	28.0359	3	4.11074	10	0.0255088
2	1	0	1	0	526.951	0.900431	0.900672	26.446	3	4.13526	10	0.0238192
2	1	0	0	0	527.851	0.891428	0.889406	24.9708	3	4.15839	10	0.0222092
2	1	0	1	0	528.752	0.882426	0.881018	23.4007	3	4.18013	10	0.0206164
2	1	0	0	0	529.652	0.873424	0.873019	22.0872	3	4.20065	10	0.0192826
2	1	0	1	0	530.552	0.864422	0.864348	20.7253	3	4.21991	10	0.0179139
2	1	0	0	0	531.452	0.85542	0.854198	19.3858	3	4.23795	10	0.0165594
2	1	0	1	0	532.352	0.846418	0.846217	18.0482	3	4.25479	10	0.0152727
2	1	0	0	0	533.253	0.837416	0.836892	16.8064	3	4.27046	10	0.0140651
2	1	0	1	0	534.153	0.828414	0.828508	15.5843	3	4.28503	10	0.0129117
2	1	0	0	0	535.053	0.819411	0.81989	14.4751	3	4.29855	10	0.011868
2	1	0	1	0	535.953	0.810409	0.810075	13.3543	3	4.31107	10	0.0108179
2	1	0	0	0	536.853	0.801407	0.80164	12.3032	3	4.32261	10	0.00986274
2	1	0	1	0	537.754	0.792405	0.790909	11.299	3	4.33322	10	0.00893651
2	1	0	1	0	538.654	0.783403	0.78297	10.3486	3	4.34296	10	0.00810263
2	1	0	0	0	539.554	0.774401	0.775311	9.4415	3	4.35186	10	0.0073201
2	1	0	1	0	540.454	0.765399	0.767158	8.64615	3	4.35998	10	0.00663296
2	1	0	0	0	541.355	0.756397	0.757405	7.83043	3	4.36739	10	0.0059308
2	1	0	1	0	542.255	0.747395	0.747042	7.06131	3	4.37409	10	0.00527509
2	1	0	0	0	543.155	0.738393	0.735654	6.34743	3	4.38011	10	0.00466951
2	1	0	1	0	544.055	0.72939	0.729459	5.69801	3	4.38552	10	0.00415646
2	1	0	0	0	544.955	0.720388	0.720703	5.054	3	4.39035	10	0.00364243
2	1	0	1	0	545.886	0.711086	0.710122	4.43755	3	4.39476	11	0.0031512
2	1	0	0	0	546.786	0.702084	0.702304	3.88672	3	4.3985	11	0.00272966
2	1	0	1	0	547.686	0.693082	0.694235	3.37949	3	4.40177	11	0.00234616
2	1	0	0	0	548.586	0.68408	0.682316	2.90951	3	4.40459	11	0.00198521
2	1	0	1	0	549.486	0.675078	0.673949	2.48134	3	4.40701	11	0.0016723
2	1	0	0	0	550.387	0.666076	0.664193	2.09151	3	4.40906	11	0.00138917
2	1	0	1	0	551.287	0.657073	0.656112	1.73981	3	4.41078	11	0.00114151
2	1	0	1	0	552.187	0.64807	0.646733	1.42761	3	4.4122	11	0.000923281
2	1	0	1	0	553.087	0.639069	0.6387	1.15392	3	4.41336	11	0.000737007
2	1	0	1	0	553.988	0.630067	0.629202	0.91344	3	4.41428	11	0.000574738
2	1	0	0	0	554.888	0.621065	0.621421	0.706994	3	4.41501	11	0.000439341
2	1	0	1	0	555.788	0.612063	0.611652	0.536675	3	4.41556	11	0.000328258
2	1	0	0	0	556.718	0.602761	0.602919	0.387986	3	4.41599	12	0.000233924
2	1	0	1	0	557.618	0.593759	0.594537	0.273333	3	4.41628	12	0.000162507
2	1	0	0	0	558.519	0.584756	0.583778	0.183705	3	4.41648	12	0.000107243
2	1	0	1	0	559.419	0.575754	0.575772	0.114135	3	4.41661	12	6.57161e-05
2	1	0	0	0	560.319	0.566752	0.5673	0.0618209	3	4.41669	12	3.5071e-05
2	1	0	1	0	561.219	0.55775	0.558912	0.0230685	3	4.41672	12	1.28933e-05
2	0	0	0	0	562.119	0.548748	0.54856	-0.00539523	3	4.41673	12	-2.95961e-06
2	0	0	1	0	563.02	0.539746	0.540928	-0.0266645	3	4.41671	12	-1.44235e-05
2	0	0	0	0	563.92	0.530744	0.531476	-0.0420353	3	4.41668	12	-2.23408e-05
2	0	0	1	0	564.82	0.521742	0.521799	-0.0529598	3	4.41663	12	-2.76344e-05
2	0	0	0	0	565.72	0.51274	0.512195	-0.0619099	3	4.41658	12	-3.17099e-05
2	0	0	1	0	566.62	0.503737	0.503033	-0.0690786	3	4.41652	12	-3.47488e-05
2	0	0	0	0	567.521	0.494735	0.494768	-0.0754137	3	4.41645	12	-3.73123e-05
2	0	0	1	0	568.421	0.485733	0.485914	-0.0801373	3	4.41638	12	-3.89398e-05
2	0	0	1	0	569.321	0.476731	0.476072	-0.0836364	3	4.41631	12	-3.98169e-05
2	0	0	0	0	570.221	0.467729	0.46522	-0.0875086	3	4.41623	12	-4.07107e-05
2	0	0	1	0	571.122	0.458727	0.459409	-0.0910987	3	4.41615	12	-4.18516e-05
2	0	0	0	0	572.022	0.449725	0.449395	-0.094593	3	4.41606	12	-4.25096e-05
2	0	0	1	0	572.922	0.440723	0.438989	-0.0977932	3	4.41597	12	-4.29301e-05
2	0	0	0	0	573.822	0.431721	0.431057	-0.101275	3	4.41588	12	-4.36551e-05
2	0	0	1	0	574.722	0.422718	0.423262	-0.104875	3	4.41579	12	-4.43894e-05
2	0	0	0	0	575.623	0.413716	0.413049	-0.109201	3	4.41569	12	-4.51053e-05
2	0	0	1	0	576.523	0.404714	0.405131	-0.113965	3	4.41559	12	-4.61709e-05
2	0	0	0	0	577.423	0.395712	0.3968	-0.119506	3	4.41548	12	-4.74197e-05
2	0	0	1	0	578.323	0.38671	0.387277	-0.125419	3	4.41537	12	-4.8572e-05
2	0	0	0	0	579.223	0.377708	0.376471	-0.131598	3	4.41525	12	-4.9543e-05
2	0	0	1	0	580.124	0.368706	0.367031	-0.137913	3	4.41513	12	-5.06183e-05
2	0	0	0	0	581.024	0.359704	0.359932	-0.144703	3	4.415	12	-5.20834e-05
2	0	0	1	0	581.924	0.350702	0.351228	-0.151999	3	4.41487	12	-5.33862e-05
2	0	0	0	0	582.824	0.341699	0.340994	-0.159178	3	4.41473	12	-5.42789e-05
2	0	0	1	0	583.724	0.332697	0.333944	-0.167301	3	4.41458	12	-5.58689e-05
2	0	0	1	0	584.625	0.323696	0.322719	-0.174299	3	4.41442	12	-5.62496e-05
2	0	0	0	0	585.525	0.314693	0.315334	-0.178788	3	4.41426	12	-5.63779e-05
2	0	0	1	0	586.425	0.305691	0.305388	-0.180579	3	4.4141	12	-5.51466e-05
2	0	0	0	0	587.325	0.296689	0.296568	-0.178049	3	4.41394	12	-5.28036e-05
2	0	0	1	0	588.226	0.287687	0.287107	-0.172212	3	4.41378	12	-4.94431e-05
2	0	0	0	0	589.126	0.278685	0.278542	-0.163669	3	4.41363	12	-4.55887e-05
2	0	0	1	0	590.026	0.269683	0.269655	-0.153565	3	4.41348	12	-4.14096e-05
2	0	0	0	0	590.926	0.26068	0.261383	-0.143467	3	4.41335	12	-3.74998e-05
2	0	0	1	0	591.826	0.251678	0.252685	-0.133144	3	4.41322	12	-3.36435e-05
2	0	0	0	0	592.727	0.242676	0.243226	-0.124226	3	4.41311	12	-3.0215e-05
2	0	0	1	0	593.627	0.233674	0.234198	-0.115821	3	4.413	12	-2.71252e-05
2	0	0	0	0	594.527	0.224672	0.224064	-0.108647	3	4.4129	12	-2.43439e-05
2	0	0	1	0	595.427	0.21567	0.215124	-0.102224	3	4.4128	12	-2.19908e-05
2	0	0	0	0	596.327	0.206668	0.206713	-0.0964028	3	4.41271	12	-1.99277e-05
2	0	0	1	0	597.228	0.197666	0.196794	-0.0913256	3	4.41263	12	-1.79723e-05
2	0	0	0	0	598.128	0.188664	0.18926	-0.0869924	3	4.41255	12	-1.64642e-05
2	0	0	1	0	599.028	0.179661	0.178748	-0.0829643	3	4.41247	12	-1.48297e-05
2	0	0	1	0	599.928	0.17066	0.170816	-0.079613	3	4.4124	12	-1.35992e-05
2	0	0	0	0	600.829	0.161657	0.162816	-0.0764793	3	4.41233	12	-1.2452e-05
2	0	0	1	0	601.729	0.152655	0.152681	-0.073446	3	4.41226	12	-1.12138e-05
2	0	0	0	0	602.629	0.143653	0.143119	-0.0711349	3	4.41219	12	-1.01807e-05
2	0	0	1	0	603.529	0.134651	0.13439	-0.0687123	3	4.41213	12	-9.23427e-06
2	0	0	0	0	604.429	0.125649	0.124035	-0.0664845	3	4.41207	12	-8.24639e-06
2	0	0	1	0	605.33	0.116647	0.115733	-0.0644425	3	4.41201	12	-7.4581e-06
2	0	0	0	0	606.23	0.107645	0.107815	-0.0626538	3	4.41195	12	-6.75499e-06
2	0	0	1	0	607.13	0.0986424	0.0949441	-0.060851	3	4.4119	12	-5.77745e-06
2	0	0	0	0	608.03	0.0896403	0.0878629	-0.059173	3	4.41184	12	-5.19911e-06
2	0	0	1	0	608.93	0.0806382	0.0800753	-0.0577615	3	4.41179	12	-4.62527e-06
2	0	0	0	0	609.831	0.0716361	0.0703933	-0.0562455	3	4.41174	12	-3.95931e-06
2	0	0	1	0	610.731	0.062634	0.0614633	-0.0548016	3	4.41169	12	-3.36829e-06
2	0	0	0	0	611.631	0.0536319	0.0524898	-0.0537651	3	4.41164	12	-2.82212e-06
2	0	0	1	0	612.531	0.0446297	0.0446704	-0.0524998	3	4.41159	12	-2.34519e-06
2	0	0	0	0	613.431	0.0356276	0.035227	-0.051287	3	4.41154	12	-1.80669e-06
2	0	0	1	0	614.332	0.0266255	0.0259926	-0.0501459	3	4.4115	12	-1.30342e-06
2	0	0	1	0	615.232	0.0176234	0.018507	-0.0492565	3	4.41145	12	-9.11588e-07
2	0	0	0	0	616.132	0.00862131	0.009222	-0.0482812	3	4.41141	12	-4.45249e-07
2	0	0	1	0	616.987	6.93002e-05	0.00172395	-0.052303	3	4.41137	12	-9.01677e-08
2	0	0	1	1	617.753	-0.00758316	-0.00954972	-0.0466101	3	4.41133	12	4.45114e-07
2	0	0	1	1	618.653	-0.0165842	-0.0174982	-0.0456462	3	4.41129	12	7.98727e-07
2	0	0	1	1	619.554	-0.0255867	-0.0261479	-0.0450269	3	4.41125	12	1.17736e-06
2	0	0	0	1	620.454	-0.0345889	-0.0352073	-0.0441138	3	4.41121	12	1.55313e-06
2	0	0	1	1	621.354	-0.043591	-0.0435242	-0.043347	3	4.41117	12	1.88665e-06
2	0	0	0	1	622.254	-0.0525931	-0.0518019	-0.0425519	3	4.41113	12	2.20427e-06
2	0	0	1	1	623.154	-0.0615952	-0.0629954	-0.0418794	3	4.41109	12	2.63821e-06
2	0	0	0	1	624.055	-0.0705973	-0.0715265	-0.0412795	3	4.41105	12	2.95258e-06
2	0	0	1	1	624.955	-0.0795994	-0.080902	-0.040583	3	4.41101	12	3.28325e-06
2	0	0	0	1	625.855	-0.0886015	-0.0883407	-0.0398093	3	4.41098	12	3.51678e-06
2	0	0	1	1	626.755	-0.0976036	-0.0961495	-0.0392383	3	4.41094	12	3.77274e-06
2	0	0	0	1	627.655	-0.106606	-0.106114	-0.0387328	3	4.41091	12	4.11008e-06
2	0	0	1	1	628.556	-0.115608	-0.115043	-0.0379813	3	4.41087	12	4.36947e-06
2	0	0	0	1	629.456	-0.12461	-0.12674	-0.0371204	3	4.41084	12	4.70463e-06
2	0	0	1	1	630.356	-0.133612	-0.13645	-0.0367675	3	4.4108	12	5.01691e-06
2	0	0	0	1	631.256	-0.142614	-0.143949	-0.0362734	3	4.41077	12	5.22151e-06
2	0	0	1	1	632.156	-0.151616	-0.153502	-0.0357178	3	4.41074	12	5.48276e-06
2	0	0	0	1	633.057	-0.160618	-0.159409	-0.0352442	3	4.41071	12	5.61825e-06
2	0	0	1	1	633.952	-0.169571	-0.168477	-0.0346289	3	4.41068	12	5.83419e-06
2	0	0	0	1	634	-0.170071	-0.170357	-0.0392366	3	4.41067	12	6.68422e-06