File: Data_1/2022_01_25 Co50Ni25Fe25Nx elec3 set2_C05_01_CV_C02.mpt
EC-Lab ASCII FILE
Nb header lines : 57

Cyclic Voltammetry

Run on channel : 2 (SN 12477)
User :
CE vs. WE compliance from -10 V to 10 V
Electrode connection : standard
Potential control : Ewe
Ewe ctrl range : min = -2.50 V, max = 2.50 V
Safety Limits :
	Do not start on E overload
Acquisition started on : 01/25/2023 13:03:00.629
Loaded Setting File :  C:\Users\grupogalan\Documents\EC-Lab\Data\Scott\2022_01_24 Co50Ni25Fe25Nx elec1 set1.1.mps
Saved on :
	File : 2022_01_25 Co50Ni25Fe25Nx elec3 set2_C05_01_CV_C02.mpr
	Directory : C:\Users\grupogalan\Documents\EC-Lab\Data\Scott\
	Host : 169.254.104.159
Device : VSP (SN 1176)
Address : USB
EC-Lab for windows v11.46 (software)
Internet server v11.40 (firmware)
Command interpretor v11.40 (firmware)
Electrode material :
Initial state :
Electrolyte :
Comments :
Electrode surface area : 0.000 cm²
Characteristic mass : 0.001 g
Equivalent Weight : 0.000 g/eq.
Density : 0.000 g/cm3
Volume (V) : 0.001 cm³
Cycle Definition : Charge/Discharge alternance
Ei (V)              0.000
vs.                 Eoc
dE/dt               10.000
dE/dt unit          mV/s
E1 (V)              1.000
vs.                 Ref
Step percent        50
N                   10
E range min (V)     -2.500
E range max (V)     2.500
I Range             Auto
I Range min         Unset
I Range max         Unset
I Range init        Unset
Bandwidth           5
E2 (V)              0.000
vs.                 Ref
nc cycles           2
Reverse Scan        1
Ef (V)              0.000
vs.                 Eoc

mode	ox/red	error	control changes	counter inc.	time/s	control/V	Ewe/V	<I>/mA	cycle number	(Q-Qo)/C	I Range	P/W
2	1	0	0	0	0.000000000000000E+000	-0.152166	-0.152172	0.0226807	1	0.0000000E+000	13	-3.45136e-06
2	0	0	1	0	0.8551	-0.143615	-0.143834	0.000519974	1	8.5055e-07	13	-7.47901e-08
2	0	0	0	0	1.7554	-0.134612	-0.134966	0.00137794	1	2.16655e-06	13	-1.85975e-07
2	0	0	1	0	2.6556	-0.12561	-0.125837	0.00184844	1	3.90806e-06	13	-2.32603e-07
2	0	0	0	0	3.5558	-0.116608	-0.116765	0.00253709	1	6.09739e-06	13	-2.96244e-07
2	0	0	1	0	4.456	-0.107606	-0.109568	0.00309452	1	8.76038e-06	13	-3.39062e-07
2	0	0	0	0	5.3562	-0.0986039	-0.0989317	0.00322938	1	1.18033e-05	13	-3.19488e-07
2	0	0	1	0	6.2564	-0.0896018	-0.0889453	0.0037418	1	1.5162e-05	13	-3.32816e-07
2	0	0	0	0	7.1566	-0.0805997	-0.0802253	0.00411333	1	1.87477e-05	13	-3.29993e-07
2	0	0	1	0	8.0568	-0.0715976	-0.072198	0.00402598	1	2.2516e-05	13	-2.90667e-07
2	0	0	0	0	8.957	-0.0625954	-0.0625372	0.00439101	1	2.64512e-05	13	-2.74601e-07
2	0	0	1	0	9.8572	-0.0535933	-0.053237	0.00463861	1	3.04954e-05	13	-2.46946e-07
2	0	0	0	0	10.7574	-0.0445912	-0.0440779	0.00462582	1	3.46261e-05	13	-2.03897e-07
2	0	0	1	0	11.6576	-0.0355891	-0.035569	0.00500685	1	3.88724e-05	13	-1.78089e-07
2	0	0	0	0	12.5578	-0.026587	-0.0263908	0.00525414	1	4.3188e-05	13	-1.38661e-07
2	0	0	1	0	13.458	-0.0175848	-0.0170589	0.00480817	1	4.76206e-05	13	-8.20218e-08
2	0	0	0	0	14.3582	-0.00858273	-0.00877059	0.00542278	1	5.21625e-05	13	-4.75609e-08
2	0	0	1	0	15.2584	0.000422796	0.000706716	0.0053016	1	5.68045e-05	13	3.74673e-09
2	0	0	1	0	16.1587	0.00942194	0.00887721	0.00534734	1	6.15294e-05	13	4.74695e-08
2	0	0	1	0	17.0589	0.0184229	0.0189647	0.00609005	1	6.63423e-05	13	1.15496e-07
2	0	0	1	0	17.9592	0.0274257	0.0269154	0.00646948	1	7.12894e-05	13	1.74129e-07
2	0	0	0	0	18.8594	0.0364278	0.0363683	0.0056722	1	7.62987e-05	13	2.06288e-07
2	0	0	1	0	19.7596	0.0454299	0.0451742	0.00644906	1	8.14557e-05	13	2.91331e-07
2	0	0	0	0	20.6598	0.0544321	0.054556	0.00642574	1	8.68065e-05	13	3.50563e-07
2	0	0	1	0	21.56	0.0634342	0.0636048	0.00709846	1	9.24403e-05	13	4.51496e-07
2	0	0	0	0	22.4602	0.0724363	0.071962	0.00727535	1	9.83955e-05	13	5.23549e-07
2	1	0	1	0	23.3604	0.0814384	0.0806756	0.00855477	1	0.000104817	13	6.90161e-07
2	1	0	0	0	24.2606	0.0904405	0.0906631	0.0089845	1	0.000111911	13	8.14562e-07
2	1	0	1	0	25.1608	0.0994426	0.100217	0.010913	1	0.00012002	13	1.09367e-06
2	1	0	0	0	26.061	0.108445	0.109127	0.0118106	1	0.000129595	13	1.28885e-06
2	1	0	1	0	26.9612	0.117447	0.117223	0.0155193	1	0.000141285	13	1.81922e-06
2	1	0	0	0	27.8614	0.126449	0.125537	0.0191665	1	0.000155819	13	2.4061e-06
2	1	0	1	0	28.7616	0.135451	0.134956	0.0235716	1	0.000173954	13	3.18112e-06
2	1	0	0	0	29.6618	0.144453	0.144368	0.0268387	1	0.000195951	13	3.87465e-06
2	1	0	1	0	30.562	0.153455	0.153178	0.0307202	1	0.000221683	13	4.70567e-06
2	1	0	1	0	31.4623	0.162458	0.162759	0.0351528	1	0.000250722	13	5.72143e-06
2	1	0	1	0	32.3625	0.171459	0.171757	0.0362323	1	0.000282587	13	6.22316e-06
2	1	0	1	0	33.2628	0.180462	0.180428	0.0386866	1	0.000316844	13	6.98013e-06
2	1	0	0	0	34.163	0.189464	0.189842	0.0405457	1	0.000353191	13	7.69728e-06
2	1	0	1	0	35.0632	0.198466	0.198312	0.0436442	1	0.000391611	13	8.65515e-06
2	1	0	0	0	35.9634	0.207468	0.206516	0.0461635	1	0.000431999	13	9.53352e-06
2	1	0	1	0	36.8636	0.21647	0.215646	0.0469804	1	0.000474394	13	1.01311e-05
2	1	0	0	0	37.7638	0.225472	0.226011	0.050282	1	0.000518993	13	1.13643e-05
2	1	0	1	0	38.664	0.234474	0.235941	0.0522919	1	0.000565992	13	1.23378e-05
2	1	0	0	0	39.5642	0.243476	0.243191	0.0556032	1	0.000615643	13	1.35222e-05
2	1	0	1	0	40.4944	0.252779	0.251856	0.0596782	1	0.000670266	12	1.50303e-05
2	1	0	0	0	41.3946	0.261781	0.259743	0.0631742	1	0.000726522	12	1.64091e-05
2	1	0	1	0	42.2948	0.270783	0.270711	0.066544	1	0.000786663	12	1.80142e-05
2	1	0	0	0	43.195	0.279785	0.280207	0.0721332	1	0.000851295	12	2.02122e-05
2	1	0	1	0	44.0952	0.288787	0.28793	0.0776265	1	0.000921115	12	2.2351e-05
2	1	0	0	0	44.9954	0.297789	0.297827	0.0856427	1	0.000996813	12	2.55067e-05
2	1	0	1	0	45.8956	0.306791	0.305972	0.0929798	1	0.00107918	12	2.84492e-05
2	1	0	1	0	46.7959	0.315794	0.31466	0.101471	1	0.0011692	12	3.19288e-05
2	1	0	1	0	47.6961	0.324795	0.32369	0.112358	1	0.00126797	12	3.63691e-05
2	1	0	1	0	48.5964	0.333798	0.332252	0.124436	1	0.00137674	12	4.13441e-05
2	1	0	0	0	49.4966	0.3428	0.341404	0.137829	1	0.00149704	12	4.70553e-05
2	1	0	1	0	50.3968	0.351802	0.352073	0.15351	1	0.00163065	12	5.40467e-05
2	1	0	0	0	51.297	0.360804	0.361357	0.172103	1	0.00177942	12	6.21907e-05
2	1	0	1	0	52.1972	0.369806	0.370032	0.192672	1	0.0019456	12	7.12947e-05
2	1	0	0	0	53.0974	0.378808	0.378975	0.215952	1	0.00213178	12	8.18402e-05
2	1	0	1	0	53.9976	0.38781	0.387506	0.243188	1	0.0023406	12	9.42366e-05
2	1	0	0	0	54.8978	0.396812	0.396193	0.271509	1	0.00257487	12	0.00010757
2	1	0	1	0	55.798	0.405815	0.405529	0.305569	1	0.00283754	12	0.000123917
2	1	0	0	0	56.6982	0.414817	0.414369	0.340385	1	0.00313139	12	0.000141045
2	1	0	1	0	57.5984	0.423819	0.423541	0.380404	1	0.00345927	12	0.000161116
2	1	0	0	0	58.4986	0.432821	0.432376	0.421803	1	0.00382399	12	0.000182377
2	1	0	1	0	59.3988	0.441823	0.441525	0.468668	1	0.00422824	12	0.000206928
2	1	0	0	0	60.299	0.450825	0.450958	0.515711	1	0.00467431	12	0.000232564
2	1	0	1	0	61.1992	0.459827	0.459789	0.563338	1	0.00516434	12	0.000259016
2	1	0	1	0	62.0995	0.46883	0.467987	0.61442	1	0.00569991	12	0.00028754
2	1	0	1	0	62.9997	0.477831	0.477735	0.66912	1	0.0062824	12	0.000319662
2	1	0	1	0	63.9	0.486833	0.4863	0.722383	1	0.00691328	12	0.000351295
2	1	0	0	0	64.8002	0.495836	0.496373	0.77861	1	0.00759391	12	0.000386481
2	1	0	1	0	65.7004	0.504838	0.503812	0.837883	1	0.00832553	12	0.000422135
2	1	0	0	0	66.6006	0.51384	0.513869	0.891601	1	0.00910914	12	0.000458166
2	1	0	1	0	67.5008	0.522842	0.52069	0.951021	1	0.0099456	12	0.000495187
2	1	0	0	0	68.431	0.532144	0.531917	1.02065	1	0.0108704	11	0.000542903
2	1	0	1	0	69.3312	0.541146	0.540437	1.077	1	0.0118178	11	0.000582049
2	1	0	0	0	70.2314	0.550148	0.549449	1.13578	1	0.0128209	11	0.000624053
2	1	0	1	0	71.1316	0.55915	0.558172	1.20373	1	0.0138813	11	0.00067189
2	1	0	0	0	72.0318	0.568153	0.566572	1.2762	1	0.0150009	11	0.000723057
2	1	0	1	0	72.932	0.577155	0.575053	1.34822	1	0.0161835	11	0.0007753
2	1	0	0	0	73.8322	0.586157	0.585761	1.42829	1	0.0174348	11	0.000836638
2	1	0	1	0	74.7324	0.595159	0.59506	1.51194	1	0.0187637	11	0.000899697
2	1	0	0	0	75.6326	0.604161	0.604502	1.63334	1	0.0201856	11	0.000987357
2	1	0	1	0	76.5328	0.613163	0.613011	1.78498	1	0.0217261	11	0.00109422
2	1	0	1	0	77.4331	0.622166	0.621801	1.98913	1	0.0234238	11	0.00123685
2	1	0	1	0	78.3333	0.631167	0.630537	2.27987	1	0.0253446	11	0.00143754
2	1	0	1	0	79.2336	0.640169	0.641437	2.69534	1	0.0275822	11	0.00172889
2	1	0	0	0	80.1338	0.649172	0.648342	3.26211	1	0.0302632	11	0.00211496
2	1	0	1	0	81.034	0.658174	0.657133	4.02396	1	0.0335434	11	0.00264428
2	1	0	0	0	81.9342	0.667176	0.667153	4.98407	1	0.0375971	11	0.00332514
2	1	0	1	0	82.8344	0.676178	0.676075	6.14674	1	0.0426066	11	0.00415566
2	1	0	0	0	83.7346	0.68518	0.685385	7.51054	1	0.0487495	11	0.00514761
2	1	0	1	0	84.6348	0.694182	0.693679	9.02489	1	0.0561914	11	0.00626038
2	1	0	0	0	85.535	0.703184	0.702382	10.7231	1	0.0650847	11	0.00753173
2	1	0	1	0	86.4652	0.712486	0.712412	12.6197	1	0.0759502	10	0.00899042
2	1	0	0	0	87.3654	0.721488	0.72155	14.5748	1	0.0881929	10	0.0105164
2	1	0	1	0	88.2656	0.730491	0.730726	16.6354	1	0.102239	10	0.0121559
2	1	0	0	0	89.1658	0.739493	0.739739	18.7818	1	0.118178	10	0.0138936
2	1	0	1	0	90.066	0.748495	0.748462	21.0174	1	0.136102	10	0.0157308
2	1	0	0	0	90.9662	0.757497	0.756814	23.3607	1	0.156091	10	0.0176797
2	1	0	1	0	91.8664	0.766499	0.76699	25.7776	1	0.17822	10	0.0197712
2	1	0	1	0	92.7667	0.775502	0.774448	28.2763	1	0.202561	10	0.0218985
2	1	0	1	0	93.6669	0.784503	0.784007	30.846	1	0.229177	10	0.0241835
2	1	0	1	0	94.5672	0.793505	0.793194	33.43	1	0.258116	10	0.0265165
2	1	0	0	0	95.4674	0.802508	0.80318	36.0631	1	0.289411	10	0.0289651
2	1	0	1	0	96.3676	0.81151	0.812763	38.8678	1	0.323155	10	0.0315903
2	1	0	0	0	97.2678	0.820512	0.820837	41.7119	1	0.359432	10	0.0342387
2	1	0	1	0	98.168	0.829514	0.828872	44.6207	1	0.398306	10	0.0369849
2	1	0	0	0	99.0682	0.838516	0.837351	47.5065	1	0.439769	10	0.0397796
2	1	0	1	0	99.9684	0.847518	0.847207	50.4692	1	0.483882	10	0.0427579
2	1	0	0	0	100.869	0.85652	0.857	53.5751	1	0.530715	10	0.0459139
2	1	0	1	0	101.769	0.865522	0.865999	56.7394	1	0.580403	10	0.0491362
2	1	0	0	0	102.669	0.874524	0.873796	59.9961	1	0.632962	10	0.0524243
2	1	0	1	0	103.569	0.883526	0.88228	63.3896	1	0.688495	10	0.0559273
2	1	0	0	0	104.469	0.892529	0.891481	66.6276	1	0.74707	10	0.0593972
2	1	0	1	0	105.37	0.901531	0.901004	69.9158	1	0.808578	10	0.0629945
2	1	0	0	0	106.27	0.910533	0.909631	73.2893	1	0.873082	10	0.0666662
2	1	0	1	0	107.17	0.919535	0.920403	76.9334	1	0.940659	10	0.0708097
2	1	0	1	0	108.07	0.928538	0.927866	80.5529	1	1.0115	10	0.0747423
2	1	0	1	0	108.97	0.937539	0.937627	83.9724	1	1.08553	10	0.0787347
2	1	0	1	0	109.871	0.946541	0.946248	87.6295	1	1.16286	10	0.0829193
2	1	0	0	0	110.771	0.955543	0.955557	91.3431	1	1.24356	10	0.0872836
2	1	0	1	0	111.671	0.964546	0.963538	95.1452	1	1.3275	10	0.091676
2	1	0	0	0	112.571	0.973548	0.972618	98.7256	1	1.41479	10	0.0960224
2	1	0	1	0	113.472	0.98255	0.982503	102.413	1	1.50542	10	0.100622
2	1	0	0	0	114.372	0.991552	0.991414	105.923	1	1.59915	10	0.105014
2	1	0	1	0	115.217	1	0.996986	109.244	1	1.69012	10	0.108915
2	1	0	0	0	116.073	0.991452	0.991053	105.609	1	1.78198	10	0.104664
2	1	0	1	0	116.973	0.98245	0.982281	101.422	1	1.87508	10	0.0996253
2	1	0	0	0	117.873	0.973448	0.973624	97.5912	1	1.96467	10	0.0950171
2	1	0	1	0	118.773	0.964446	0.964571	93.5959	1	2.05069	10	0.0902799
2	1	0	0	0	119.673	0.955443	0.954451	89.7801	1	2.13317	10	0.0856907
2	1	0	1	0	120.574	0.946441	0.946946	86.01	1	2.21228	10	0.0814468
2	1	0	1	0	121.474	0.937439	0.936999	82.1512	1	2.28799	10	0.0769756
2	1	0	0	0	122.374	0.928437	0.927981	78.4856	1	2.36028	10	0.0728332
2	1	0	1	0	123.274	0.919435	0.919888	74.8939	1	2.42926	10	0.068894
2	1	0	0	0	124.175	0.910433	0.911161	71.4626	1	2.49511	10	0.0651139
2	1	0	1	0	125.075	0.901431	0.901369	68.2124	1	2.55794	10	0.0614845
2	1	0	0	0	125.975	0.892429	0.891664	64.7875	1	2.61779	10	0.0577687
2	1	0	1	0	126.875	0.883427	0.882798	61.5522	1	2.67467	10	0.0543382
2	1	0	0	0	127.775	0.874424	0.874511	58.3672	1	2.72861	10	0.0510427
2	1	0	1	0	128.676	0.865422	0.866114	55.3333	1	2.77979	10	0.047925
2	1	0	0	0	129.576	0.85642	0.855908	52.2857	1	2.82823	10	0.0447517
2	1	0	1	0	130.476	0.847418	0.846806	49.2554	1	2.87393	10	0.0417098
2	1	0	0	0	131.376	0.838416	0.837853	46.2969	1	2.91693	10	0.03879
2	1	0	1	0	132.276	0.829414	0.829222	43.4662	1	2.9573	10	0.0360431
2	1	0	0	0	133.177	0.820412	0.820249	40.6587	1	2.99514	10	0.0333502
2	1	0	1	0	134.077	0.81141	0.811496	37.9254	1	3.0305	10	0.0307763
2	1	0	0	0	134.977	0.802408	0.80103	35.3182	1	3.06344	10	0.0282909
2	1	0	1	0	135.877	0.793405	0.79283	32.7154	1	3.09406	10	0.0259378
2	1	0	1	0	136.777	0.784403	0.784797	30.2988	1	3.1224	10	0.0237784
2	1	0	0	0	137.678	0.775401	0.775945	27.9415	1	3.14859	10	0.0216811
2	1	0	1	0	138.578	0.766399	0.766789	25.6429	1	3.17268	10	0.0196627
2	1	0	0	0	139.478	0.757397	0.756529	23.4097	1	3.19474	10	0.0177101
2	1	0	1	0	140.378	0.748395	0.747747	21.2735	1	3.21484	10	0.0159072
2	1	0	0	0	141.279	0.739393	0.73883	19.2043	1	3.23305	10	0.0141887
2	1	0	1	0	142.179	0.730391	0.728986	17.2564	1	3.24946	10	0.0125797
2	1	0	0	0	143.079	0.721388	0.722549	15.4047	1	3.26413	10	0.0111307
2	1	0	1	0	143.979	0.712386	0.713357	13.6225	1	3.27718	10	0.00971773
2	1	0	0	0	144.879	0.703384	0.70266	11.9364	1	3.28867	10	0.00838726
2	1	0	1	0	145.78	0.694382	0.693753	10.3755	1	3.29871	10	0.00719807
2	1	0	0	0	146.68	0.68538	0.684555	8.91508	1	3.30738	10	0.00610286
2	1	0	1	0	147.58	0.676378	0.67528	7.55138	1	3.31477	10	0.0050993
2	1	0	0	0	148.48	0.667376	0.666858	6.31655	1	3.321	10	0.00421225
2	1	0	1	0	149.38	0.658374	0.657915	5.18763	1	3.32617	10	0.00341302
2	1	0	0	0	150.311	0.649072	0.649579	4.15811	1	3.3305	11	0.00270102
2	1	0	1	0	151.211	0.640069	0.640642	3.2851	1	3.33383	11	0.00210457
2	1	0	1	0	152.111	0.631068	0.630237	2.5396	1	3.33644	11	0.00160055
2	1	0	0	0	153.011	0.622065	0.620271	1.90025	1	3.33842	11	0.00117867
2	1	0	1	0	153.912	0.613063	0.612974	1.38271	1	3.33989	11	0.000847565
2	1	0	0	0	154.812	0.604061	0.602351	0.976671	1	3.34094	11	0.000588299
2	1	0	1	0	155.712	0.595059	0.595007	0.665238	1	3.34167	11	0.000395821
2	1	0	0	0	156.612	0.586057	0.587187	0.423541	1	3.34214	11	0.000248698
2	1	0	1	0	157.542	0.576755	0.575714	0.240669	1	3.34244	12	0.000138556
2	1	0	0	0	158.443	0.567752	0.566933	0.117206	1	3.34259	12	6.64479e-05
2	0	0	1	0	159.343	0.55875	0.557685	0.0189376	1	3.34265	12	1.05612e-05
2	0	0	0	0	160.243	0.549748	0.549766	-0.0426042	1	3.34263	12	-2.34224e-05
2	0	0	1	0	161.143	0.540746	0.540096	-0.0878888	1	3.34258	12	-4.74684e-05
2	0	0	0	0	162.043	0.531744	0.531335	-0.109277	1	3.34248	12	-5.80628e-05
2	0	0	1	0	162.944	0.522742	0.522907	-0.144644	1	3.34237	12	-7.56352e-05
2	0	0	0	0	163.844	0.51374	0.514038	-0.155152	1	3.34223	12	-7.97541e-05
2	0	0	1	0	164.744	0.504738	0.503958	-0.166553	1	3.34208	12	-8.3936e-05
2	0	0	0	0	165.644	0.495736	0.495618	-0.176228	1	3.34192	12	-8.73416e-05
2	0	0	1	0	166.544	0.486732	0.486025	-0.187732	1	3.34176	12	-9.12423e-05
2	0	0	1	0	167.445	0.477732	0.478051	-0.193806	1	3.34159	12	-9.26493e-05
2	0	0	0	0	168.345	0.468729	0.468828	-0.198452	1	3.34141	12	-9.30399e-05
2	0	0	1	0	169.245	0.459727	0.459503	-0.19939	1	3.34123	12	-9.16205e-05
2	0	0	0	0	170.145	0.450725	0.449732	-0.204578	1	3.34105	12	-9.20052e-05
2	0	0	1	0	171.046	0.441723	0.440753	-0.200477	1	3.34087	12	-8.83605e-05
2	0	0	0	0	171.946	0.432721	0.43228	-0.200393	1	3.34068	12	-8.66259e-05
2	0	0	1	0	172.846	0.423719	0.423164	-0.199326	1	3.3405	12	-8.43476e-05
2	0	0	0	0	173.746	0.414717	0.4147	-0.201287	1	3.34031	12	-8.34736e-05
2	0	0	1	0	174.646	0.405714	0.405755	-0.20277	1	3.34013	12	-8.22748e-05
2	0	0	0	0	175.547	0.396712	0.39705	-0.202173	1	3.33995	12	-8.02726e-05
2	0	0	1	0	176.447	0.38771	0.38716	-0.194614	1	3.33976	12	-7.53468e-05
2	0	0	0	0	177.347	0.378708	0.378114	-0.194517	1	3.33958	12	-7.35496e-05
2	0	0	1	0	178.247	0.369706	0.36885	-0.192672	1	3.33941	12	-7.10672e-05
2	0	0	0	0	179.147	0.360704	0.359386	-0.190889	1	3.33923	12	-6.86029e-05
2	0	0	1	0	180.048	0.351702	0.351317	-0.190228	1	3.33906	12	-6.68305e-05
2	0	0	0	0	180.948	0.3427	0.341961	-0.187443	1	3.33889	12	-6.40983e-05
2	0	0	1	0	181.848	0.333698	0.334059	-0.182459	1	3.33872	12	-6.09522e-05
2	0	0	1	0	182.748	0.324695	0.325006	-0.179618	1	3.33855	12	-5.83771e-05
2	0	0	1	0	183.648	0.315694	0.315652	-0.178632	1	3.33839	12	-5.63854e-05
2	0	0	1	0	184.549	0.306691	0.306719	-0.174716	1	3.33823	12	-5.35888e-05
2	0	0	0	0	185.449	0.297689	0.296895	-0.169914	1	3.33807	12	-5.04467e-05
2	0	0	1	0	186.349	0.288687	0.288608	-0.16461	1	3.33792	12	-4.75077e-05
2	0	0	0	0	187.249	0.279685	0.279898	-0.160523	1	3.33777	12	-4.49302e-05
2	0	0	1	0	188.15	0.270683	0.271511	-0.154481	1	3.33763	12	-4.19433e-05
2	0	0	0	0	189.05	0.261681	0.261773	-0.147164	1	3.3375	12	-3.85236e-05
2	0	0	1	0	189.95	0.252679	0.2524	-0.139204	1	3.33737	12	-3.5135e-05
2	0	0	0	0	190.85	0.243676	0.242965	-0.132514	1	3.33724	12	-3.21963e-05
2	0	0	1	0	191.75	0.234674	0.234471	-0.12638	1	3.33712	12	-2.96323e-05
2	0	0	0	0	192.651	0.225672	0.225861	-0.119283	1	3.33701	12	-2.69414e-05
2	0	0	1	0	193.551	0.21667	0.216085	-0.113608	1	3.33691	12	-2.4549e-05
2	0	0	0	0	194.451	0.207668	0.206891	-0.107582	1	3.3368	12	-2.22578e-05
2	0	0	1	0	195.351	0.198666	0.198293	-0.101036	1	3.33671	12	-2.00346e-05
2	0	0	0	0	196.251	0.189664	0.189337	-0.095001	1	3.33662	12	-1.79872e-05
2	0	0	1	0	197.152	0.180662	0.180624	-0.0889894	1	3.33654	12	-1.60736e-05
2	0	0	1	0	198.052	0.171659	0.170605	-0.0829711	1	3.33646	12	-1.41553e-05
2	0	0	1	0	198.952	0.162658	0.162141	-0.077979	1	3.33639	12	-1.26436e-05
2	0	0	1	0	199.852	0.153655	0.153673	-0.0736915	1	3.33632	12	-1.13244e-05
2	0	0	0	0	200.753	0.144653	0.146343	-0.0694829	1	3.33625	12	-1.01684e-05
2	0	0	1	0	201.653	0.135651	0.135594	-0.0658775	1	3.33619	12	-8.93261e-06
2	0	0	0	0	202.553	0.126649	0.125097	-0.062618	1	3.33613	12	-7.83335e-06
2	0	0	1	0	203.453	0.117647	0.118451	-0.059771	1	3.33607	12	-7.07994e-06
2	0	0	0	0	204.353	0.108645	0.108362	-0.056722	1	3.33602	12	-6.1465e-06
2	0	0	1	0	205.254	0.0996427	0.10025	-0.0541593	1	3.33597	12	-5.42946e-06
2	0	0	0	0	206.154	0.0906405	0.0906387	-0.0520693	1	3.33592	12	-4.7195e-06
2	0	0	1	0	207.054	0.0816384	0.08063	-0.0496546	1	3.33587	12	-4.00365e-06
2	0	0	0	0	207.954	0.0726363	0.0729686	-0.0473871	1	3.33583	12	-3.45777e-06
2	0	0	1	0	208.854	0.0636342	0.0635019	-0.0460223	1	3.33579	12	-2.92251e-06
2	0	0	0	0	209.755	0.0546321	0.0540755	-0.0446201	1	3.33574	12	-2.41285e-06
2	0	0	1	0	210.655	0.04563	0.0449896	-0.0429013	1	3.3357	12	-1.93011e-06
2	0	0	0	0	211.555	0.0366279	0.0355017	-0.0419869	1	3.33567	12	-1.49061e-06
2	0	0	1	0	212.455	0.0276258	0.0280716	-0.0405688	1	3.33563	12	-1.13883e-06
2	0	0	1	0	213.355	0.0186228	0.0201831	-0.0394934	1	3.33559	12	-7.971e-07
2	0	0	1	0	214.256	0.00962176	0.00990712	-0.0383363	1	3.33556	12	-3.79802e-07
2	0	0	1	0	215.156	0.000619429	0.000562462	-0.0375061	1	3.33552	12	-2.10957e-08
2	0	0	0	1	215.877	0.00652081	0.00628278	-0.0335865	2	3.3355	12	-2.11017e-07
2	0	0	1	1	216.777	0.0155229	0.0166818	-0.0303647	2	3.33547	12	-5.06539e-07
2	0	0	0	1	217.677	0.024525	0.0232815	-0.0279314	2	3.33544	12	-6.50284e-07
2	0	0	1	1	218.577	0.0335272	0.0316228	-0.0261045	2	3.33542	12	-8.25495e-07
2	0	0	0	1	219.477	0.0425293	0.0425978	-0.0244258	2	3.33539	12	-1.04048e-06
2	0	0	1	1	220.378	0.0515314	0.0520591	-0.0229412	2	3.33537	12	-1.1943e-06
2	0	0	1	1	221.278	0.0605337	0.0600062	-0.0214927	2	3.33535	12	-1.2897e-06
2	0	0	1	1	222.178	0.0695347	0.0691094	-0.019733	2	3.33534	12	-1.36373e-06
2	0	0	1	1	223.078	0.0785377	0.0793423	-0.0185854	2	3.33532	12	-1.47461e-06
2	0	0	0	1	223.979	0.0875398	0.0875468	-0.0174274	2	3.3353	12	-1.52571e-06
2	0	0	1	1	224.879	0.0965419	0.0955423	-0.015528	2	3.33529	12	-1.48358e-06
2	0	0	0	1	225.779	0.105544	0.105054	-0.014464	2	3.33527	12	-1.5195e-06
2	0	0	1	1	226.679	0.114546	0.114876	-0.0133022	2	3.33526	12	-1.5281e-06
2	0	0	0	1	227.579	0.123548	0.12359	-0.0115841	2	3.33525	12	-1.43168e-06
2	0	0	1	1	228.48	0.13255	0.132197	-0.010029	2	3.33524	12	-1.3258e-06
2	0	0	0	1	229.38	0.141552	0.141056	-0.00818362	2	3.33523	12	-1.15435e-06
2	0	0	1	1	230.28	0.150555	0.150424	-0.00756654	2	3.33523	12	-1.13819e-06
2	1	0	0	1	231.18	0.159557	0.158605	-0.00471476	2	3.33522	12	-7.47783e-07
2	0	0	1	1	232.08	0.168559	0.168839	-0.0036407	2	3.33522	12	-6.14694e-07
2	0	0	0	1	232.981	0.177561	0.177221	-0.00207974	2	3.33521	12	-3.68573e-07
2	1	0	1	1	233.881	0.186563	0.185675	-0.000962062	2	3.33521	12	-1.78631e-07
2	1	0	0	1	234.781	0.195565	0.195159	0.00162939	2	3.33521	12	3.1799e-07
2	1	0	1	1	235.681	0.204567	0.204845	0.00303995	2	3.33521	12	6.22719e-07
2	1	0	1	1	236.581	0.21357	0.214129	0.00620838	2	3.33522	12	1.32939e-06
2	1	0	1	1	237.482	0.222571	0.221706	0.00957965	2	3.33523	12	2.12387e-06
2	1	0	1	1	238.382	0.231574	0.229331	0.0115043	2	3.33523	12	2.63829e-06
2	1	0	0	1	239.282	0.240576	0.239354	0.016599	2	3.33525	12	3.97304e-06
2	1	0	1	1	240.182	0.249578	0.24944	0.0203623	2	3.33526	12	5.07919e-06
2	1	0	0	1	241.083	0.25858	0.257836	0.0249357	2	3.33529	12	6.42931e-06
2	1	0	1	1	241.983	0.267582	0.26771	0.0315617	2	3.33531	12	8.44938e-06
2	1	0	0	1	242.883	0.276584	0.277274	0.0381739	2	3.33534	12	1.05846e-05
2	1	0	1	1	243.783	0.285586	0.285522	0.0437785	2	3.33538	12	1.24997e-05
2	1	0	0	1	244.683	0.294588	0.293642	0.0532292	2	3.33542	12	1.56303e-05
2	1	0	1	1	245.584	0.30359	0.302908	0.0618656	2	3.33548	12	1.87396e-05
2	1	0	0	1	246.484	0.312593	0.311636	0.0706016	2	3.33554	12	2.2002e-05
2	1	0	1	1	247.384	0.321595	0.321711	0.0815969	2	3.33561	12	2.62506e-05
2	1	0	0	1	248.284	0.330597	0.330828	0.092213	2	3.33569	12	3.05066e-05
2	1	0	1	1	249.184	0.339599	0.339168	0.104128	2	3.33578	12	3.53167e-05
2	1	0	0	1	250.085	0.348601	0.347867	0.116627	2	3.33588	12	4.05706e-05
2	1	0	1	1	250.985	0.357603	0.358521	0.13044	2	3.33599	12	4.67655e-05
2	1	0	0	1	251.885	0.366605	0.367486	0.144329	2	3.33612	12	5.3039e-05
2	1	0	1	1	252.785	0.375607	0.374374	0.160773	2	3.33625	12	6.01893e-05
2	1	0	1	1	253.685	0.384609	0.384912	0.176877	2	3.33641	12	6.80819e-05
2	1	0	0	1	254.586	0.393612	0.393533	0.193309	2	3.33658	12	7.60735e-05
2	1	0	1	1	255.486	0.402614	0.40267	0.210771	2	3.33676	12	8.48712e-05
2	1	0	0	1	256.386	0.411616	0.410675	0.228487	2	3.33696	12	9.38341e-05
2	1	0	1	1	257.286	0.420618	0.419753	0.240564	2	3.33717	12	0.000100977
2	1	0	0	1	258.187	0.42962	0.429078	0.2522	2	3.3374	12	0.000108214
2	1	0	1	1	259.087	0.438622	0.438664	0.262639	2	3.33763	12	0.00011521
2	1	0	0	1	259.987	0.447624	0.447896	0.274505	2	3.33788	12	0.00012295
2	1	0	1	1	260.887	0.456626	0.45609	0.28862	2	3.33813	12	0.000131637
2	1	0	0	1	261.787	0.465629	0.464932	0.302743	2	3.33841	12	0.000140755
2	1	0	1	1	262.688	0.474631	0.474081	0.319099	2	3.33869	12	0.000151279
2	1	0	0	1	263.588	0.483633	0.483681	0.336461	2	3.33899	12	0.00016274
2	1	0	1	1	264.488	0.492635	0.491042	0.356541	2	3.33931	12	0.000175077
2	1	0	0	1	265.388	0.501637	0.499939	0.380434	2	3.33964	12	0.000190194
2	1	0	1	1	266.288	0.510639	0.510314	0.400849	2	3.33999	12	0.000204559
2	1	0	0	1	267.189	0.519641	0.519527	0.418366	2	3.34036	12	0.000217352
2	1	0	1	1	268.089	0.528644	0.529479	0.440295	2	3.34075	12	0.000233127
2	1	0	1	1	268.989	0.537645	0.537812	0.457726	2	3.34116	12	0.000246171
2	1	0	0	1	269.889	0.546648	0.546759	0.479406	2	3.34159	12	0.00026212
2	1	0	1	1	270.79	0.55565	0.555515	0.505999	2	3.34204	12	0.00028109
2	1	0	0	1	271.69	0.564652	0.56481	0.543532	2	3.34252	12	0.000306993
2	1	0	1	1	272.59	0.573654	0.573874	0.591371	2	3.34303	12	0.000339372
2	1	0	0	1	273.49	0.582656	0.583421	0.647531	2	3.34358	12	0.000377783
2	1	0	1	1	274.39	0.591658	0.591024	0.726946	2	3.3442	12	0.000429643
2	1	0	0	1	275.291	0.60066	0.598348	0.856206	2	3.34492	12	0.000512309
2	1	0	1	1	276.221	0.609962	0.610018	1.06593	2	3.34582	11	0.000650234
2	1	0	0	1	277.121	0.618964	0.617584	1.3689	2	3.34691	11	0.000845408
2	1	0	1	1	278.021	0.627967	0.626985	1.78275	2	3.34832	11	0.00111775
2	1	0	0	1	278.921	0.636969	0.635964	2.33754	2	3.35016	11	0.00148659
2	1	0	1	1	279.822	0.645971	0.645106	3.0515	2	3.35258	11	0.00196854
2	1	0	0	1	280.722	0.654973	0.654349	3.91537	2	3.35571	11	0.00256202
2	1	0	1	1	281.622	0.663975	0.66367	4.96448	2	3.3597	11	0.00329477
2	1	0	0	1	282.522	0.672977	0.673647	6.17042	2	3.36471	11	0.00415668
2	1	0	1	1	283.422	0.681979	0.681949	7.51885	2	3.37086	11	0.00512747
2	1	0	1	1	284.323	0.690981	0.691581	9.00812	2	3.3783	11	0.00622984
2	1	0	0	1	285.223	0.699983	0.700009	10.6257	2	3.38714	11	0.00743812
2	1	0	1	1	286.153	0.709286	0.708646	12.4415	2	3.39788	10	0.00881662
2	1	0	0	1	287.053	0.718288	0.717235	14.3024	2	3.40992	10	0.0102582
2	1	0	1	1	287.954	0.72729	0.726048	16.3099	2	3.42372	10	0.0118418
2	1	0	0	1	288.854	0.736292	0.736446	18.4529	2	3.43938	10	0.0135895
2	1	0	1	1	289.754	0.745294	0.744537	20.7331	2	3.45702	10	0.0154365
2	1	0	0	1	290.654	0.754296	0.753835	23.1045	2	3.47675	10	0.017417
2	1	0	1	1	291.554	0.763298	0.762069	25.5207	2	3.49866	10	0.0194486
2	1	0	0	1	292.455	0.7723	0.770244	28.0742	2	3.5228	10	0.021624
2	1	0	1	1	293.355	0.781303	0.780949	30.6473	2	3.54925	10	0.023934
2	1	0	0	1	294.255	0.790305	0.789719	33.3713	2	3.57809	10	0.0263539
2	1	0	1	1	295.155	0.799307	0.799803	36.1475	2	3.60939	10	0.0289109
2	1	0	0	1	296.055	0.808309	0.80792	39.023	2	3.64323	10	0.0315275
2	1	0	1	1	296.956	0.817311	0.818011	41.9216	2	3.67968	10	0.0342923
2	1	0	1	1	297.856	0.826314	0.826887	45.0165	2	3.71887	10	0.0372235
2	1	0	1	1	298.756	0.835315	0.834771	48.0923	2	3.76078	10	0.0401461
2	1	0	1	1	299.656	0.844317	0.843495	51.2112	2	3.80549	10	0.0431964
2	1	0	0	1	300.557	0.853319	0.850838	54.4264	2	3.85304	10	0.046308
2	1	0	1	1	301.457	0.862321	0.862613	57.7798	2	3.90353	10	0.0498416
2	1	0	0	1	302.357	0.871324	0.873069	61.0825	2	3.95703	10	0.0533293
2	1	0	1	1	303.257	0.880326	0.879825	64.3641	2	4.01353	10	0.0566291
2	1	0	0	1	304.157	0.889328	0.889896	67.8147	2	4.07306	10	0.060348
2	1	0	1	1	305.058	0.89833	0.897042	71.148	2	4.13562	10	0.0638227
2	1	0	0	1	305.958	0.907332	0.907567	74.6253	2	4.20128	10	0.0677275
2	1	0	1	1	306.858	0.916334	0.916747	78.0715	2	4.27005	10	0.0715718
2	1	0	0	1	307.758	0.925336	0.926579	81.5341	2	4.34194	10	0.0755478
2	1	0	1	1	308.658	0.934339	0.935492	85.3697	2	4.41706	10	0.0798626
2	1	0	0	1	309.559	0.943341	0.943597	88.9901	2	4.49553	10	0.0839707
2	1	0	1	1	310.459	0.952343	0.952594	92.7058	2	4.57738	10	0.0883109
2	1	0	0	1	311.359	0.961345	0.961028	96.329	2	4.6625	10	0.0925749
2	1	0	1	1	312.259	0.970347	0.970149	100.011	2	4.75096	10	0.0970252
2	1	0	0	1	313.159	0.979349	0.978762	103.543	2	4.84257	10	0.101344
2	1	0	1	1	314.06	0.988351	0.988511	107.123	2	4.93743	10	0.105892
2	1	0	1	1	314.99	0.997653	0.997286	111.114	2	5.03897	9	0.110812
2	1	0	0	1	315.781	0.994453	0.995517	109.491	2	5.12667	9	0.109
2	1	0	1	1	316.681	0.98545	0.987238	105.196	2	5.22326	9	0.103854
2	1	0	0	1	317.581	0.976448	0.9757	101.113	2	5.31613	9	0.098656
2	1	0	1	1	318.481	0.967446	0.967241	97.0077	2	5.40534	9	0.0938298
2	1	0	0	1	319.381	0.958444	0.958403	93.1623	2	5.49097	9	0.089287
2	1	0	1	1	320.282	0.949442	0.948868	89.3528	2	5.57315	9	0.0847841
2	1	0	0	1	321.182	0.94044	0.939578	85.5491	2	5.65184	9	0.0803801
2	1	0	1	1	322.082	0.931438	0.93092	81.9609	2	5.72724	9	0.0762991
2	1	0	0	1	322.982	0.922436	0.92248	78.2492	2	5.79931	9	0.0721834
2	1	0	1	1	323.882	0.913434	0.913344	74.8342	2	5.86821	9	0.0683494
2	1	0	0	1	324.783	0.904431	0.904027	71.4021	2	5.93409	9	0.0645495
2	1	0	1	1	325.683	0.895428	0.892725	68.2256	2	5.99698	9	0.0609066
2	1	0	1	1	326.583	0.886427	0.88557	64.7776	2	6.05681	9	0.0573651
2	1	0	1	1	327.483	0.877426	0.876548	61.4717	2	6.11364	9	0.0538829
2	1	0	1	1	328.384	0.868423	0.867254	58.2207	2	6.16748	9	0.0504922
2	1	0	0	1	329.284	0.859421	0.861058	54.994	2	6.21844	9	0.047353
2	1	0	1	1	330.184	0.850419	0.84977	51.8609	2	6.26653	9	0.0440699
2	1	0	0	1	331.084	0.841417	0.84044	48.8818	2	6.31187	9	0.0410823
2	1	0	1	1	331.984	0.832415	0.832472	45.9758	2	6.35457	9	0.0382735
2	1	0	0	1	332.915	0.823112	0.82294	42.8762	2	6.39586	10	0.0352845
2	1	0	1	1	333.815	0.81411	0.814034	40.0462	2	6.43316	10	0.032599
2	1	0	0	1	334.715	0.805108	0.804291	37.3232	2	6.46795	10	0.0300187
2	1	0	1	1	335.615	0.796106	0.795207	34.655	2	6.50031	10	0.0275579
2	1	0	0	1	336.515	0.787104	0.786509	32.0248	2	6.53031	10	0.0251878
2	1	0	1	1	337.416	0.778102	0.778324	29.5002	2	6.558	10	0.0229607
2	1	0	0	1	338.316	0.7691	0.770295	27.1142	2	6.58345	10	0.020886
2	1	0	1	1	339.216	0.760098	0.759081	24.8206	2	6.60681	10	0.0188409
2	1	0	0	1	340.116	0.751096	0.751521	22.568	2	6.62811	10	0.0169603
2	1	0	1	1	341.016	0.742093	0.741307	20.3919	2	6.64742	10	0.0151167
2	1	0	1	1	341.917	0.733091	0.73265	18.3534	2	6.66484	10	0.0134466
2	1	0	0	1	342.817	0.724089	0.722471	16.3771	2	6.68044	10	0.0118319
2	1	0	1	1	343.717	0.715087	0.71504	14.5278	2	6.69433	10	0.010388
2	1	0	0	1	344.617	0.706085	0.705702	12.7701	2	6.70658	10	0.00901191
2	1	0	1	1	345.518	0.697083	0.696569	11.1256	2	6.71731	10	0.00774978
2	1	0	0	1	346.418	0.688081	0.688962	9.58701	2	6.7266	10	0.00660509
2	1	0	1	1	347.318	0.679079	0.679054	8.15998	2	6.73458	10	0.00554107
2	1	0	0	1	348.218	0.670076	0.669444	6.86235	2	6.74132	10	0.00459396
2	1	0	1	1	349.118	0.661074	0.659985	5.69027	2	6.74695	10	0.0037555
2	1	0	0	1	350.019	0.652072	0.651721	4.63154	2	6.75157	10	0.00301848
2	1	0	1	1	350.949	0.64277	0.642341	3.66344	2	6.75539	11	0.00235318
2	1	0	0	1	351.849	0.633768	0.632963	2.86243	2	6.7583	11	0.00181181
2	1	0	1	1	352.749	0.624766	0.624787	2.16515	2	6.76055	11	0.00135276
2	1	0	0	1	353.649	0.615764	0.615494	1.59947	2	6.76223	11	0.000984466
2	1	0	1	1	354.55	0.606762	0.60649	1.15337	2	6.76346	11	0.000699507
2	1	0	0	1	355.45	0.597759	0.59828	0.799811	2	6.76432	11	0.000478511
2	1	0	1	1	356.365	0.588607	0.588056	0.485184	2	6.7649	11	0.000285315
2	1	0	1	1	357.28	0.579455	0.579035	0.302211	2	6.76525	12	0.000174991
2	1	0	0	1	358.181	0.570453	0.570427	0.141963	2	6.76544	12	8.09797e-05
2	1	0	1	1	359.081	0.561451	0.56144	0.0369676	2	6.76552	12	2.07551e-05
2	1	0	0	1	359.981	0.552449	0.551888	-0.0359976	2	6.76551	12	-1.98666e-05
2	1	0	1	1	360.881	0.543447	0.542209	-0.0875193	2	6.76544	12	-4.74537e-05
2	0	0	0	1	361.781	0.534445	0.535986	-0.130665	2	6.76534	12	-7.00347e-05
2	0	0	1	1	362.682	0.525442	0.525329	-0.157112	2	6.76521	12	-8.25352e-05
2	0	0	0	1	363.582	0.51644	0.517933	-0.179311	2	6.76505	12	-9.2871e-05
2	0	0	1	1	364.482	0.507438	0.507355	-0.184744	2	6.76488	12	-9.37307e-05
2	0	0	0	1	365.382	0.498436	0.499497	-0.194563	2	6.7647	12	-9.71837e-05
2	0	0	1	1	366.282	0.489434	0.488853	-0.207138	2	6.76451	12	-0.00010126
2	0	0	0	1	367.183	0.480432	0.480868	-0.21518	2	6.76432	12	-0.000103473
2	0	0	1	1	368.083	0.47143	0.471533	-0.214256	2	6.76412	12	-0.000101029
2	0	0	0	1	368.983	0.462428	0.462497	-0.215247	2	6.76392	12	-9.95512e-05
2	0	0	1	1	369.883	0.453426	0.452724	-0.221334	2	6.76372	12	-0.000100203
2	0	0	0	1	370.783	0.444424	0.444427	-0.225501	2	6.76352	12	-0.000100219
2	0	0	1	1	371.684	0.435421	0.435058	-0.225067	2	6.76331	12	-9.79173e-05
2	0	0	1	1	372.584	0.42642	0.425648	-0.220459	2	6.76311	12	-9.38379e-05
2	0	0	0	1	373.484	0.417417	0.416167	-0.220519	2	6.7629	12	-9.17727e-05
2	0	0	1	1	374.384	0.408415	0.408583	-0.2251	2	6.7627	12	-9.19721e-05
2	0	0	0	1	375.285	0.399413	0.399736	-0.224697	2	6.76249	12	-8.98193e-05
2	0	0	1	1	376.185	0.390411	0.389478	-0.219796	2	6.76229	12	-8.56057e-05
2	0	0	0	1	377.085	0.381409	0.38065	-0.219361	2	6.76209	12	-8.34997e-05
2	0	0	1	1	377.985	0.372407	0.370417	-0.221097	2	6.76189	12	-8.18979e-05
2	0	0	0	1	378.885	0.363405	0.362231	-0.217209	2	6.76169	12	-7.86798e-05
2	0	0	1	1	379.786	0.354402	0.35454	-0.211821	2	6.76149	12	-7.50991e-05
2	0	0	0	1	380.686	0.3454	0.345451	-0.208307	2	6.7613	12	-7.19601e-05
2	0	0	1	1	381.586	0.336398	0.336005	-0.206052	2	6.76111	12	-6.92344e-05
2	0	0	0	1	382.486	0.327396	0.327483	-0.205103	2	6.76092	12	-6.71677e-05
2	0	0	1	1	383.386	0.318394	0.31871	-0.201413	2	6.76074	12	-6.41924e-05
2	0	0	0	1	384.287	0.309392	0.308883	-0.196046	2	6.76056	12	-6.05552e-05
2	0	0	1	1	385.187	0.30039	0.300292	-0.191381	2	6.76038	12	-5.74703e-05
2	0	0	0	1	386.087	0.291388	0.290179	-0.187128	2	6.76021	12	-5.43006e-05
2	0	0	1	1	386.987	0.282385	0.282509	-0.181528	2	6.76004	12	-5.12835e-05
2	0	0	1	1	387.887	0.273384	0.274019	-0.175947	2	6.75988	12	-4.8213e-05
2	0	0	0	1	388.788	0.264381	0.265695	-0.167681	2	6.75972	12	-4.45519e-05
2	0	0	1	1	389.688	0.255379	0.255151	-0.160003	2	6.75957	12	-4.0825e-05
2	0	0	0	1	390.588	0.246377	0.246665	-0.154777	2	6.75943	12	-3.8178e-05
2	0	0	1	1	391.488	0.237375	0.236827	-0.146763	2	6.75929	12	-3.47573e-05
2	0	0	0	1	392.389	0.228373	0.229252	-0.140122	2	6.75917	12	-3.21232e-05
2	0	0	1	1	393.289	0.219371	0.221184	-0.131861	2	6.75904	12	-2.91656e-05
2	0	0	0	1	394.189	0.210369	0.210761	-0.124638	2	6.75893	12	-2.62688e-05
2	0	0	1	1	395.089	0.201367	0.200757	-0.117219	2	6.75882	12	-2.35325e-05
2	0	0	0	1	395.989	0.192364	0.192966	-0.110677	2	6.75871	12	-2.13569e-05
2	0	0	1	1	396.89	0.183362	0.182658	-0.104028	2	6.75862	12	-1.90016e-05
2	0	0	0	1	397.79	0.17436	0.174523	-0.0972005	2	6.75853	12	-1.69637e-05
2	0	0	1	1	398.69	0.165358	0.165354	-0.0921717	2	6.75844	12	-1.52409e-05
2	0	0	0	1	399.59	0.156356	0.156147	-0.0868899	2	6.75836	12	-1.35676e-05
2	0	0	1	1	400.49	0.147354	0.146375	-0.081065	2	6.75828	12	-1.18659e-05
2	0	0	0	1	401.391	0.138352	0.138324	-0.0770123	2	6.75821	12	-1.06527e-05
2	0	0	1	1	402.291	0.12935	0.129699	-0.0729714	2	6.75814	12	-9.46431e-06
2	0	0	1	1	403.191	0.120347	0.121018	-0.0693473	2	6.75808	12	-8.39229e-06
2	0	0	0	1	404.091	0.111345	0.111023	-0.0659117	2	6.75802	12	-7.31772e-06
2	0	0	1	1	404.992	0.102343	0.102511	-0.0623398	2	6.75796	12	-6.39052e-06
2	0	0	0	1	405.892	0.0933412	0.0937137	-0.0594115	2	6.7579	12	-5.56767e-06
2	0	0	1	1	406.792	0.0843391	0.0840773	-0.0569144	2	6.75785	12	-4.78521e-06
2	0	0	0	1	407.692	0.075337	0.0745087	-0.0547725	2	6.7578	12	-4.08103e-06
2	0	0	1	1	408.592	0.0663348	0.0661653	-0.0528057	2	6.75775	12	-3.4939e-06
2	0	0	0	1	409.493	0.0573327	0.0574655	-0.0508073	2	6.7577	12	-2.91967e-06
2	0	0	1	1	410.393	0.0483306	0.0487021	-0.0492345	2	6.75766	12	-2.39782e-06
2	0	0	0	1	411.293	0.0393285	0.0396257	-0.0476318	2	6.75762	12	-1.88744e-06
2	0	0	1	1	412.193	0.0303264	0.0301452	-0.0461943	2	6.75757	12	-1.39254e-06
2	0	0	0	1	413.093	0.0213243	0.0212343	-0.0447608	2	6.75753	12	-9.50466e-07
2	0	0	1	1	413.994	0.0123222	0.0122057	-0.0434315	2	6.75749	12	-5.30112e-07
2	0	0	0	1	414.894	0.00332006	0.00293842	-0.0424514	2	6.75745	12	-1.2474e-07
2	0	0	0	0	415.685	0.00452034	0.00372545	-0.0389842	3	6.75742	12	-1.45234e-07
2	0	0	1	0	416.585	0.0135225	0.0127201	-0.0355337	3	6.75739	12	-4.51994e-07
2	0	0	0	0	417.485	0.0225246	0.0227013	-0.0331036	3	6.75736	12	-7.51493e-07
2	0	0	1	0	418.385	0.0315267	0.0317373	-0.0307209	3	6.75733	12	-9.74998e-07
2	0	0	0	0	419.285	0.0405288	0.041151	-0.0297352	3	6.7573	12	-1.22363e-06
2	0	0	1	0	420.186	0.0495309	0.0492441	-0.0276838	3	6.75727	12	-1.36326e-06
2	0	0	0	0	421.086	0.058533	0.0578771	-0.0267431	3	6.75725	12	-1.54781e-06
2	0	0	1	0	421.986	0.0675351	0.0666055	-0.025165	3	6.75723	12	-1.67613e-06
2	0	0	0	0	422.886	0.0765372	0.0766269	-0.0238559	3	6.7572	12	-1.82801e-06
2	0	0	1	0	423.786	0.0855393	0.0864702	-0.0229074	3	6.75718	12	-1.98081e-06
2	0	0	1	0	424.687	0.0945417	0.09468	-0.0215107	3	6.75716	12	-2.03663e-06
2	0	0	1	0	425.587	0.103543	0.103237	-0.0204787	3	6.75715	12	-2.11416e-06
2	0	0	1	0	426.487	0.112546	0.112136	-0.0192716	3	6.75713	12	-2.16104e-06
2	0	0	0	0	427.387	0.121548	0.120562	-0.0182384	3	6.75711	12	-2.19886e-06
2	0	0	1	0	428.288	0.13055	0.130067	-0.0170886	3	6.7571	12	-2.22266e-06
2	0	0	0	0	429.188	0.139552	0.139622	-0.0152409	3	6.75708	12	-2.12796e-06
2	0	0	1	0	430.088	0.148554	0.148457	-0.0139048	3	6.75707	12	-2.06426e-06
2	1	0	0	0	430.988	0.157556	0.158156	-0.0132043	3	6.75706	12	-2.08834e-06
2	1	0	1	0	431.888	0.166558	0.167793	-0.0114994	3	6.75705	12	-1.92951e-06
2	1	0	0	0	432.789	0.17556	0.175701	-0.0101684	3	6.75704	12	-1.7866e-06
2	1	0	1	0	433.689	0.184563	0.183592	-0.00829643	3	6.75704	12	-1.52315e-06
2	1	0	0	0	434.589	0.193565	0.192636	-0.00616669	3	6.75703	12	-1.18793e-06
2	1	0	1	0	435.489	0.202567	0.201739	-0.00454625	3	6.75703	12	-9.17156e-07
2	1	0	0	0	436.389	0.211569	0.211125	-0.00155237	3	6.75703	12	-3.27744e-07
2	1	0	1	0	437.29	0.220571	0.218581	0.00145646	3	6.75703	12	3.18355e-07
2	1	0	0	0	438.19	0.229573	0.229821	0.00420073	3	6.75703	12	9.65416e-07
2	1	0	1	0	439.09	0.238575	0.238315	0.00794797	3	6.75704	12	1.89412e-06
2	1	0	1	0	439.99	0.247578	0.245777	0.0126123	3	6.75705	12	3.09982e-06
2	1	0	1	0	440.89	0.256579	0.256012	0.0178264	3	6.75707	12	4.56379e-06
2	1	0	1	0	441.791	0.265582	0.265837	0.0236314	3	6.75709	12	6.28209e-06
2	1	0	0	0	442.691	0.274584	0.273463	0.0306496	3	6.75711	12	8.38153e-06
2	1	0	1	0	443.591	0.283586	0.284278	0.0384694	3	6.75714	12	1.0936e-05
2	1	0	0	0	444.491	0.292588	0.293931	0.0462016	3	6.75718	12	1.35801e-05
2	1	0	1	0	445.392	0.30159	0.302039	0.0554515	3	6.75723	12	1.67485e-05
2	1	0	0	0	446.292	0.310592	0.310383	0.0640803	3	6.75728	12	1.98894e-05
2	1	0	1	0	447.192	0.319594	0.318366	0.0738118	3	6.75735	12	2.34992e-05
2	1	0	0	0	448.092	0.328596	0.32931	0.0855798	3	6.75742	12	2.81822e-05
2	1	0	1	0	448.992	0.337599	0.337988	0.0969457	3	6.7575	12	3.27665e-05
2	1	0	0	0	449.893	0.346601	0.34758	0.107626	3	6.7576	12	3.74088e-05
2	1	0	1	0	450.793	0.355603	0.354136	0.120563	3	6.7577	12	4.26956e-05
2	1	0	0	0	451.693	0.364605	0.365088	0.135177	3	6.75782	12	4.93514e-05
2	1	0	1	0	452.593	0.373607	0.372348	0.151583	3	6.75795	12	5.64416e-05
2	1	0	0	0	453.493	0.382609	0.381769	0.168372	3	6.7581	12	6.42793e-05
2	1	0	1	0	454.394	0.391611	0.391833	0.185095	3	6.75826	12	7.25266e-05
2	1	0	0	0	455.294	0.400613	0.401894	0.201604	3	6.75843	12	8.10236e-05
2	1	0	1	0	456.194	0.409616	0.41	0.214475	3	6.75862	12	8.79348e-05
2	1	0	1	0	457.094	0.418617	0.419438	0.227363	3	6.75883	12	9.53648e-05
2	1	0	0	0	457.995	0.42762	0.427534	0.241655	3	6.75904	12	0.000103316
2	1	0	1	0	458.895	0.436622	0.436111	0.25329	3	6.75927	12	0.000110462
2	1	0	0	0	459.795	0.445624	0.445341	0.264661	3	6.7595	12	0.000117864
2	1	0	1	0	460.695	0.454626	0.453741	0.276792	3	6.75975	12	0.000125592
2	1	0	0	0	461.595	0.463628	0.463183	0.287125	3	6.76	12	0.000132991
2	1	0	1	0	462.496	0.47263	0.472028	0.302704	3	6.76027	12	0.000142885
2	1	0	0	0	463.396	0.481632	0.482386	0.324534	3	6.76056	12	0.000156551
2	1	0	1	0	464.296	0.490634	0.490571	0.336625	3	6.76086	12	0.000165138
2	1	0	0	0	465.196	0.499636	0.498876	0.354628	3	6.76118	12	0.000176915
2	1	0	1	0	466.096	0.508639	0.508447	0.368068	3	6.76151	12	0.000187143
2	1	0	0	0	466.997	0.517641	0.517749	0.390134	3	6.76185	12	0.000201992
2	1	0	1	0	467.897	0.526643	0.526259	0.40709	3	6.76221	12	0.000214235
2	1	0	0	0	468.797	0.535645	0.536052	0.423248	3	6.76259	12	0.000226883
2	1	0	1	0	469.697	0.544647	0.544394	0.436701	3	6.76298	12	0.000237737
2	1	0	0	0	470.597	0.553649	0.553626	0.461639	3	6.76339	12	0.000255575
2	1	0	1	0	471.498	0.562652	0.562046	0.495727	3	6.76383	12	0.000278621
2	1	0	1	0	472.398	0.571653	0.571788	0.532769	3	6.76429	12	0.000304631
2	1	0	0	0	473.298	0.580656	0.580861	0.577262	3	6.76479	12	0.000335309
2	1	0	1	0	474.198	0.589658	0.59057	0.657186	3	6.76535	12	0.000388115
2	1	0	0	0	475.099	0.59866	0.600144	0.78786	3	6.766	12	0.000472829
2	1	0	1	0	476.014	0.607812	0.608281	0.94117	3	6.7668	12	0.000572496
2	1	0	0	0	476.929	0.616964	0.617454	1.24469	3	6.76782	11	0.000768541
2	1	0	1	0	477.829	0.625966	0.626055	1.64444	3	6.76912	11	0.00102951
2	1	0	0	0	478.729	0.634968	0.636473	2.16241	3	6.77082	11	0.00137632
2	1	0	1	0	479.63	0.64397	0.644858	2.83986	3	6.77307	11	0.0018313
2	1	0	0	0	480.53	0.652972	0.6533	3.6635	3	6.77598	11	0.00239336
2	1	0	1	0	481.43	0.661975	0.660988	4.63896	3	6.77971	11	0.0030663
2	1	0	0	0	482.33	0.670977	0.670067	5.77062	3	6.78439	11	0.0038667
2	1	0	1	0	483.23	0.679979	0.679546	7.04265	3	6.79015	11	0.0047858
2	1	0	0	0	484.131	0.688981	0.689114	8.47027	3	6.79714	11	0.00583699
2	1	0	1	0	485.031	0.697983	0.69795	10.0236	3	6.80546	11	0.006996
2	1	0	1	0	485.961	0.707286	0.706614	11.7748	3	6.8156	10	0.00832026
2	1	0	1	0	486.861	0.716287	0.715483	13.5855	3	6.82701	10	0.00972022
2	1	0	1	0	487.762	0.725289	0.725337	15.5506	3	6.84012	10	0.0112794
2	1	0	0	0	488.662	0.734292	0.733898	17.6139	3	6.85504	10	0.0129268
2	1	0	1	0	489.562	0.743294	0.743423	19.7796	3	6.87188	10	0.0147046
2	1	0	0	0	490.462	0.752296	0.751537	22.0635	3	6.89072	10	0.0165815
2	1	0	1	0	491.362	0.761298	0.761959	24.4271	3	6.91164	10	0.0186124
2	1	0	0	0	492.263	0.7703	0.770382	26.8533	3	6.93472	10	0.0206873
2	1	0	1	0	493.163	0.779302	0.779663	29.3936	3	6.96006	10	0.0229171
2	1	0	0	0	494.063	0.788304	0.787573	32.0258	3	6.98771	10	0.0252227
2	1	0	1	0	494.963	0.797306	0.796767	34.7502	3	7.01778	10	0.0276878
2	1	0	0	0	495.863	0.806308	0.806177	37.5656	3	7.05031	10	0.0302845
2	1	0	1	0	496.764	0.81531	0.815244	40.4081	3	7.08542	10	0.0329425
2	1	0	0	0	497.664	0.824313	0.824186	43.3502	3	7.12313	10	0.0357286
2	1	0	1	0	498.564	0.833315	0.83264	46.3529	3	7.16353	10	0.0385953
2	1	0	0	0	499.464	0.842317	0.84357	49.5308	3	7.2067	10	0.0417827
2	1	0	1	0	500.364	0.851319	0.850861	52.8763	3	7.25284	10	0.0449904
2	1	0	1	0	501.265	0.860322	0.859864	56.0876	3	7.30187	10	0.0482277
2	1	0	1	0	502.165	0.869323	0.868186	59.3493	3	7.35383	10	0.0515262
2	1	0	1	0	503.065	0.878325	0.878586	62.5811	3	7.40876	10	0.0549829
2	1	0	0	0	503.965	0.887327	0.889064	66.0019	3	7.46668	10	0.0586799
2	1	0	1	0	504.866	0.89633	0.896244	69.4097	3	7.52766	10	0.0622081
2	1	0	0	0	505.766	0.905332	0.90515	72.9581	3	7.59176	10	0.066038
2	1	0	1	0	506.666	0.914334	0.912918	76.4594	3	7.65907	10	0.0698012
2	1	0	0	0	507.566	0.923336	0.922372	79.9933	3	7.72947	10	0.0737836
2	1	0	1	0	508.466	0.932338	0.933564	83.3491	3	7.80306	10	0.0778117
2	1	0	0	0	509.367	0.94134	0.941961	87.1726	3	7.87985	10	0.0821132
2	1	0	1	0	510.267	0.950342	0.95024	90.8064	3	7.96003	10	0.0862878
2	1	0	0	0	511.167	0.959344	0.9582	94.4258	3	8.04342	10	0.0904788
2	1	0	1	0	512.067	0.968346	0.96802	98.211	3	8.13017	10	0.0950702
2	1	0	0	0	512.967	0.977349	0.976077	101.911	3	8.22025	10	0.0994727
2	1	0	1	0	513.868	0.986351	0.985435	105.556	3	8.3137	10	0.104018
2	1	0	0	0	514.768	0.995353	0.996672	109.27	3	8.41034	10	0.108906
2	1	0	0	0	515.589	0.996453	0.997675	109.649	3	8.50093	9	0.109394
2	1	0	1	0	516.489	0.987451	0.98764	105.492	3	8.59773	9	0.104188
2	1	0	0	0	517.389	0.978449	0.978781	101.484	3	8.69085	9	0.0993308
2	1	0	1	0	518.289	0.969447	0.970473	97.5401	3	8.78044	9	0.09466
2	1	0	0	0	519.189	0.960445	0.960141	93.7744	3	8.86644	9	0.0900366
2	1	0	1	0	520.09	0.951442	0.949563	89.868	3	8.94904	9	0.0853354
2	1	0	0	0	520.99	0.94244	0.941626	86.1746	3	9.0283	9	0.0811442
2	1	0	1	0	521.89	0.933438	0.934624	82.5635	3	9.10425	9	0.0771659
2	1	0	0	0	522.79	0.924436	0.923991	79.0766	3	9.17696	9	0.0730661
2	1	0	1	0	523.69	0.915434	0.915459	75.5548	3	9.24655	9	0.0691673
2	1	0	0	0	524.591	0.906432	0.906892	71.9581	3	9.31296	9	0.0652583
2	1	0	1	0	525.491	0.89743	0.897222	68.5984	3	9.37622	9	0.061548
2	1	0	0	0	526.391	0.888428	0.888635	65.1781	3	9.43636	9	0.0579196
2	1	0	1	0	527.291	0.879426	0.878967	61.7253	3	9.49346	9	0.0542545
2	1	0	0	0	528.191	0.870423	0.869396	58.5327	3	9.54759	9	0.050888
2	1	0	1	0	529.092	0.861421	0.861639	55.3761	3	9.59885	9	0.0477142
2	1	0	1	0	529.992	0.852419	0.852691	52.2613	3	9.64728	9	0.0445627
2	1	0	0	0	530.892	0.843417	0.844441	49.1784	3	9.69291	9	0.0415283
2	1	0	1	0	531.792	0.834415	0.834023	46.2305	3	9.73588	9	0.0385573
2	1	0	0	0	532.723	0.825113	0.8233	43.1456	3	9.77742	10	0.0355218
2	1	0	1	0	533.623	0.816111	0.815169	40.2602	3	9.81496	10	0.0328188
2	1	0	0	0	534.523	0.807109	0.807098	37.4934	3	9.84996	10	0.0302608
2	1	0	1	0	535.423	0.798106	0.79994	34.7816	3	9.8825	10	0.0278232
2	1	0	0	0	536.323	0.789104	0.78886	32.1832	3	9.91263	10	0.0253881
2	1	0	1	0	537.224	0.780102	0.781236	29.6515	3	9.94044	10	0.0231649
2	1	0	0	0	538.124	0.7711	0.770737	27.1964	3	9.96602	10	0.0209613
2	1	0	1	0	539.024	0.762098	0.761275	24.8461	3	9.98943	10	0.0189147
2	1	0	0	0	539.924	0.753096	0.753281	22.6032	3	10.0108	10	0.0170266
2	1	0	1	0	540.824	0.744094	0.745005	20.4677	3	10.0301	10	0.0152485
2	1	0	0	0	541.725	0.735092	0.733787	18.389	3	10.0476	10	0.0134936
2	1	0	1	0	542.625	0.72609	0.726035	16.4323	3	10.0633	10	0.0119304
2	1	0	0	0	543.525	0.717088	0.717663	14.5515	3	10.0772	10	0.0104431
2	1	0	1	0	544.425	0.708085	0.707647	12.8138	3	10.0895	10	0.00906763
2	1	0	1	0	545.325	0.699084	0.698225	11.1762	3	10.1003	10	0.00780349
2	1	0	0	0	546.226	0.690081	0.689499	9.64896	3	10.1096	10	0.00665295
2	1	0	1	0	547.126	0.681079	0.681222	8.21998	3	10.1177	10	0.00559964
2	1	0	0	0	548.026	0.672077	0.671971	6.93219	3	10.1245	10	0.00465823
2	1	0	1	0	548.926	0.663075	0.662185	5.75805	3	10.1302	10	0.00381289
2	1	0	0	0	549.827	0.654073	0.654213	4.69797	3	10.1349	10	0.00307347
2	1	0	1	0	550.757	0.644771	0.644682	3.73192	3	10.1388	11	0.0024059
2	1	0	0	0	551.657	0.635768	0.636608	2.93766	3	10.1418	11	0.00187014
2	1	0	1	0	552.557	0.626766	0.62744	2.24865	3	10.1441	11	0.00141089
2	1	0	0	0	553.457	0.617764	0.617084	1.67167	3	10.1458	11	0.00103156
2	1	0	1	0	554.358	0.608762	0.608673	1.20379	3	10.1471	11	0.000732713
2	1	0	0	0	555.258	0.59976	0.599646	0.83586	3	10.148	11	0.00050122
2	1	0	1	0	556.158	0.590758	0.590247	0.554457	3	10.1486	11	0.000327267
2	1	0	0	0	557.088	0.581456	0.581268	0.320923	3	10.149	12	0.000186542
2	1	0	1	0	557.988	0.572454	0.572875	0.160748	3	10.1493	12	9.20886e-05
2	1	0	0	0	558.889	0.563451	0.56269	0.0540537	3	10.1494	12	3.04155e-05
2	1	0	1	0	559.789	0.554449	0.554625	-0.0318376	3	10.1494	12	-1.76579e-05
2	1	0	1	0	560.689	0.545447	0.546768	-0.0951418	3	10.1493	12	-5.20205e-05
2	0	0	0	0	561.589	0.536445	0.535402	-0.128757	3	10.1492	12	-6.89368e-05
2	0	0	1	0	562.49	0.527443	0.529614	-0.156755	3	10.1491	12	-8.30199e-05
2	0	0	0	0	563.39	0.518441	0.518434	-0.177852	3	10.1489	12	-9.22042e-05
2	0	0	1	0	564.29	0.509439	0.510686	-0.192221	3	10.1487	12	-9.81646e-05
2	0	0	0	0	565.19	0.500437	0.501602	-0.203398	3	10.1485	12	-0.000102025
2	0	0	1	0	566.09	0.491435	0.49148	-0.21158	3	10.1484	12	-0.000103987
2	0	0	0	0	566.991	0.482432	0.482752	-0.218096	3	10.1482	12	-0.000105286
2	0	0	1	0	567.891	0.47343	0.473046	-0.22485	3	10.148	12	-0.000106364
2	0	0	0	0	568.791	0.464428	0.464165	-0.230791	3	10.1477	12	-0.000107125
2	0	0	1	0	569.691	0.455426	0.455519	-0.227143	3	10.1475	12	-0.000103468
2	0	0	0	0	570.591	0.446424	0.446321	-0.231628	3	10.1473	12	-0.000103381
2	0	0	1	0	571.492	0.437422	0.436827	-0.233175	3	10.1471	12	-0.000101857
2	0	0	0	0	572.392	0.42842	0.428028	-0.229055	3	10.1469	12	-9.80419e-05
2	0	0	1	0	573.292	0.419418	0.418424	-0.232536	3	10.1467	12	-9.72984e-05
2	0	0	0	0	574.192	0.410416	0.410145	-0.234138	3	10.1465	12	-9.60306e-05
2	0	0	1	0	575.092	0.401413	0.401684	-0.230397	3	10.1463	12	-9.25471e-05
2	0	0	1	0	575.993	0.392412	0.392367	-0.233501	3	10.1461	12	-9.16182e-05
2	0	0	0	0	576.893	0.383409	0.383398	-0.230454	3	10.1458	12	-8.83557e-05
2	0	0	1	0	577.793	0.374407	0.374736	-0.228102	3	10.1456	12	-8.54781e-05
2	0	0	0	0	578.693	0.365405	0.364984	-0.228653	3	10.1454	12	-8.34547e-05
2	0	0	1	0	579.594	0.356403	0.355974	-0.226056	3	10.1452	12	-8.04701e-05
2	0	0	0	0	580.494	0.347401	0.347847	-0.219931	3	10.145	12	-7.65024e-05
2	0	0	1	0	581.394	0.338399	0.338388	-0.217274	3	10.1448	12	-7.3523e-05
2	0	0	0	0	582.294	0.329397	0.329562	-0.214883	3	10.1446	12	-7.08174e-05
2	0	0	1	0	583.194	0.320394	0.321261	-0.210757	3	10.1444	12	-6.77082e-05
2	0	0	0	0	584.095	0.311392	0.310619	-0.205233	3	10.1442	12	-6.37494e-05
2	0	0	1	0	584.995	0.30239	0.300514	-0.201358	3	10.1441	12	-6.05109e-05
2	0	0	0	0	585.895	0.293388	0.29468	-0.197333	3	10.1439	12	-5.81502e-05
2	0	0	1	0	586.795	0.284386	0.282862	-0.191312	3	10.1437	12	-5.4115e-05
2	0	0	0	0	587.695	0.275384	0.275909	-0.184633	3	10.1435	12	-5.09418e-05
2	0	0	1	0	588.596	0.266382	0.265748	-0.177468	3	10.1434	12	-4.71616e-05
2	0	0	0	0	589.496	0.25738	0.257032	-0.169265	3	10.1432	12	-4.35065e-05
2	0	0	1	0	590.396	0.248377	0.248206	-0.162068	3	10.143	12	-4.02262e-05
2	0	0	1	0	591.296	0.239376	0.23929	-0.155217	3	10.1429	12	-3.71419e-05
2	0	0	0	0	592.197	0.230373	0.229812	-0.147329	3	10.1428	12	-3.38581e-05
2	0	0	1	0	593.097	0.221371	0.220656	-0.138763	3	10.1426	12	-3.0619e-05
2	0	0	0	0	593.997	0.212369	0.212068	-0.130828	3	10.1425	12	-2.77443e-05
2	0	0	1	0	594.897	0.203367	0.204486	-0.124147	3	10.1424	12	-2.53864e-05
2	0	0	0	0	595.797	0.194365	0.195263	-0.117002	3	10.1423	12	-2.28462e-05
2	0	0	1	0	596.698	0.185363	0.18428	-0.110163	3	10.1422	12	-2.03007e-05
2	0	0	0	0	597.598	0.176361	0.176038	-0.103005	3	10.1421	12	-1.81328e-05
2	0	0	1	0	598.498	0.167359	0.166223	-0.0969452	3	10.142	12	-1.61145e-05
2	0	0	0	0	599.398	0.158356	0.157252	-0.0915116	3	10.1419	12	-1.43904e-05
2	0	0	1	0	600.298	0.149354	0.148418	-0.0853141	3	10.1418	12	-1.26621e-05
2	0	0	0	0	601.199	0.140352	0.139313	-0.0808769	3	10.1417	12	-1.12672e-05
2	0	0	1	0	602.099	0.13135	0.131157	-0.0769543	3	10.1417	12	-1.00931e-05
2	0	0	0	0	602.999	0.122348	0.12123	-0.0730535	3	10.1416	12	-8.85629e-06
2	0	0	1	0	603.899	0.113346	0.112793	-0.0702778	3	10.1415	12	-7.92687e-06
2	0	0	0	0	604.799	0.104344	0.10462	-0.066358	3	10.1415	12	-6.94236e-06
2	0	0	1	0	605.7	0.0953416	0.0946481	-0.0631051	3	10.1414	12	-5.97278e-06
2	0	0	1	0	606.6	0.0863393	0.0855768	-0.0605629	3	10.1413	12	-5.18278e-06
2	0	0	1	0	607.5	0.0773383	0.0777979	-0.0580545	3	10.1413	12	-4.51652e-06
2	0	0	1	0	608.4	0.0683353	0.0687035	-0.0561947	3	10.1412	12	-3.86078e-06
2	0	0	0	0	609.301	0.0593332	0.0590544	-0.0541974	3	10.1412	12	-3.2006e-06
2	0	0	1	0	610.201	0.0503311	0.0503228	-0.052206	3	10.1411	12	-2.62715e-06
2	0	0	0	0	611.101	0.041329	0.0417662	-0.0507615	3	10.1411	12	-2.12011e-06
2	0	0	1	0	612.001	0.0323269	0.0325933	-0.0490442	3	10.141	12	-1.59851e-06
2	0	0	0	0	612.901	0.0233248	0.0238489	-0.0477703	3	10.141	12	-1.13927e-06
2	0	0	1	0	613.802	0.0143226	0.0153963	-0.0463788	3	10.141	12	-7.1406e-07
2	0	0	0	0	614.702	0.00532053	0.00576092	-0.0453392	3	10.1409	12	-2.61195e-07
2	0	0	0	1	615.493	-0.00258132	-0.00304814	-0.0443002	3	10.1409	12	1.35033e-07
2	0	0	1	1	616.393	-0.0115834	-0.0111975	-0.0428899	3	10.1408	12	4.80258e-07
2	0	0	0	1	617.293	-0.0205856	-0.0202972	-0.0423453	3	10.1408	12	8.59488e-07
2	0	0	1	1	618.193	-0.0295877	-0.0297267	-0.0415042	3	10.1408	12	1.23378e-06
2	0	0	0	1	619.093	-0.0385898	-0.0390481	-0.040648	3	10.1407	12	1.58723e-06
2	0	0	1	1	619.994	-0.0475919	-0.0481192	-0.0397768	3	10.1407	12	1.91403e-06
2	0	0	0	1	620.894	-0.056594	-0.0569802	-0.0386998	3	10.1407	12	2.20513e-06
2	0	0	1	1	621.794	-0.0655961	-0.06547	-0.0382339	3	10.1406	12	2.50317e-06
2	0	0	0	1	622.694	-0.0745982	-0.0760451	-0.0373859	3	10.1406	12	2.84301e-06
2	0	0	1	1	623.594	-0.0836013	-0.0835686	-0.0368834	3	10.1406	12	3.08229e-06
2	0	0	1	1	624.495	-0.0926023	-0.0940838	-0.0363253	3	10.1405	12	3.41762e-06
2	0	0	0	1	625.395	-0.101605	-0.102989	-0.0358376	3	10.1405	12	3.69087e-06
2	0	0	1	1	626.295	-0.110607	-0.110339	-0.0352507	3	10.1405	12	3.88955e-06
2	0	0	0	1	627.195	-0.119609	-0.118224	-0.0345574	3	10.1404	12	4.0855e-06
2	0	0	1	1	628.096	-0.128611	-0.127992	-0.0338194	3	10.1404	12	4.3286e-06
2	0	0	0	1	628.996	-0.137613	-0.137701	-0.0332496	3	10.1404	12	4.57851e-06
2	0	0	1	1	629.896	-0.146615	-0.146675	-0.032781	3	10.1403	12	4.80814e-06
2	0	0	1	1	630.477	-0.152467	-0.152287	-0.0240654	3	10.1403	12	3.66484e-06