File: Data_1/2022_01_24 Co50Ni25Fe25Nx elec1 Tafel_C02.mpt
EC-Lab ASCII FILE
Nb header lines : 53

Chronopotentiometry

Run on channel : 2 (SN 12477)
User :
CE vs. WE compliance from -10 V to 10 V
Electrode connection : standard
Potential control : Ewe
Ewe ctrl range : min = -2.50 V, max = 2.50 V
Safety Limits :
	Do not start on E overload
Acquisition started on : 01/24/2023 17:35:55.780
Loaded Setting File :  C:\Users\grupogalan\Documents\EC-Lab\Data\Scott\2022_01_20 Ni60Co30Fe10Ox set1.1.mps
Saved on :
	File : 2022_01_24 Co50Ni25Fe25Nx elec1 Tafel_C02.mpr
	Directory : C:\Users\grupogalan\Documents\EC-Lab\Data\Scott\
	Host : 169.254.104.159
Device : VSP (SN 1176)
Address : USB
EC-Lab for windows v11.46 (software)
Internet server v11.40 (firmware)
Command interpretor v11.40 (firmware)
Electrode material :
Initial state :
Electrolyte :
Comments :
Electrode surface area : 0.000 cm²
Characteristic mass : 0.001 g
Equivalent Weight : 0.000 g/eq.
Density : 0.000 g/cm3
Volume (V) : 0.001 cm³
Cycle Definition : Charge/Discharge alternance
Ns                  0                   1                   2                   3                   4                   5                   6                   7                   8                   9                   10                  11                  12
Is                  10.000              18.000              32.000              56.000              100.000             178.000             316.000             562.000             1.000               1.778               3.162               5.623               10.000
unit Is             µA                  µA                  µA                  µA                  µA                  µA                  µA                  µA                  mA                  mA                  mA                  mA                  mA
vs.                 <None>              <None>              <None>              <None>              <None>              <None>              <None>              <None>              <None>              <None>              <None>              <None>              <None>
ts (h:m:s)          0:03:0.0000         0:03:0.0000         0:03:0.0000         0:03:0.0000         0:03:0.0000         0:03:0.0000         0:03:0.0000         0:03:0.0000         0:03:0.0000         0:03:0.0000         0:03:0.0000         0:03:0.0000         0:03:0.0000
EM (V)              pass                pass                pass                pass                pass                pass                pass                pass                pass                pass                pass                pass                pass
dQM                 500.000             900.000             1.600               2.800               5.000               8.900               15.800              28.100              50.000              88.900              158.100             281.150             500.000
unit dQM            nA.h                nA.h                µA.h                µA.h                µA.h                µA.h                µA.h                µA.h                µA.h                µA.h                µA.h                µA.h                µA.h
record              <Ewe>               <Ewe>               <Ewe>               <Ewe>               <Ewe>               <Ewe>               <Ewe>               <Ewe>               <Ewe>               <Ewe>               <Ewe>               <Ewe>               <Ewe>
dEs (mV)            0.00                0.00                0.00                0.00                0.00                0.00                0.00                0.00                0.00                0.00                0.00                0.00                0.00
dts (s)             1.0000              1.0000              1.0000              1.0000              1.0000              1.0000              1.0000              1.0000              1.0000              1.0000              1.0000              1.0000              1.0000
E range min (V)     -2.500              -2.500              -2.500              -2.500              -2.500              -2.500              -2.500              -2.500              -2.500              -2.500              -2.500              -2.500              -2.500
E range max (V)     2.500               2.500               2.500               2.500               2.500               2.500               2.500               2.500               2.500               2.500               2.500               2.500               2.500
I Range             10 mA               10 mA               10 mA               10 mA               10 mA               10 mA               10 mA               10 mA               10 mA               10 mA               10 mA               10 mA               10 mA
Bandwidth           5                   5                   5                   5                   5                   5                   5                   5                   5                   5                   5                   5                   5
goto Ns'            0                   0                   0                   0                   0                   0                   0                   0                   0                   0                   0                   0                   0
nc cycles           0                   0                   0                   0                   0                   0                   0                   0                   0                   0                   0                   0                   0

mode	ox/red	error	control changes	Ns changes	counter inc.	Ns	time/s	control/mA	<Ewe>/V	I/mA	dQ/C	(Q-Qo)/C	half cycle	Q charge/discharge/mA.h	I Range	Energy charge/W.h	Energy discharge/W.h	Capacitance charge/µF	Capacitance discharge/µF	Q discharge/mA.h	Q charge/mA.h	Capacity/mA.h	Efficiency/%	cycle number	P/W
1	1	0	0	0	0	0	1	0.01	-0.206066	0.0112622	1.10491e-05	1.10491e-05	0	3.0692e-06	11	6.32458e-10	0.000000000000000E+000	0.000000000000000E+000	0.000000000000000E+000	0.000000000000000E+000	3.0692e-06	3.0692e-06	0.0000000E+000	0.000000000000000E+000	-2.32075e-06
1	1	0	0	0	0	0	13	0.01	-0.0357471	0.0115803	0.000150307	0.000150307	0	4.1752e-05	11	3.74005e-09	0.000000000000000E+000	882.504	0.000000000000000E+000	0.000000000000000E+000	4.1752e-05	4.1752e-05	0.0000000E+000	0.000000000000000E+000	-4.13963e-07
1	1	0	0	0	0	0	25	0.01	0.0262662	0.0112622	0.000289192	0.000289192	0	8.03311e-05	11	4.32772e-09	0.000000000000000E+000	1244.73	0.000000000000000E+000	0.000000000000000E+000	8.03311e-05	8.03311e-05	0.0000000E+000	0.000000000000000E+000	2.95815e-07
1	1	0	0	0	0	0	37	0.01	0.0657908	0.0125983	0.000428163	0.000428163	0	0.000118934	11	6.221e-09	0.000000000000000E+000	1574.96	0.000000000000000E+000	0.000000000000000E+000	0.000118934	0.000118934	0.0000000E+000	0.000000000000000E+000	8.28853e-07
1	1	0	0	0	0	0	49	0.01	0.0946009	0.0108804	0.000567056	0.000567056	0	0.000157516	11	9.38219e-09	0.000000000000000E+000	1885.99	0.000000000000000E+000	0.000000000000000E+000	0.000157516	0.000157516	0.0000000E+000	0.000000000000000E+000	1.0293e-06
1	1	0	0	0	0	0	61	0.01	0.118652	0.0108804	0.0007063	0.0007063	0	0.000196194	11	1.35546e-08	0.000000000000000E+000	2175.12	0.000000000000000E+000	0.000000000000000E+000	0.000196194	0.000196194	0.0000000E+000	0.000000000000000E+000	1.29098e-06
1	1	0	0	0	0	0	73	0.01	0.140834	0.0121529	0.000845433	0.000845433	0	0.000234843	11	1.86071e-08	0.000000000000000E+000	2437.11	0.000000000000000E+000	0.000000000000000E+000	0.000234843	0.000234843	0.0000000E+000	0.000000000000000E+000	1.71155e-06
1	1	0	0	0	0	0	85	0.01	0.162057	0.0112622	0.000984666	0.000984666	0	0.000273518	11	2.44958e-08	0.000000000000000E+000	2674.83	0.000000000000000E+000	0.000000000000000E+000	0.000273518	0.000273518	0.0000000E+000	0.000000000000000E+000	1.82511e-06
1	1	0	0	0	0	0	97	0.01	0.182845	0.0117712	0.00112398	0.00112398	0	0.000312217	11	3.12026e-08	0.000000000000000E+000	2890.07	0.000000000000000E+000	0.000000000000000E+000	0.000312217	0.000312217	0.0000000E+000	0.000000000000000E+000	2.1523e-06
1	1	0	0	0	0	0	109	0.01	0.202693	0.0113894	0.00126297	0.00126297	0	0.000350825	11	3.86711e-08	0.000000000000000E+000	3089.76	0.000000000000000E+000	0.000000000000000E+000	0.000350825	0.000350825	0.0000000E+000	0.000000000000000E+000	2.30856e-06
1	1	0	0	0	0	0	121	0.01	0.222761	0.0120893	0.0014022	0.0014022	0	0.000389499	11	4.69378e-08	0.000000000000000E+000	3269.84	0.000000000000000E+000	0.000000000000000E+000	0.000389499	0.000389499	0.0000000E+000	0.000000000000000E+000	2.69303e-06
1	1	0	0	0	0	0	133	0.01	0.242428	0.0120893	0.00154132	0.00154132	0	0.000428144	11	5.59561e-08	0.000000000000000E+000	3436.65	0.000000000000000E+000	0.000000000000000E+000	0.000428144	0.000428144	0.0000000E+000	0.000000000000000E+000	2.93079e-06
1	1	0	0	0	0	0	145	0.01	0.261449	0.0117076	0.00168044	0.00168044	0	0.000466789	11	6.57228e-08	0.000000000000000E+000	3594.41	0.000000000000000E+000	0.000000000000000E+000	0.000466789	0.000466789	0.0000000E+000	0.000000000000000E+000	3.06093e-06
1	1	0	0	0	0	0	157	0.01	0.278983	0.0111986	0.00181965	0.00181965	0	0.000505458	11	7.62086e-08	0.000000000000000E+000	3751.48	0.000000000000000E+000	0.000000000000000E+000	0.000505458	0.000505458	0.0000000E+000	0.000000000000000E+000	3.1242e-06
1	1	0	0	0	0	0	169	0.01	0.295099	0.0123438	0.00195897	0.00195897	0	0.000544158	11	8.73544e-08	0.000000000000000E+000	3908.83	0.000000000000000E+000	0.000000000000000E+000	0.000544158	0.000544158	0.0000000E+000	0.000000000000000E+000	3.64265e-06
1	1	0	0	0	0	0	180.05	0.01	0.308858	0.0110713	0.00208706	0.00208706	0	0.000579738	11	9.81158e-08	0.000000000000000E+000	4053.14	0.000000000000000E+000	0.000000000000000E+000	0.000579738	0.000579738	0.0000000E+000	0.000000000000000E+000	3.41946e-06
1	1	0	1	0	0	1	192.05	0.018	0.377993	0.0189608	0.000227804	0.00231486	0	0.000643017	11	1.21343e-07	0.000000000000000E+000	3963.4	0.000000000000000E+000	0.000000000000000E+000	0.000643017	0.000643017	0.0000000E+000	0.000000000000000E+000	7.16705e-06
1	1	0	1	0	0	1	204.05	0.018	0.391465	0.0186427	0.000455353	0.00254241	0	0.000706225	11	1.45727e-07	0.000000000000000E+000	4254.86	0.000000000000000E+000	0.000000000000000E+000	0.000706225	0.000706225	0.0000000E+000	0.000000000000000E+000	7.29796e-06
1	1	0	1	0	0	1	216.05	0.018	0.400636	0.0192153	0.000682913	0.00276997	0	0.000769436	11	1.70806e-07	0.000000000000000E+000	4565.62	0.000000000000000E+000	0.000000000000000E+000	0.000769436	0.000769436	0.0000000E+000	0.000000000000000E+000	7.69835e-06
1	1	0	1	0	0	1	228.05	0.018	0.406591	0.0181337	0.000910636	0.00299769	0	0.000832693	11	1.96365e-07	0.000000000000000E+000	4892.94	0.000000000000000E+000	0.000000000000000E+000	0.000832693	0.000832693	0.0000000E+000	0.000000000000000E+000	7.373e-06
1	1	0	1	0	0	1	240.05	0.018	0.410795	0.0187063	0.00113828	0.00322534	0	0.000895928	11	2.2223e-07	0.000000000000000E+000	5228.64	0.000000000000000E+000	0.000000000000000E+000	0.000895928	0.000895928	0.0000000E+000	0.000000000000000E+000	7.68447e-06
1	1	0	1	0	0	1	252.05	0.018	0.413708	0.01877	0.00136589	0.00345295	0	0.000959153	11	2.48295e-07	0.000000000000000E+000	5571.3	0.000000000000000E+000	0.000000000000000E+000	0.000959153	0.000959153	0.0000000E+000	0.000000000000000E+000	7.76528e-06
1	1	0	1	0	0	1	264.05	0.018	0.415549	0.0187063	0.00159354	0.00368059	0	0.00102239	11	2.74521e-07	0.000000000000000E+000	5921.02	0.000000000000000E+000	0.000000000000000E+000	0.00102239	0.00102239	0.0000000E+000	0.000000000000000E+000	7.7734e-06
1	1	0	1	0	0	1	276.05	0.018	0.417026	0.0181973	0.00182118	0.00390824	0	0.00108562	11	3.00843e-07	0.000000000000000E+000	6272.33	0.000000000000000E+000	0.000000000000000E+000	0.00108562	0.00108562	0.0000000E+000	0.000000000000000E+000	7.58876e-06
1	1	0	1	0	0	1	288.05	0.018	0.418244	0.019279	0.0020488	0.00413586	0	0.00114885	11	3.27248e-07	0.000000000000000E+000	6624.68	0.000000000000000E+000	0.000000000000000E+000	0.00114885	0.00114885	0.0000000E+000	0.000000000000000E+000	8.06331e-06
1	1	0	1	0	0	1	300.05	0.018	0.418479	0.0190244	0.00227641	0.00436346	0	0.00121207	11	3.53702e-07	0.000000000000000E+000	6986.63	0.000000000000000E+000	0.000000000000000E+000	0.00121207	0.00121207	0.0000000E+000	0.000000000000000E+000	7.96133e-06
1	1	0	1	0	0	1	312.05	0.018	0.41955	0.0183882	0.00250411	0.00459117	0	0.00127532	11	3.80214e-07	0.000000000000000E+000	7338.64	0.000000000000000E+000	0.000000000000000E+000	0.00127532	0.00127532	0.0000000E+000	0.000000000000000E+000	7.71476e-06
1	1	0	1	0	0	1	324.05	0.018	0.419766	0.0188972	0.00273182	0.00481888	0	0.00133858	11	4.06748e-07	0.000000000000000E+000	7699.96	0.000000000000000E+000	0.000000000000000E+000	0.00133858	0.00133858	0.0000000E+000	0.000000000000000E+000	7.9324e-06
1	1	0	1	0	0	1	336.05	0.018	0.419929	0.019279	0.00295985	0.00504691	0	0.00140192	11	4.33344e-07	0.000000000000000E+000	8062.21	0.000000000000000E+000	0.000000000000000E+000	0.00140192	0.00140192	0.0000000E+000	0.000000000000000E+000	8.0958e-06
1	1	0	1	0	0	1	348.05	0.018	0.419595	0.0199152	0.00318788	0.00527493	0	0.00146526	11	4.59928e-07	0.000000000000000E+000	8430.97	0.000000000000000E+000	0.000000000000000E+000	0.00146526	0.00146526	0.0000000E+000	0.000000000000000E+000	8.35632e-06
1	1	0	1	0	0	1	360.05	0.018	0.420565	0.0183246	0.00341582	0.00550287	0	0.00152858	11	4.86523e-07	0.000000000000000E+000	8781.68	0.000000000000000E+000	0.000000000000000E+000	0.00152858	0.00152858	0.0000000E+000	0.000000000000000E+000	7.70668e-06
1	1	0	0	0	0	2	371.05	0.032	0.467347	0.0323221	0.000364502	0.00586738	0	0.00162983	11	5.33502e-07	0.000000000000000E+000	8712.91	0.000000000000000E+000	0.000000000000000E+000	0.00162983	0.00162983	0.0000000E+000	0.000000000000000E+000	1.51056e-05
1	1	0	0	0	0	2	383.05	0.032	0.469643	0.0329584	0.000762155	0.00626503	0	0.00174029	11	5.85284e-07	0.000000000000000E+000	9271.79	0.000000000000000E+000	0.000000000000000E+000	0.00174029	0.00174029	0.0000000E+000	0.000000000000000E+000	1.54787e-05
1	1	0	0	0	0	2	395.05	0.032	0.471412	0.0333401	0.00115987	0.00666275	0	0.00185076	11	6.37275e-07	0.000000000000000E+000	9834.63	0.000000000000000E+000	0.000000000000000E+000	0.00185076	0.00185076	0.0000000E+000	0.000000000000000E+000	1.57169e-05
1	1	0	0	0	0	2	407.05	0.032	0.472739	0.0327675	0.00155753	0.00706041	0	0.00196123	11	6.89425e-07	0.000000000000000E+000	10401.2	0.000000000000000E+000	0.000000000000000E+000	0.00196123	0.00196123	0.0000000E+000	0.000000000000000E+000	1.54905e-05
1	1	0	0	0	0	2	419.05	0.032	0.47322	0.033022	0.00195518	0.00745806	0	0.00207168	11	7.41672e-07	0.000000000000000E+000	10979.3	0.000000000000000E+000	0.000000000000000E+000	0.00207168	0.00207168	0.0000000E+000	0.000000000000000E+000	1.56267e-05
1	1	0	0	0	0	2	431.05	0.032	0.475046	0.0334674	0.00235281	0.00785569	0	0.00218214	11	7.94057e-07	0.000000000000000E+000	11533.6	0.000000000000000E+000	0.000000000000000E+000	0.00218214	0.00218214	0.0000000E+000	0.000000000000000E+000	1.58985e-05
1	1	0	0	0	0	2	443.05	0.032	0.476239	0.032513	0.00275044	0.00825332	0	0.00229259	11	8.46597e-07	0.000000000000000E+000	12096.2	0.000000000000000E+000	0.000000000000000E+000	0.00229259	0.00229259	0.0000000E+000	0.000000000000000E+000	1.54839e-05
1	1	0	0	0	0	2	455.05	0.032	0.476767	0.0330856	0.00314805	0.00865093	0	0.00240304	11	8.99225e-07	0.000000000000000E+000	12669.2	0.000000000000000E+000	0.000000000000000E+000	0.00240304	0.00240304	0.0000000E+000	0.000000000000000E+000	1.57741e-05
1	1	0	0	0	0	2	467.05	0.032	0.477434	0.0336582	0.00354596	0.00904884	0	0.00251357	11	9.51965e-07	0.000000000000000E+000	13239	0.000000000000000E+000	0.000000000000000E+000	0.00251357	0.00251357	0.0000000E+000	0.000000000000000E+000	1.60696e-05
1	1	0	0	0	0	2	479.05	0.032	0.478711	0.0326402	0.00394379	0.00944667	0	0.00262407	11	1.00479e-06	0.000000000000000E+000	13795.2	0.000000000000000E+000	0.000000000000000E+000	0.00262407	0.00262407	0.0000000E+000	0.000000000000000E+000	1.56252e-05
1	1	0	0	0	0	2	491.05	0.032	0.479409	0.0332129	0.00434162	0.0098445	0	0.00273458	11	1.05769e-06	0.000000000000000E+000	14361.6	0.000000000000000E+000	0.000000000000000E+000	0.00273458	0.00273458	0.0000000E+000	0.000000000000000E+000	1.59225e-05
1	1	0	0	0	0	2	503.05	0.032	0.479831	0.0334037	0.00473932	0.0102422	0	0.00284505	11	1.11066e-06	0.000000000000000E+000	14932.6	0.000000000000000E+000	0.000000000000000E+000	0.00284505	0.00284505	0.0000000E+000	0.000000000000000E+000	1.60281e-05
1	1	0	0	0	0	2	515.05	0.032	0.480538	0.0333401	0.00513706	0.0106399	0	0.00295554	11	1.1637e-06	0.000000000000000E+000	15496.5	0.000000000000000E+000	0.000000000000000E+000	0.00295554	0.00295554	0.0000000E+000	0.000000000000000E+000	1.60212e-05
1	1	0	0	0	0	2	527.05	0.032	0.480637	0.0337219	0.0055348	0.0110377	0	0.00306602	11	1.21677e-06	0.000000000000000E+000	16073.4	0.000000000000000E+000	0.000000000000000E+000	0.00306602	0.00306602	0.0000000E+000	0.000000000000000E+000	1.6208e-05
1	1	0	0	0	0	2	539.05	0.032	0.481396	0.0332765	0.0059324	0.0114353	0	0.00317647	11	1.26991e-06	0.000000000000000E+000	16634.1	0.000000000000000E+000	0.000000000000000E+000	0.00317647	0.00317647	0.0000000E+000	0.000000000000000E+000	1.60192e-05
1	1	0	1	0	0	3	550.051	0.056	0.530062	0.0576449	0.000575623	0.012044	0	0.00334557	11	1.35835e-06	0.000000000000000E+000	16361.3	0.000000000000000E+000	0.000000000000000E+000	0.00334557	0.00334557	0.0000000E+000	0.000000000000000E+000	3.05554e-05
1	1	0	1	0	0	3	562.051	0.056	0.532922	0.0575813	0.00126651	0.0127349	0	0.00353748	11	1.46045e-06	0.000000000000000E+000	17232.9	0.000000000000000E+000	0.000000000000000E+000	0.00353748	0.00353748	0.0000000E+000	0.000000000000000E+000	3.06863e-05
1	1	0	1	0	0	3	574.051	0.056	0.534413	0.0576449	0.00195741	0.0134258	0	0.0037294	11	1.56295e-06	0.000000000000000E+000	18131.3	0.000000000000000E+000	0.000000000000000E+000	0.0037294	0.0037294	0.0000000E+000	0.000000000000000E+000	3.08062e-05
1	1	0	1	0	0	3	586.051	0.056	0.53531	0.0575813	0.00264821	0.0141166	0	0.00392129	11	1.66561e-06	0.000000000000000E+000	19041.1	0.000000000000000E+000	0.000000000000000E+000	0.00392129	0.00392129	0.0000000E+000	0.000000000000000E+000	3.08239e-05
1	1	0	1	0	0	3	598.051	0.056	0.53728	0.0572632	0.00333926	0.0148077	0	0.00411324	11	1.76857e-06	0.000000000000000E+000	19920.3	0.000000000000000E+000	0.000000000000000E+000	0.00411324	0.00411324	0.0000000E+000	0.000000000000000E+000	3.07664e-05
1	1	0	1	0	0	3	610.051	0.056	0.538539	0.0575177	0.00403038	0.0154988	0	0.00430522	11	1.87189e-06	0.000000000000000E+000	20814.8	0.000000000000000E+000	0.000000000000000E+000	0.00430522	0.00430522	0.0000000E+000	0.000000000000000E+000	3.09755e-05
1	1	0	1	0	0	3	622.051	0.056	0.540374	0.0577085	0.00472129	0.0161897	0	0.00449714	11	1.9754e-06	0.000000000000000E+000	21689.2	0.000000000000000E+000	0.000000000000000E+000	0.00449714	0.00449714	0.0000000E+000	0.000000000000000E+000	3.11842e-05
1	1	0	1	0	0	3	634.051	0.056	0.540917	0.0575813	0.00541221	0.0168806	0	0.00468906	11	2.07914e-06	0.000000000000000E+000	22598.4	0.000000000000000E+000	0.000000000000000E+000	0.00468906	0.00468906	0.0000000E+000	0.000000000000000E+000	3.11467e-05
1	1	0	1	0	0	3	646.051	0.056	0.541921	0.0585357	0.00610295	0.0175714	0	0.00488093	11	2.18302e-06	0.000000000000000E+000	23491.5	0.000000000000000E+000	0.000000000000000E+000	0.00488093	0.00488093	0.0000000E+000	0.000000000000000E+000	3.17217e-05
1	1	0	1	0	0	3	658.051	0.056	0.542789	0.0582812	0.0067938	0.0182622	0	0.00507284	11	2.28716e-06	0.000000000000000E+000	24386.8	0.000000000000000E+000	0.000000000000000E+000	0.00507284	0.00507284	0.0000000E+000	0.000000000000000E+000	3.16344e-05
1	1	0	1	0	0	3	670.051	0.056	0.54431	0.0573904	0.00748476	0.0189532	0	0.00526477	11	2.39149e-06	0.000000000000000E+000	25258.2	0.000000000000000E+000	0.000000000000000E+000	0.00526477	0.00526477	0.0000000E+000	0.000000000000000E+000	3.12382e-05
1	1	0	1	0	0	3	682.051	0.056	0.545394	0.0573904	0.00817556	0.019644	0	0.00545666	11	2.49609e-06	0.000000000000000E+000	26141.1	0.000000000000000E+000	0.000000000000000E+000	0.00545666	0.00545666	0.0000000E+000	0.000000000000000E+000	3.13004e-05
1	1	0	1	0	0	3	694.051	0.056	0.546347	0.0577085	0.00886648	0.0203349	0	0.00564858	11	2.60084e-06	0.000000000000000E+000	27026.2	0.000000000000000E+000	0.000000000000000E+000	0.00564858	0.00564858	0.0000000E+000	0.000000000000000E+000	3.15289e-05
1	1	0	1	0	0	3	706.051	0.056	0.546887	0.0571359	0.00955743	0.0210258	0	0.00584051	11	2.70576e-06	0.000000000000000E+000	27924.5	0.000000000000000E+000	0.000000000000000E+000	0.00584051	0.00584051	0.0000000E+000	0.000000000000000E+000	3.12469e-05
1	1	0	1	0	0	3	718.051	0.056	0.547471	0.0581539	0.0102483	0.0217167	0	0.00603243	11	2.81079e-06	0.000000000000000E+000	28819.7	0.000000000000000E+000	0.000000000000000E+000	0.00603243	0.00603243	0.0000000E+000	0.000000000000000E+000	3.18376e-05
1	1	0	0	0	0	4	729.051	0.1	0.594487	0.102501	0.000912531	0.0227444	0	0.00631789	11	2.97798e-06	0.000000000000000E+000	28410.9	0.000000000000000E+000	0.000000000000000E+000	0.00631789	0.00631789	0.0000000E+000	0.000000000000000E+000	6.09353e-05
1	1	0	0	0	0	4	741.051	0.1	0.596158	0.101864	0.00212944	0.0239613	0	0.00665593	11	3.17933e-06	0.000000000000000E+000	29868.6	0.000000000000000E+000	0.000000000000000E+000	0.00665593	0.00665593	0.0000000E+000	0.000000000000000E+000	6.07273e-05
1	1	0	0	0	0	4	753.051	0.1	0.596813	0.100783	0.00334624	0.0251781	0	0.00699393	11	3.38095e-06	0.000000000000000E+000	31359.8	0.000000000000000E+000	0.000000000000000E+000	0.00699393	0.00699393	0.0000000E+000	0.000000000000000E+000	6.01485e-05
1	1	0	0	0	0	4	765.051	0.1	0.597274	0.100846	0.0045633	0.0263952	0	0.007332	11	3.58278e-06	0.000000000000000E+000	32856.8	0.000000000000000E+000	0.000000000000000E+000	0.007332	0.007332	0.0000000E+000	0.000000000000000E+000	6.0233e-05
1	1	0	0	0	0	4	777.051	0.1	0.597504	0.101801	0.0057803	0.0276122	0	0.00767005	11	3.78474e-06	0.000000000000000E+000	34361.9	0.000000000000000E+000	0.000000000000000E+000	0.00767005	0.00767005	0.0000000E+000	0.000000000000000E+000	6.08264e-05
1	1	0	0	0	0	4	789.051	0.1	0.597853	0.101674	0.00699717	0.0288291	0	0.00800807	11	3.98678e-06	0.000000000000000E+000	35860.6	0.000000000000000E+000	0.000000000000000E+000	0.00800807	0.00800807	0.0000000E+000	0.000000000000000E+000	6.07859e-05
1	1	0	0	0	0	4	801.051	0.1	0.597894	0.101483	0.00821401	0.0300459	0	0.00834608	11	4.18889e-06	0.000000000000000E+000	37372.4	0.000000000000000E+000	0.000000000000000E+000	0.00834608	0.00834608	0.0000000E+000	0.000000000000000E+000	6.06759e-05
1	1	0	0	0	0	4	813.051	0.1	0.598581	0.100974	0.00943096	0.0312629	0	0.00868413	11	4.39111e-06	0.000000000000000E+000	38852.9	0.000000000000000E+000	0.000000000000000E+000	0.00868413	0.00868413	0.0000000E+000	0.000000000000000E+000	6.04409e-05
1	1	0	0	0	0	4	825.051	0.1	0.597869	0.101737	0.0106479	0.0324798	0	0.00902217	11	4.59328e-06	0.000000000000000E+000	40401.1	0.000000000000000E+000	0.000000000000000E+000	0.00902217	0.00902217	0.0000000E+000	0.000000000000000E+000	6.08255e-05
1	1	0	0	0	0	4	837.051	0.1	0.598721	0.100974	0.011865	0.0336969	0	0.00936024	11	4.79557e-06	0.000000000000000E+000	41870.5	0.000000000000000E+000	0.000000000000000E+000	0.00936024	0.00936024	0.0000000E+000	0.000000000000000E+000	6.0455e-05
1	1	0	0	0	0	4	849.051	0.1	0.598395	0.10161	0.0130818	0.0349137	0	0.00969825	11	4.99786e-06	0.000000000000000E+000	43400.1	0.000000000000000E+000	0.000000000000000E+000	0.00969825	0.00969825	0.0000000E+000	0.000000000000000E+000	6.08029e-05
1	1	0	0	0	0	4	861.051	0.1	0.598446	0.102119	0.0142988	0.0361307	0	0.0100363	11	5.20026e-06	0.000000000000000E+000	44910.1	0.000000000000000E+000	0.000000000000000E+000	0.0100363	0.0100363	0.0000000E+000	0.000000000000000E+000	6.11127e-05
1	1	0	0	0	0	4	873.051	0.1	0.59952	0.101801	0.0155159	0.0373478	0	0.0103744	11	5.40282e-06	0.000000000000000E+000	46361	0.000000000000000E+000	0.000000000000000E+000	0.0103744	0.0103744	0.0000000E+000	0.000000000000000E+000	6.10316e-05
1	1	0	0	0	0	4	885.051	0.1	0.599154	0.101037	0.0167329	0.0385648	0	0.0107124	11	5.6054e-06	0.000000000000000E+000	47893.5	0.000000000000000E+000	0.000000000000000E+000	0.0107124	0.0107124	0.0000000E+000	0.000000000000000E+000	6.05369e-05
1	1	0	0	0	0	4	897.051	0.1	0.599316	0.102246	0.0179497	0.0397816	0	0.0110505	11	5.80805e-06	0.000000000000000E+000	49394.7	0.000000000000000E+000	0.000000000000000E+000	0.0110505	0.0110505	0.0000000E+000	0.000000000000000E+000	6.12778e-05
1	1	0	1	0	0	5	908.051	0.178	0.630886	0.179551	0.00143388	0.0415198	0	0.0115333	11	6.10983e-06	0.000000000000000E+000	49608.3	0.000000000000000E+000	0.000000000000000E+000	0.0115333	0.0115333	0.0000000E+000	0.000000000000000E+000	0.000113276
1	1	0	1	0	0	5	920.051	0.178	0.630458	0.179932	0.00358455	0.0436704	0	0.0121307	11	6.48646e-06	0.000000000000000E+000	52204.6	0.000000000000000E+000	0.000000000000000E+000	0.0121307	0.0121307	0.0000000E+000	0.000000000000000E+000	0.00011344
1	1	0	1	0	0	5	932.051	0.178	0.630075	0.179487	0.0057354	0.0458213	0	0.0127281	11	6.86298e-06	0.000000000000000E+000	54800.9	0.000000000000000E+000	0.000000000000000E+000	0.0127281	0.0127281	0.0000000E+000	0.000000000000000E+000	0.00011309
1	1	0	1	0	0	5	944.051	0.178	0.629529	0.178724	0.00788609	0.047972	0	0.0133255	11	7.23912e-06	0.000000000000000E+000	57410.5	0.000000000000000E+000	0.000000000000000E+000	0.0133255	0.0133255	0.0000000E+000	0.000000000000000E+000	0.000112512
1	1	0	1	0	0	5	956.051	0.178	0.629139	0.178469	0.0100368	0.0501227	0	0.013923	11	7.61514e-06	0.000000000000000E+000	60012.4	0.000000000000000E+000	0.000000000000000E+000	0.013923	0.013923	0.0000000E+000	0.000000000000000E+000	0.000112282
1	1	0	1	0	0	5	968.051	0.178	0.628994	0.17936	0.0121876	0.0522734	0	0.0145204	11	7.99097e-06	0.000000000000000E+000	62598.5	0.000000000000000E+000	0.000000000000000E+000	0.0145204	0.0145204	0.0000000E+000	0.000000000000000E+000	0.000112816
1	1	0	1	0	0	5	980.051	0.178	0.628538	0.179169	0.0143382	0.054424	0	0.0151178	11	8.36653e-06	0.000000000000000E+000	65209.4	0.000000000000000E+000	0.000000000000000E+000	0.0151178	0.0151178	0.0000000E+000	0.000000000000000E+000	0.000112615
1	1	0	1	0	0	5	992.051	0.178	0.628632	0.179042	0.0164891	0.056575	0	0.0157153	11	8.74213e-06	0.000000000000000E+000	67779	0.000000000000000E+000	0.000000000000000E+000	0.0157153	0.0157153	0.0000000E+000	0.000000000000000E+000	0.000112551
1	1	0	1	0	0	5	1004.05	0.178	0.628464	0.179233	0.0186402	0.0587261	0	0.0163128	11	9.11772e-06	0.000000000000000E+000	70370.2	0.000000000000000E+000	0.000000000000000E+000	0.0163128	0.0163128	0.0000000E+000	0.000000000000000E+000	0.000112641
1	1	0	1	0	0	5	1016.05	0.178	0.628055	0.179105	0.0207912	0.0608771	0	0.0169103	11	9.49311e-06	0.000000000000000E+000	72983.6	0.000000000000000E+000	0.000000000000000E+000	0.0169103	0.0169103	0.0000000E+000	0.000000000000000E+000	0.000112488
1	1	0	1	0	0	5	1028.05	0.178	0.628216	0.179423	0.0229424	0.0630283	0	0.0175079	11	9.86854e-06	0.000000000000000E+000	75547.9	0.000000000000000E+000	0.000000000000000E+000	0.0175079	0.0175079	0.0000000E+000	0.000000000000000E+000	0.000112717
1	1	0	1	0	0	5	1040.05	0.178	0.627806	0.179042	0.0250934	0.0651792	0	0.0181053	11	1.02437e-05	0.000000000000000E+000	78164.5	0.000000000000000E+000	0.000000000000000E+000	0.0181053	0.0181053	0.0000000E+000	0.000000000000000E+000	0.000112404
1	1	0	1	0	0	5	1052.05	0.178	0.627745	0.178342	0.0272442	0.0673301	0	0.0187028	11	1.06188e-05	0.000000000000000E+000	80749.8	0.000000000000000E+000	0.000000000000000E+000	0.0187028	0.0187028	0.0000000E+000	0.000000000000000E+000	0.000111953
1	1	0	1	0	0	5	1064.05	0.178	0.627998	0.178596	0.0293952	0.0694811	0	0.0193003	11	1.09939e-05	0.000000000000000E+000	83304.2	0.000000000000000E+000	0.000000000000000E+000	0.0193003	0.0193003	0.0000000E+000	0.000000000000000E+000	0.000112158
1	1	0	1	0	0	5	1076.05	0.178	0.627211	0.179105	0.0315461	0.071632	0	0.0198978	11	1.13689e-05	0.000000000000000E+000	85964.2	0.000000000000000E+000	0.000000000000000E+000	0.0198978	0.0198978	0.0000000E+000	0.000000000000000E+000	0.000112337
1	1	0	0	0	0	6	1087.05	0.316	0.655775	0.317426	0.00222162	0.0745706	0	0.0207141	11	1.18985e-05	0.000000000000000E+000	86524.8	0.000000000000000E+000	0.000000000000000E+000	0.0207141	0.0207141	0.0000000E+000	0.000000000000000E+000	0.00020816
1	1	0	0	0	0	6	1099.05	0.316	0.654565	0.317299	0.00603004	0.078379	0	0.021772	11	1.25915e-05	0.000000000000000E+000	91071.6	0.000000000000000E+000	0.000000000000000E+000	0.021772	0.021772	0.0000000E+000	0.000000000000000E+000	0.000207693
1	1	0	0	0	0	6	1111.05	0.316	0.65403	0.317617	0.00983864	0.0821876	0	0.0228299	11	1.32839e-05	0.000000000000000E+000	95556.3	0.000000000000000E+000	0.000000000000000E+000	0.0228299	0.0228299	0.0000000E+000	0.000000000000000E+000	0.000207731
1	1	0	0	0	0	6	1123.05	0.316	0.653857	0.317363	0.0136472	0.0859962	0	0.0238878	11	1.39759e-05	0.000000000000000E+000	100005	0.000000000000000E+000	0.000000000000000E+000	0.0238878	0.0238878	0.0000000E+000	0.000000000000000E+000	0.00020751
1	1	0	0	0	0	6	1135.05	0.316	0.653544	0.317745	0.0174559	0.0898049	0	0.0249458	11	1.46674e-05	0.000000000000000E+000	104472	0.000000000000000E+000	0.000000000000000E+000	0.0249458	0.0249458	0.0000000E+000	0.000000000000000E+000	0.00020766
1	1	0	0	0	0	6	1147.05	0.316	0.65331	0.316854	0.0212644	0.0936134	0	0.0260037	11	1.53587e-05	0.000000000000000E+000	108932	0.000000000000000E+000	0.000000000000000E+000	0.0260037	0.0260037	0.0000000E+000	0.000000000000000E+000	0.000207004
1	1	0	0	0	0	6	1159.05	0.316	0.653183	0.31749	0.0250732	0.0974222	0	0.0270617	11	1.60498e-05	0.000000000000000E+000	113381	0.000000000000000E+000	0.000000000000000E+000	0.0270617	0.0270617	0.0000000E+000	0.000000000000000E+000	0.000207379
1	1	0	0	0	0	6	1171.05	0.316	0.652793	0.31749	0.0288817	0.101231	0	0.0281197	11	1.67406e-05	0.000000000000000E+000	117867	0.000000000000000E+000	0.000000000000000E+000	0.0281197	0.0281197	0.0000000E+000	0.000000000000000E+000	0.000207255
1	1	0	0	0	0	6	1183.05	0.316	0.652711	0.317554	0.0326903	0.105039	0	0.0291776	11	1.74311e-05	0.000000000000000E+000	122313	0.000000000000000E+000	0.000000000000000E+000	0.0291776	0.0291776	0.0000000E+000	0.000000000000000E+000	0.000207271
1	1	0	0	0	0	6	1195.05	0.316	0.652524	0.316854	0.0364987	0.108848	0	0.0302355	11	1.81214e-05	0.000000000000000E+000	126775	0.000000000000000E+000	0.000000000000000E+000	0.0302355	0.0302355	0.0000000E+000	0.000000000000000E+000	0.000206755
1	1	0	0	0	0	6	1207.05	0.316	0.652254	0.317999	0.0403071	0.112656	0	0.0312934	11	1.88114e-05	0.000000000000000E+000	131252	0.000000000000000E+000	0.000000000000000E+000	0.0312934	0.0312934	0.0000000E+000	0.000000000000000E+000	0.000207416
1	1	0	0	0	0	6	1219.05	0.316	0.652296	0.318126	0.0441157	0.116465	0	0.0323513	11	1.95014e-05	0.000000000000000E+000	135683	0.000000000000000E+000	0.000000000000000E+000	0.0323513	0.0323513	0.0000000E+000	0.000000000000000E+000	0.000207512
1	1	0	0	0	0	6	1231.05	0.316	0.652	0.317108	0.0479243	0.120273	0	0.0334093	11	2.01913e-05	0.000000000000000E+000	140168	0.000000000000000E+000	0.000000000000000E+000	0.0334093	0.0334093	0.0000000E+000	0.000000000000000E+000	0.000206754
1	1	0	0	0	0	6	1243.05	0.316	0.65187	0.318572	0.0517329	0.124082	0	0.0344672	11	2.0881e-05	0.000000000000000E+000	144628	0.000000000000000E+000	0.000000000000000E+000	0.0344672	0.0344672	0.0000000E+000	0.000000000000000E+000	0.000207667
1	1	0	0	0	0	6	1255.05	0.316	0.651727	0.317617	0.0555414	0.12789	0	0.0355251	11	2.15705e-05	0.000000000000000E+000	149092	0.000000000000000E+000	0.000000000000000E+000	0.0355251	0.0355251	0.0000000E+000	0.000000000000000E+000	0.000207
1	1	0	1	0	0	7	1266.05	0.562	0.678973	0.562574	0.00338106	0.132858	0	0.0369051	11	2.24959e-05	0.000000000000000E+000	150116	0.000000000000000E+000	0.000000000000000E+000	0.0369051	0.0369051	0.0000000E+000	0.000000000000000E+000	0.000381973
1	1	0	1	0	0	7	1278.05	0.562	0.678527	0.562701	0.0101432	0.139621	0	0.0387835	11	2.37709e-05	0.000000000000000E+000	157836	0.000000000000000E+000	0.000000000000000E+000	0.0387835	0.0387835	0.0000000E+000	0.000000000000000E+000	0.000381808
1	1	0	1	0	0	7	1290.05	0.562	0.678224	0.563147	0.0169057	0.146383	0	0.040662	11	2.5045e-05	0.000000000000000E+000	165537	0.000000000000000E+000	0.000000000000000E+000	0.040662	0.040662	0.0000000E+000	0.000000000000000E+000	0.00038194
1	1	0	1	0	0	7	1302.05	0.562	0.677984	0.563274	0.0236682	0.153146	0	0.0425404	11	2.63189e-05	0.000000000000000E+000	173232	0.000000000000000E+000	0.000000000000000E+000	0.0425404	0.0425404	0.0000000E+000	0.000000000000000E+000	0.000381891
1	1	0	1	0	0	7	1314.05	0.562	0.677514	0.563274	0.0304306	0.159908	0	0.0444189	11	2.75919e-05	0.000000000000000E+000	180977	0.000000000000000E+000	0.000000000000000E+000	0.0444189	0.0444189	0.0000000E+000	0.000000000000000E+000	0.000381626
1	1	0	1	0	0	7	1326.05	0.562	0.677402	0.563847	0.037193	0.16667	0	0.0462973	11	2.88646e-05	0.000000000000000E+000	188655	0.000000000000000E+000	0.000000000000000E+000	0.0462973	0.0462973	0.0000000E+000	0.000000000000000E+000	0.000381951
1	1	0	1	0	0	7	1338.05	0.562	0.677387	0.563719	0.0439553	0.173433	0	0.0481757	11	3.0137e-05	0.000000000000000E+000	196312	0.000000000000000E+000	0.000000000000000E+000	0.0481757	0.0481757	0.0000000E+000	0.000000000000000E+000	0.000381856
1	1	0	1	0	0	7	1350.05	0.562	0.67728	0.563656	0.0507175	0.180195	0	0.0500541	11	3.14092e-05	0.000000000000000E+000	203991	0.000000000000000E+000	0.000000000000000E+000	0.0500541	0.0500541	0.0000000E+000	0.000000000000000E+000	0.000381753
1	1	0	1	0	0	7	1362.05	0.562	0.677049	0.562765	0.0574797	0.186957	0	0.0519325	11	3.26812e-05	0.000000000000000E+000	211702	0.000000000000000E+000	0.000000000000000E+000	0.0519325	0.0519325	0.0000000E+000	0.000000000000000E+000	0.000381019
1	1	0	1	0	0	7	1374.05	0.562	0.676991	0.563592	0.0642419	0.193719	0	0.0538109	11	3.39529e-05	0.000000000000000E+000	219374	0.000000000000000E+000	0.000000000000000E+000	0.0538109	0.0538109	0.0000000E+000	0.000000000000000E+000	0.000381547
1	1	0	1	0	0	7	1386.05	0.562	0.676888	0.563465	0.0710042	0.200482	0	0.0556893	11	3.52244e-05	0.000000000000000E+000	227058	0.000000000000000E+000	0.000000000000000E+000	0.0556893	0.0556893	0.0000000E+000	0.000000000000000E+000	0.000381402
1	1	0	1	0	0	7	1398.05	0.562	0.676695	0.563338	0.0777665	0.207244	0	0.0575677	11	3.64957e-05	0.000000000000000E+000	234768	0.000000000000000E+000	0.000000000000000E+000	0.0575677	0.0575677	0.0000000E+000	0.000000000000000E+000	0.000381208
1	1	0	1	0	0	7	1410.05	0.562	0.676597	0.563338	0.0845289	0.214006	0	0.0594462	11	3.77667e-05	0.000000000000000E+000	242455	0.000000000000000E+000	0.000000000000000E+000	0.0594462	0.0594462	0.0000000E+000	0.000000000000000E+000	0.000381153
1	1	0	1	0	0	7	1422.05	0.562	0.67651	0.562829	0.0912911	0.220768	0	0.0613246	11	3.90376e-05	0.000000000000000E+000	250141	0.000000000000000E+000	0.000000000000000E+000	0.0613246	0.0613246	0.0000000E+000	0.000000000000000E+000	0.000380759
1	1	0	1	0	0	7	1434.05	0.562	0.676461	0.56321	0.0980535	0.227531	0	0.063203	11	4.03083e-05	0.000000000000000E+000	257817	0.000000000000000E+000	0.000000000000000E+000	0.063203	0.063203	0.0000000E+000	0.000000000000000E+000	0.00038099
1	1	0	0	0	0	8	1445.05	1	0.704835	1.00095	0.00500663	0.235919	0	0.065533	11	4.1924e-05	0.000000000000000E+000	258995	0.000000000000000E+000	0.000000000000000E+000	0.065533	0.065533	0.0000000E+000	0.000000000000000E+000	0.000705506
1	1	0	0	0	0	8	1457.05	1	0.704445	1.00152	0.0170225	0.247935	0	0.0688707	11	4.42757e-05	0.000000000000000E+000	272303	0.000000000000000E+000	0.000000000000000E+000	0.0688707	0.0688707	0.0000000E+000	0.000000000000000E+000	0.000705518
1	1	0	0	0	0	8	1469.05	1	0.704191	1.0021	0.0290383	0.25995	0	0.0722084	11	4.66264e-05	0.000000000000000E+000	285579	0.000000000000000E+000	0.000000000000000E+000	0.0722084	0.0722084	0.0000000E+000	0.000000000000000E+000	0.000705667
1	1	0	0	0	0	8	1481.05	1	0.703717	1.00146	0.0410541	0.271966	0	0.0755462	11	4.89761e-05	0.000000000000000E+000	298935	0.000000000000000E+000	0.000000000000000E+000	0.0755462	0.0755462	0.0000000E+000	0.000000000000000E+000	0.000704745
1	1	0	0	0	0	8	1493.05	1	0.703743	1.00127	0.0530697	0.283982	0	0.0788838	11	5.13253e-05	0.000000000000000E+000	312133	0.000000000000000E+000	0.000000000000000E+000	0.0788838	0.0788838	0.0000000E+000	0.000000000000000E+000	0.000704636
1	1	0	0	0	0	8	1505.05	1	0.703656	1.00146	0.0650854	0.295997	0	0.0822215	11	5.36736e-05	0.000000000000000E+000	325371	0.000000000000000E+000	0.000000000000000E+000	0.0822215	0.0822215	0.0000000E+000	0.000000000000000E+000	0.000704683
1	1	0	0	0	0	8	1517.05	1	0.703567	1.00019	0.0771012	0.308013	0	0.0855592	11	5.60217e-05	0.000000000000000E+000	338613	0.000000000000000E+000	0.000000000000000E+000	0.0855592	0.0855592	0.0000000E+000	0.000000000000000E+000	0.0007037
1	1	0	0	0	0	8	1529.05	1	0.703532	1.00063	0.0891169	0.320029	0	0.088897	11	5.83696e-05	0.000000000000000E+000	351835	0.000000000000000E+000	0.000000000000000E+000	0.088897	0.088897	0.0000000E+000	0.000000000000000E+000	0.000703978
1	1	0	0	0	0	8	1541.05	1	0.703295	1.00121	0.101132	0.332045	0	0.0922346	11	6.07172e-05	0.000000000000000E+000	365141	0.000000000000000E+000	0.000000000000000E+000	0.0922346	0.0922346	0.0000000E+000	0.000000000000000E+000	0.000704143
1	1	0	0	0	0	8	1553.05	1	0.703215	1.00095	0.113148	0.34406	0	0.0955723	11	6.30649e-05	0.000000000000000E+000	378387	0.000000000000000E+000	0.000000000000000E+000	0.0955723	0.0955723	0.0000000E+000	0.000000000000000E+000	0.000703884
1	1	0	0	0	0	8	1565.05	1	0.703214	1.00063	0.125164	0.356076	0	0.0989101	11	6.54121e-05	0.000000000000000E+000	391602	0.000000000000000E+000	0.000000000000000E+000	0.0989101	0.0989101	0.0000000E+000	0.000000000000000E+000	0.000703659
1	1	0	0	0	0	8	1577.05	1	0.703107	1.00152	0.13718	0.368092	0	0.102248	11	6.77593e-05	0.000000000000000E+000	404865	0.000000000000000E+000	0.000000000000000E+000	0.102248	0.102248	0.0000000E+000	0.000000000000000E+000	0.000704179
1	1	0	0	0	0	8	1589.05	1	0.703156	1.00121	0.149196	0.380108	0	0.105586	11	7.01063e-05	0.000000000000000E+000	418058	0.000000000000000E+000	0.000000000000000E+000	0.105586	0.105586	0.0000000E+000	0.000000000000000E+000	0.000704004
1	1	0	0	0	0	8	1601.05	1	0.703078	1.00121	0.161212	0.392124	0	0.108923	11	7.24528e-05	0.000000000000000E+000	431311	0.000000000000000E+000	0.000000000000000E+000	0.108923	0.108923	0.0000000E+000	0.000000000000000E+000	0.000703926
1	1	0	0	0	0	8	1613.05	1	0.70298	1.00171	0.173228	0.40414	0	0.112261	11	7.47991e-05	0.000000000000000E+000	444575	0.000000000000000E+000	0.000000000000000E+000	0.112261	0.112261	0.0000000E+000	0.000000000000000E+000	0.000704186
1	1	0	1	0	0	9	1624.05	1.778	0.733852	1.77851	0.00711502	0.418264	0	0.116184	11	7.76184e-05	0.000000000000000E+000	445000	0.000000000000000E+000	0.000000000000000E+000	0.116184	0.116184	0.0000000E+000	0.000000000000000E+000	0.00130517
1	1	0	1	0	0	9	1636.05	1.778	0.733832	1.77871	0.0284608	0.43961	0	0.122114	11	8.19695e-05	0.000000000000000E+000	467721	0.000000000000000E+000	0.000000000000000E+000	0.122114	0.122114	0.0000000E+000	0.000000000000000E+000	0.00130527
1	1	0	1	0	0	9	1648.05	1.778	0.733622	1.77921	0.0498066	0.460956	0	0.128043	11	8.63201e-05	0.000000000000000E+000	490541	0.000000000000000E+000	0.000000000000000E+000	0.128043	0.128043	0.0000000E+000	0.000000000000000E+000	0.00130527
1	1	0	1	0	0	9	1660.05	1.778	0.733755	1.77941	0.0711524	0.482301	0	0.133973	11	9.06706e-05	0.000000000000000E+000	513184	0.000000000000000E+000	0.000000000000000E+000	0.133973	0.133973	0.0000000E+000	0.000000000000000E+000	0.00130565
1	1	0	1	0	0	9	1672.05	1.778	0.733802	1.77902	0.0924982	0.503647	0	0.139902	11	9.50209e-05	0.000000000000000E+000	535870	0.000000000000000E+000	0.000000000000000E+000	0.139902	0.139902	0.0000000E+000	0.000000000000000E+000	0.00130545
1	1	0	1	0	0	9	1684.05	1.778	0.733875	1.77801	0.113844	0.524993	0	0.145831	11	9.93722e-05	0.000000000000000E+000	558539	0.000000000000000E+000	0.000000000000000E+000	0.145831	0.145831	0.0000000E+000	0.000000000000000E+000	0.00130483
1	1	0	1	0	0	9	1696.05	1.778	0.733942	1.77934	0.13519	0.546339	0	0.151761	11	0.000103723	0.000000000000000E+000	581207	0.000000000000000E+000	0.000000000000000E+000	0.151761	0.151761	0.0000000E+000	0.000000000000000E+000	0.00130593
1	1	0	1	0	0	9	1708.05	1.778	0.734006	1.77921	0.156536	0.567685	0	0.15769	11	0.000108075	0.000000000000000E+000	603874	0.000000000000000E+000	0.000000000000000E+000	0.15769	0.15769	0.0000000E+000	0.000000000000000E+000	0.00130595
1	1	0	1	0	0	9	1720.05	1.778	0.733961	1.77896	0.177882	0.589031	0	0.16362	11	0.000112428	0.000000000000000E+000	626610	0.000000000000000E+000	0.000000000000000E+000	0.16362	0.16362	0.0000000E+000	0.000000000000000E+000	0.00130569
1	1	0	1	0	0	9	1732.05	1.778	0.734028	1.77807	0.199228	0.610377	0	0.169549	11	0.00011678	0.000000000000000E+000	649272	0.000000000000000E+000	0.000000000000000E+000	0.169549	0.169549	0.0000000E+000	0.000000000000000E+000	0.00130515
1	1	0	1	0	0	9	1744.05	1.778	0.734074	1.77909	0.220573	0.631723	0	0.175478	11	0.000121133	0.000000000000000E+000	671945	0.000000000000000E+000	0.000000000000000E+000	0.175478	0.175478	0.0000000E+000	0.000000000000000E+000	0.00130598
1	1	0	1	0	0	9	1756.05	1.778	0.734062	1.77998	0.241919	0.653068	0	0.181408	11	0.000125485	0.000000000000000E+000	694659	0.000000000000000E+000	0.000000000000000E+000	0.181408	0.181408	0.0000000E+000	0.000000000000000E+000	0.00130661
1	1	0	1	0	0	9	1768.05	1.778	0.734059	1.7782	0.263265	0.674414	0	0.187337	11	0.000129839	0.000000000000000E+000	717366	0.000000000000000E+000	0.000000000000000E+000	0.187337	0.187337	0.0000000E+000	0.000000000000000E+000	0.0013053
1	1	0	1	0	0	9	1780.05	1.778	0.734089	1.77794	0.284611	0.69576	0	0.193267	11	0.000134192	0.000000000000000E+000	740048	0.000000000000000E+000	0.000000000000000E+000	0.193267	0.193267	0.0000000E+000	0.000000000000000E+000	0.00130517
1	1	0	1	0	0	9	1792.05	1.778	0.734297	1.77864	0.305956	0.717105	0	0.199196	11	0.000138546	0.000000000000000E+000	762583	0.000000000000000E+000	0.000000000000000E+000	0.199196	0.199196	0.0000000E+000	0.000000000000000E+000	0.00130605
1	1	0	0	0	0	10	1803.05	3.162	0.769174	3.1637	0.00948908	0.740825	0	0.205785	11	0.000143476	0.000000000000000E+000	759633	0.000000000000000E+000	0.000000000000000E+000	0.205785	0.205785	0.0000000E+000	0.000000000000000E+000	0.00243344
1	1	0	0	0	0	10	1815.05	3.162	0.769287	3.16332	0.0474467	0.778783	0	0.216329	11	0.000151587	0.000000000000000E+000	798463	0.000000000000000E+000	0.000000000000000E+000	0.216329	0.216329	0.0000000E+000	0.000000000000000E+000	0.0024335
1	1	0	0	0	0	10	1827.05	3.162	0.769622	3.16306	0.0854045	0.816741	0	0.226872	11	0.0001597	0.000000000000000E+000	837092	0.000000000000000E+000	0.000000000000000E+000	0.226872	0.226872	0.0000000E+000	0.000000000000000E+000	0.00243436
1	1	0	0	0	0	10	1839.05	3.162	0.769956	3.163	0.123362	0.854698	0	0.237416	11	0.000167817	0.000000000000000E+000	875696	0.000000000000000E+000	0.000000000000000E+000	0.237416	0.237416	0.0000000E+000	0.000000000000000E+000	0.00243537
1	1	0	0	0	0	10	1851.05	3.162	0.770213	3.16325	0.16132	0.892657	0	0.24796	11	0.000175935	0.000000000000000E+000	914346	0.000000000000000E+000	0.000000000000000E+000	0.24796	0.24796	0.0000000E+000	0.000000000000000E+000	0.00243638
1	1	0	0	0	0	10	1863.05	3.162	0.770444	3.16287	0.199278	0.930614	0	0.258504	11	0.000184057	0.000000000000000E+000	953000	0.000000000000000E+000	0.000000000000000E+000	0.258504	0.258504	0.0000000E+000	0.000000000000000E+000	0.00243682
1	1	0	0	0	0	10	1875.05	3.162	0.770737	3.16268	0.237236	0.968572	0	0.269048	11	0.000192182	0.000000000000000E+000	991574	0.000000000000000E+000	0.000000000000000E+000	0.269048	0.269048	0.0000000E+000	0.000000000000000E+000	0.00243759
1	1	0	0	0	0	10	1887.05	3.162	0.770894	3.16313	0.275194	1.00653	0	0.279592	11	0.000200309	0.000000000000000E+000	1.03027e+06	0.000000000000000E+000	0.000000000000000E+000	0.279592	0.279592	0.0000000E+000	0.000000000000000E+000	0.00243843
1	1	0	0	0	0	10	1899.05	3.162	0.771014	3.16287	0.313152	1.04449	0	0.290136	11	0.00020844	0.000000000000000E+000	1.06899e+06	0.000000000000000E+000	0.000000000000000E+000	0.290136	0.290136	0.0000000E+000	0.000000000000000E+000	0.00243862
1	1	0	0	0	0	10	1911.05	3.162	0.771332	3.16255	0.35111	1.08245	0	0.300679	11	0.000216572	0.000000000000000E+000	1.10748e+06	0.000000000000000E+000	0.000000000000000E+000	0.300679	0.300679	0.0000000E+000	0.000000000000000E+000	0.00243938
1	1	0	0	0	0	10	1923.05	3.162	0.771599	3.16313	0.389067	1.1204	0	0.311223	11	0.000224707	0.000000000000000E+000	1.146e+06	0.000000000000000E+000	0.000000000000000E+000	0.311223	0.311223	0.0000000E+000	0.000000000000000E+000	0.00244067
1	1	0	0	0	0	10	1935.05	3.162	0.771949	3.16376	0.427025	1.15836	0	0.321767	11	0.000232844	0.000000000000000E+000	1.1844e+06	0.000000000000000E+000	0.000000000000000E+000	0.321767	0.321767	0.0000000E+000	0.000000000000000E+000	0.00244226
1	1	0	0	0	0	10	1947.05	3.162	0.772204	3.16325	0.464983	1.19632	0	0.332311	11	0.000240984	0.000000000000000E+000	1.22289e+06	0.000000000000000E+000	0.000000000000000E+000	0.332311	0.332311	0.0000000E+000	0.000000000000000E+000	0.00244268
1	1	0	0	0	0	10	1959.05	3.162	0.772357	3.163	0.50294	1.23428	0	0.342855	11	0.000249125	0.000000000000000E+000	1.2615e+06	0.000000000000000E+000	0.000000000000000E+000	0.342855	0.342855	0.0000000E+000	0.000000000000000E+000	0.00244296
1	1	0	0	0	0	10	1971.05	3.162	0.772645	3.16255	0.540898	1.27223	0	0.353398	11	0.00025727	0.000000000000000E+000	1.29991e+06	0.000000000000000E+000	0.000000000000000E+000	0.353398	0.353398	0.0000000E+000	0.000000000000000E+000	0.00244353
1	1	0	1	0	0	11	1982.05	5.623	0.813162	5.62427	0.0112476	1.31195	0	0.364431	11	0.000265919	0.000000000000000E+000	1.2872e+06	0.000000000000000E+000	0.000000000000000E+000	0.364431	0.364431	0.0000000E+000	0.000000000000000E+000	0.00457345
1	1	0	1	0	0	11	1994.05	5.623	0.814107	5.62478	0.0787357	1.37944	0	0.383177	11	0.000281173	0.000000000000000E+000	1.35216e+06	0.000000000000000E+000	0.000000000000000E+000	0.383177	0.383177	0.0000000E+000	0.000000000000000E+000	0.00457918
1	1	0	1	0	0	11	2006.05	5.623	0.814679	5.62408	0.146224	1.44693	0	0.401924	11	0.000296442	0.000000000000000E+000	1.41752e+06	0.000000000000000E+000	0.000000000000000E+000	0.401924	0.401924	0.0000000E+000	0.000000000000000E+000	0.00458182
1	1	0	1	0	0	11	2018.05	5.623	0.815435	5.62383	0.213712	1.51442	0	0.420671	11	0.000311722	0.000000000000000E+000	1.48254e+06	0.000000000000000E+000	0.000000000000000E+000	0.420671	0.420671	0.0000000E+000	0.000000000000000E+000	0.00458586
1	1	0	1	0	0	11	2030.05	5.623	0.816034	5.62376	0.2812	1.5819	0	0.439418	11	0.000327014	0.000000000000000E+000	1.5477e+06	0.000000000000000E+000	0.000000000000000E+000	0.439418	0.439418	0.0000000E+000	0.000000000000000E+000	0.00458918
1	1	0	1	0	0	11	2042.05	5.623	0.816722	5.62396	0.348688	1.64939	0	0.458164	11	0.000342317	0.000000000000000E+000	1.61264e+06	0.000000000000000E+000	0.000000000000000E+000	0.458164	0.458164	0.0000000E+000	0.000000000000000E+000	0.00459321
1	1	0	1	0	0	11	2054.05	5.623	0.817242	5.62383	0.416177	1.71688	0	0.476911	11	0.000357633	0.000000000000000E+000	1.67777e+06	0.000000000000000E+000	0.000000000000000E+000	0.476911	0.476911	0.0000000E+000	0.000000000000000E+000	0.00459603
1	1	0	1	0	0	11	2066.05	5.623	0.817751	5.62504	0.483665	1.78437	0	0.495658	11	0.00037296	0.000000000000000E+000	1.74286e+06	0.000000000000000E+000	0.000000000000000E+000	0.495658	0.495658	0.0000000E+000	0.000000000000000E+000	0.00459988
1	1	0	1	0	0	11	2078.05	5.623	0.818303	5.62364	0.551153	1.85186	0	0.514404	11	0.000388299	0.000000000000000E+000	1.8078e+06	0.000000000000000E+000	0.000000000000000E+000	0.514404	0.514404	0.0000000E+000	0.000000000000000E+000	0.00460184
1	1	0	1	0	0	11	2090.05	5.623	0.819039	5.62351	0.618641	1.91934	0	0.533151	11	0.000403646	0.000000000000000E+000	1.87234e+06	0.000000000000000E+000	0.000000000000000E+000	0.533151	0.533151	0.0000000E+000	0.000000000000000E+000	0.00460587
1	1	0	1	0	0	11	2102.05	5.623	0.819538	5.62351	0.68613	1.98683	0	0.551898	11	0.000419005	0.000000000000000E+000	1.93723e+06	0.000000000000000E+000	0.000000000000000E+000	0.551898	0.551898	0.0000000E+000	0.000000000000000E+000	0.00460868
1	1	0	1	0	0	11	2114.05	5.623	0.819957	5.62389	0.753618	2.05432	0	0.570645	11	0.000434373	0.000000000000000E+000	2.00222e+06	0.000000000000000E+000	0.000000000000000E+000	0.570645	0.570645	0.0000000E+000	0.000000000000000E+000	0.00461135
1	1	0	1	0	0	11	2126.05	5.623	0.82056	5.62383	0.821107	2.12181	0	0.589392	11	0.000449751	0.000000000000000E+000	2.06678e+06	0.000000000000000E+000	0.000000000000000E+000	0.589392	0.589392	0.0000000E+000	0.000000000000000E+000	0.00461469
1	1	0	1	0	0	11	2138.05	5.623	0.821024	5.62446	0.888595	2.1893	0	0.608138	11	0.000465137	0.000000000000000E+000	2.13155e+06	0.000000000000000E+000	0.000000000000000E+000	0.608138	0.608138	0.0000000E+000	0.000000000000000E+000	0.00461782
1	1	0	1	0	0	11	2150.05	5.623	0.821511	5.6237	0.956084	2.25679	0	0.626885	11	0.000480535	0.000000000000000E+000	2.19622e+06	0.000000000000000E+000	0.000000000000000E+000	0.626885	0.626885	0.0000000E+000	0.000000000000000E+000	0.00461993
1	1	0	0	1	0	12	2161.05	10	0.869428	10.0018	0.0100005	2.32303	0	0.645286	11	0.000495784	0.000000000000000E+000	2.15996e+06	0.000000000000000E+000	0.000000000000000E+000	0.645286	0.645286	0.0000000E+000	0.000000000000000E+000	0.00869586
1	1	0	0	0	0	12	2173.05	10	0.872674	10.0017	0.130017	2.44304	0	0.678624	11	0.000524845	0.000000000000000E+000	2.26472e+06	0.000000000000000E+000	0.000000000000000E+000	0.678624	0.678624	0.0000000E+000	0.000000000000000E+000	0.00872821
1	1	0	0	0	0	12	2185.05	10	0.875057	10.0007	0.250033	2.56306	0	0.711961	11	0.000553981	0.000000000000000E+000	2.37074e+06	0.000000000000000E+000	0.000000000000000E+000	0.711961	0.711961	0.0000000E+000	0.000000000000000E+000	0.00875121
1	1	0	0	0	0	12	2197.05	10	0.876964	10.0016	0.37005	2.68308	0	0.745299	11	0.000583188	0.000000000000000E+000	2.47738e+06	0.000000000000000E+000	0.000000000000000E+000	0.745299	0.745299	0.0000000E+000	0.000000000000000E+000	0.00877106
1	1	0	0	0	0	12	2209.05	10	0.878761	10.0021	0.490066	2.80309	0	0.778637	11	0.000612456	0.000000000000000E+000	2.58391e+06	0.000000000000000E+000	0.000000000000000E+000	0.778637	0.778637	0.0000000E+000	0.000000000000000E+000	0.00878942
1	1	0	0	0	0	12	2221.05	10	0.880638	10.0012	0.610082	2.92311	0	0.811975	11	0.000641785	0.000000000000000E+000	2.68989e+06	0.000000000000000E+000	0.000000000000000E+000	0.811975	0.811975	0.0000000E+000	0.000000000000000E+000	0.00880742
1	1	0	0	0	0	12	2233.05	10	0.882285	10.0011	0.730099	3.04313	0	0.845313	11	0.000671178	0.000000000000000E+000	2.79609e+06	0.000000000000000E+000	0.000000000000000E+000	0.845313	0.845313	0.0000000E+000	0.000000000000000E+000	0.00882384
1	1	0	0	0	0	12	2245.05	10	0.883984	10.001	0.850115	3.16314	0	0.878651	11	0.000700631	0.000000000000000E+000	2.90183e+06	0.000000000000000E+000	0.000000000000000E+000	0.878651	0.878651	0.0000000E+000	0.000000000000000E+000	0.00884071
1	1	0	0	0	0	12	2257.05	10	0.885758	10.001	0.970131	3.28316	0	0.911989	11	0.000730134	0.000000000000000E+000	3.00704e+06	0.000000000000000E+000	0.000000000000000E+000	0.911989	0.911989	0.0000000E+000	0.000000000000000E+000	0.00885851
1	1	0	0	0	0	12	2269.05	10	0.887585	10.0016	1.09015	3.40318	0	0.945327	11	0.000759699	0.000000000000000E+000	3.11176e+06	0.000000000000000E+000	0.000000000000000E+000	0.945327	0.945327	0.0000000E+000	0.000000000000000E+000	0.00887729
1	1	0	0	0	0	12	2281.05	10	0.889064	10.002	1.21016	3.52319	0	0.978664	11	0.000789317	0.000000000000000E+000	3.21714e+06	0.000000000000000E+000	0.000000000000000E+000	0.978664	0.978664	0.0000000E+000	0.000000000000000E+000	0.00889243
1	1	0	0	0	0	12	2293.05	10	0.890907	10.0012	1.33018	3.64321	0	1.012	11	0.000818993	0.000000000000000E+000	3.32115e+06	0.000000000000000E+000	0.000000000000000E+000	1.012	1.012	0.0000000E+000	0.000000000000000E+000	0.00891017
1	1	0	0	0	0	12	2305.05	10	0.892429	10.0004	1.4502	3.76322	0	1.04534	11	0.000848717	0.000000000000000E+000	3.4258e+06	0.000000000000000E+000	0.000000000000000E+000	1.04534	1.04534	0.0000000E+000	0.000000000000000E+000	0.00892466
1	1	0	0	0	0	12	2317.05	10	0.894019	10.0012	1.57021	3.88324	0	1.07868	11	0.000878499	0.000000000000000E+000	3.52995e+06	0.000000000000000E+000	0.000000000000000E+000	1.07868	1.07868	0.0000000E+000	0.000000000000000E+000	0.00894124
1	1	0	0	0	0	12	2329.05	10	0.8954	10.001	1.69023	4.00326	0	1.11202	11	0.000908329	0.000000000000000E+000	3.63448e+06	0.000000000000000E+000	0.000000000000000E+000	1.11202	1.11202	0.0000000E+000	0.000000000000000E+000	0.00895488
1	1	0	0	0	0	12	2340.05	10	0.895558	10.001	1.80025	4.11327	0	1.14258	11	0.000935719	0.000000000000000E+000	3.73383e+06	0.000000000000000E+000	0.000000000000000E+000	1.14258	1.14258	0.0000000E+000	0.000000000000000E+000	0.00895652