File: Data_1/2022_01_24 Co50Ni25Fe25Nx elec1 set1.1_03_CP_C02.mpt
EC-Lab ASCII FILE
Nb header lines : 52

Chronopotentiometry

Run on channel : 2 (SN 12477)
User :
CE vs. WE compliance from -10 V to 10 V
Electrode connection : standard
Potential control : Ewe
Ewe ctrl range : min = -2.50 V, max = 2.50 V
Safety Limits :
	Do not start on E overload
Acquisition started on : 01/24/2023 12:28:09.319
Loaded Setting File :  C:\Users\grupogalan\Documents\EC-Lab\Data\Lole Jurado\2023_01_23_CoNiFeNx_400ºC_24h_electrode1__set2_20012023_1.mps
Saved on :
	File : 2022_01_24 Co50Ni25Fe25Nx elec1 set1.1_03_CP_C02.mpr
	Directory : C:\Users\grupogalan\Documents\EC-Lab\Data\Scott\
	Host : 169.254.104.159
Device : VSP (SN 1176)
Address : USB
EC-Lab for windows v11.46 (software)
Internet server v11.40 (firmware)
Command interpretor v11.40 (firmware)
Electrode material :
Initial state :
Electrolyte :
Comments :
Electrode surface area : 0.000 cm²
Characteristic mass : 0.001 g
Equivalent Weight : 0.000 g/eq.
Density : 0.000 g/cm3
Volume (V) : 0.001 cm³
Cycle Definition : Charge/Discharge alternance
Is                  10.000
unit Is             mA
vs.                 <None>
ts (h:m:s)          2:00:0.0000
EM (V)              pass
dQM                 20.000
unit dQM            mA.h
record              <Ewe>
dEs (mV)            0.00
dts (s)             1.0000
E range min (V)     -2.500
E range max (V)     2.500
I Range             10 mA
Bandwidth           5
goto Ns'            0
nc cycles           0

mode	ox/red	error	control changes	Ns changes	counter inc.	Ns	time/s	control/mA	<Ewe>/V	I/mA	dQ/C	(Q-Qo)/C	half cycle	Q charge/discharge/mA.h	I Range	Energy charge/W.h	Energy discharge/W.h	Capacitance charge/µF	Capacitance discharge/µF	Q discharge/mA.h	Q charge/mA.h	Capacity/mA.h	Efficiency/%	cycle number	P/W
1	1	0	1	0	0	0	679.477	10	0.707655	10.0015	0.00947728	0.00947728	0	0.00263258	11	1.86296e-06	0.000000000000000E+000	0.000000000000000E+000	0.000000000000000E+000	0.000000000000000E+000	0.00263258	0.00263258	0.0000000E+000	0.000000000000000E+000	0.0070776
1	1	0	1	0	0	0	712.477	10	0.712519	10.0017	0.339523	0.339523	0	0.0943119	11	6.73931e-05	0.000000000000000E+000	6.98052e+07	0.000000000000000E+000	0.000000000000000E+000	0.0943119	0.0943119	0.0000000E+000	0.000000000000000E+000	0.00712639
1	1	0	1	0	0	0	745.477	10	0.710699	10.0017	0.669568	0.669568	0	0.185991	11	0.000132614	0.000000000000000E+000	2.19954e+08	0.000000000000000E+000	0.000000000000000E+000	0.185991	0.185991	0.0000000E+000	0.000000000000000E+000	0.00710819
1	1	0	1	0	0	0	778.477	10	0.710478	10.0014	0.999614	0.999614	0	0.27767	11	0.000197776	0.000000000000000E+000	3.54089e+08	0.000000000000000E+000	0.000000000000000E+000	0.27767	0.27767	0.0000000E+000	0.000000000000000E+000	0.00710579
1	1	0	1	0	0	0	811.477	10	0.709886	10.0019	1.32966	1.32966	0	0.36935	11	0.000262889	0.000000000000000E+000	5.9588e+08	0.000000000000000E+000	0.000000000000000E+000	0.36935	0.36935	0.0000000E+000	0.000000000000000E+000	0.00710024
1	1	0	1	0	0	0	844.477	10	0.709958	10.0018	1.6597	1.6597	0	0.461029	11	0.000327992	0.000000000000000E+000	7.20725e+08	0.000000000000000E+000	0.000000000000000E+000	0.461029	0.461029	0.0000000E+000	0.000000000000000E+000	0.00710086
1	1	0	1	0	0	0	877.477	10	0.709515	10.0009	1.98975	1.98975	0	0.552708	11	0.000393066	0.000000000000000E+000	1.06981e+09	0.000000000000000E+000	0.000000000000000E+000	0.552708	0.552708	0.0000000E+000	0.000000000000000E+000	0.00709576
1	1	0	1	0	0	0	910.477	10	0.709847	10.0016	2.3198	2.3198	0	0.644388	11	0.000458156	0.000000000000000E+000	1.05795e+09	0.000000000000000E+000	0.000000000000000E+000	0.644388	0.644388	0.0000000E+000	0.000000000000000E+000	0.00709963
1	1	0	1	0	0	0	943.477	10	0.71011	10.0012	2.64984	2.64984	0	0.736067	11	0.000523247	0.000000000000000E+000	1.07934e+09	0.000000000000000E+000	0.000000000000000E+000	0.736067	0.736067	0.0000000E+000	0.000000000000000E+000	0.00710193
1	1	0	1	0	0	0	976.477	10	0.710591	10.0016	2.97989	2.97989	0	0.827746	11	0.000588345	0.000000000000000E+000	1.01497e+09	0.000000000000000E+000	0.000000000000000E+000	0.827746	0.827746	0.0000000E+000	0.000000000000000E+000	0.00710701
1	1	0	1	0	0	0	1009.48	10	0.710349	10.0016	3.30993	3.30993	0	0.919426	11	0.000653453	0.000000000000000E+000	1.22868e+09	0.000000000000000E+000	0.000000000000000E+000	0.919426	0.919426	0.0000000E+000	0.000000000000000E+000	0.00710464
1	1	0	1	0	0	0	1042.48	10	0.710723	10.0009	3.63998	3.63998	0	1.0111	11	0.000718595	0.000000000000000E+000	1.18624e+09	0.000000000000000E+000	0.000000000000000E+000	1.0111	1.0111	0.0000000E+000	0.000000000000000E+000	0.00710784
1	1	0	1	0	0	0	1075.48	10	0.710566	10.0008	3.97002	3.97002	0	1.10278	11	0.000783752	0.000000000000000E+000	1.36365e+09	0.000000000000000E+000	0.000000000000000E+000	1.10278	1.10278	0.0000000E+000	0.000000000000000E+000	0.00710622
1	1	0	1	0	0	0	1108.48	10	0.71096	10.0017	4.30007	4.30007	0	1.19446	11	0.000848931	0.000000000000000E+000	1.30114e+09	0.000000000000000E+000	0.000000000000000E+000	1.19446	1.19446	0.0000000E+000	0.000000000000000E+000	0.00711084
1	1	0	1	0	0	0	1141.48	10	0.711119	10.0016	4.63011	4.63011	0	1.28614	11	0.000914122	0.000000000000000E+000	1.33641e+09	0.000000000000000E+000	0.000000000000000E+000	1.28614	1.28614	0.0000000E+000	0.000000000000000E+000	0.00711235
1	1	0	1	0	0	0	1174.48	10	0.712067	10.0019	4.96016	4.96016	0	1.37782	11	0.000979347	0.000000000000000E+000	1.12429e+09	0.000000000000000E+000	0.000000000000000E+000	1.37782	1.37782	0.0000000E+000	0.000000000000000E+000	0.007122
1	1	0	1	0	0	0	1207.48	10	0.711458	10.0016	5.2902	5.2902	0	1.4695	11	0.00104461	0.000000000000000E+000	1.39101e+09	0.000000000000000E+000	0.000000000000000E+000	1.4695	1.4695	0.0000000E+000	0.000000000000000E+000	0.00711573
1	1	0	1	0	0	0	1240.48	10	0.712483	10.0017	5.62025	5.62025	0	1.56118	11	0.00110989	0.000000000000000E+000	1.16411e+09	0.000000000000000E+000	0.000000000000000E+000	1.56118	1.56118	0.0000000E+000	0.000000000000000E+000	0.00712607
1	1	0	1	0	0	0	1273.48	10	0.712703	10.0013	5.95029	5.95029	0	1.65286	11	0.00117524	0.000000000000000E+000	1.1786e+09	0.000000000000000E+000	0.000000000000000E+000	1.65286	1.65286	0.0000000E+000	0.000000000000000E+000	0.00712796
1	1	0	1	0	0	0	1306.48	10	0.713259	10.0014	6.28034	6.28034	0	1.74454	11	0.0012406	0.000000000000000E+000	1.12058e+09	0.000000000000000E+000	0.000000000000000E+000	1.74454	1.74454	0.0000000E+000	0.000000000000000E+000	0.00713361
1	1	0	1	0	0	0	1339.48	10	0.713651	10.0011	6.61038	6.61038	0	1.83622	11	0.001306	0.000000000000000E+000	1.1025e+09	0.000000000000000E+000	0.000000000000000E+000	1.83622	1.83622	0.0000000E+000	0.000000000000000E+000	0.0071373
1	1	0	1	0	0	0	1372.48	10	0.714024	10.0018	6.94043	6.94043	0	1.9279	11	0.00137144	0.000000000000000E+000	1.08971e+09	0.000000000000000E+000	0.000000000000000E+000	1.9279	1.9279	0.0000000E+000	0.000000000000000E+000	0.00714153
1	1	0	1	0	0	0	1405.48	10	0.714827	10.0009	7.27047	7.27047	0	2.01958	11	0.00143695	0.000000000000000E+000	1.01374e+09	0.000000000000000E+000	0.000000000000000E+000	2.01958	2.01958	0.0000000E+000	0.000000000000000E+000	0.00714888
1	1	0	1	0	0	0	1438.48	10	0.715092	10.0016	7.60052	7.60052	0	2.11126	11	0.00150248	0.000000000000000E+000	1.022e+09	0.000000000000000E+000	0.000000000000000E+000	2.11126	2.11126	0.0000000E+000	0.000000000000000E+000	0.00715208
1	1	0	1	0	0	0	1471.48	10	0.71577	10.0012	7.93056	7.93056	0	2.20293	11	0.00156807	0.000000000000000E+000	9.77252e+08	0.000000000000000E+000	0.000000000000000E+000	2.20293	2.20293	0.0000000E+000	0.000000000000000E+000	0.00715854
1	1	0	1	0	0	0	1504.48	10	0.71627	10.001	8.26061	8.26061	0	2.29461	11	0.00163372	0.000000000000000E+000	9.58822e+08	0.000000000000000E+000	0.000000000000000E+000	2.29461	2.29461	0.0000000E+000	0.000000000000000E+000	0.00716345
1	1	0	1	0	0	0	1537.48	10	0.716855	10.001	8.59066	8.59066	0	2.38629	11	0.00169941	0.000000000000000E+000	9.33787e+08	0.000000000000000E+000	0.000000000000000E+000	2.38629	2.38629	0.0000000E+000	0.000000000000000E+000	0.0071693
1	1	0	1	0	0	0	1570.48	10	0.717753	10.0012	8.9207	8.9207	0	2.47797	11	0.00176517	0.000000000000000E+000	8.83347e+08	0.000000000000000E+000	0.000000000000000E+000	2.47797	2.47797	0.0000000E+000	0.000000000000000E+000	0.00717842
1	1	0	1	0	0	0	1603.48	10	0.718044	10.0007	9.25075	9.25075	0	2.56965	11	0.00183097	0.000000000000000E+000	8.90373e+08	0.000000000000000E+000	0.000000000000000E+000	2.56965	2.56965	0.0000000E+000	0.000000000000000E+000	0.00718092
1	1	0	1	0	0	0	1636.48	10	0.718272	10.0014	9.58079	9.58079	0	2.66133	11	0.00189682	0.000000000000000E+000	9.02369e+08	0.000000000000000E+000	0.000000000000000E+000	2.66133	2.66133	0.0000000E+000	0.000000000000000E+000	0.0071837
1	1	0	1	0	0	0	1669.48	10	0.719395	10.0016	9.91084	9.91084	0	2.75301	11	0.00196272	0.000000000000000E+000	8.44158e+08	0.000000000000000E+000	0.000000000000000E+000	2.75301	2.75301	0.0000000E+000	0.000000000000000E+000	0.00719512
1	1	0	1	0	0	0	1702.48	10	0.719392	10.0014	10.2409	10.2409	0	2.84469	11	0.00202867	0.000000000000000E+000	8.72535e+08	0.000000000000000E+000	0.000000000000000E+000	2.84469	2.84469	0.0000000E+000	0.000000000000000E+000	0.00719495
1	1	0	1	0	0	0	1735.48	10	0.720355	10.0014	10.5709	10.5709	0	2.93637	11	0.00209467	0.000000000000000E+000	8.32367e+08	0.000000000000000E+000	0.000000000000000E+000	2.93637	2.93637	0.0000000E+000	0.000000000000000E+000	0.00720453
1	1	0	1	0	0	0	1768.48	10	0.721256	10.001	10.901	10.901	0	3.02805	11	0.00216073	0.000000000000000E+000	8.01444e+08	0.000000000000000E+000	0.000000000000000E+000	3.02805	3.02805	0.0000000E+000	0.000000000000000E+000	0.00721332
1	1	0	1	0	0	0	1801.48	10	0.721719	10.0011	11.231	11.231	0	3.11973	11	0.00222686	0.000000000000000E+000	7.98551e+08	0.000000000000000E+000	0.000000000000000E+000	3.11973	3.11973	0.0000000E+000	0.000000000000000E+000	0.00721799
1	1	0	1	0	0	0	1834.48	10	0.722281	10.001	11.5611	11.5611	0	3.21141	11	0.00229305	0.000000000000000E+000	7.90406e+08	0.000000000000000E+000	0.000000000000000E+000	3.21141	3.21141	0.0000000E+000	0.000000000000000E+000	0.00722357
1	1	0	1	0	0	0	1867.48	10	0.723163	10.0012	11.8911	11.8911	0	3.30309	11	0.0023593	0.000000000000000E+000	7.6674e+08	0.000000000000000E+000	0.000000000000000E+000	3.30309	3.30309	0.0000000E+000	0.000000000000000E+000	0.00723253
1	1	0	1	0	0	0	1900.48	10	0.723545	10.0014	12.2212	12.2212	0	3.39477	11	0.0024256	0.000000000000000E+000	7.69075e+08	0.000000000000000E+000	0.000000000000000E+000	3.39477	3.39477	0.0000000E+000	0.000000000000000E+000	0.00723649
1	1	0	1	0	0	0	1933.48	10	0.724333	10.0021	12.5512	12.5512	0	3.48644	11	0.00249198	0.000000000000000E+000	7.52569e+08	0.000000000000000E+000	0.000000000000000E+000	3.48644	3.48644	0.0000000E+000	0.000000000000000E+000	0.00724482
1	1	0	1	0	0	0	1966.48	10	0.725311	10.0015	12.8812	12.8812	0	3.57812	11	0.00255841	0.000000000000000E+000	7.29549e+08	0.000000000000000E+000	0.000000000000000E+000	3.57812	3.57812	0.0000000E+000	0.000000000000000E+000	0.0072542
1	1	0	1	0	0	0	1999.48	10	0.725258	10.0014	13.2113	13.2113	0	3.6698	11	0.00262488	0.000000000000000E+000	7.5052e+08	0.000000000000000E+000	0.000000000000000E+000	3.6698	3.6698	0.0000000E+000	0.000000000000000E+000	0.00725357
1	1	0	1	0	0	0	2032.48	10	0.726182	10.002	13.5413	13.5413	0	3.76148	11	0.00269144	0.000000000000000E+000	7.30887e+08	0.000000000000000E+000	0.000000000000000E+000	3.76148	3.76148	0.0000000E+000	0.000000000000000E+000	0.00726327
1	1	0	1	0	0	0	2065.48	10	0.726719	10.0014	13.8714	13.8714	0	3.85316	11	0.00275803	0.000000000000000E+000	7.27617e+08	0.000000000000000E+000	0.000000000000000E+000	3.85316	3.85316	0.0000000E+000	0.000000000000000E+000	0.00726818
1	1	0	1	0	0	0	2098.48	10	0.727556	10.0018	14.2014	14.2014	0	3.94484	11	0.00282471	0.000000000000000E+000	7.13577e+08	0.000000000000000E+000	0.000000000000000E+000	3.94484	3.94484	0.0000000E+000	0.000000000000000E+000	0.00727688
1	1	0	1	0	0	0	2131.48	10	0.7281	10.0017	14.5315	14.5315	0	4.03652	11	0.00289143	0.000000000000000E+000	7.10735e+08	0.000000000000000E+000	0.000000000000000E+000	4.03652	4.03652	0.0000000E+000	0.000000000000000E+000	0.00728223
1	1	0	1	0	0	0	2164.48	10	0.728914	10.0012	14.8615	14.8615	0	4.1282	11	0.00295821	0.000000000000000E+000	6.99063e+08	0.000000000000000E+000	0.000000000000000E+000	4.1282	4.1282	0.0000000E+000	0.000000000000000E+000	0.00729
1	1	0	1	0	0	0	2197.48	10	0.729552	10.0009	15.1916	15.1916	0	4.21988	11	0.00302506	0.000000000000000E+000	6.93777e+08	0.000000000000000E+000	0.000000000000000E+000	4.21988	4.21988	0.0000000E+000	0.000000000000000E+000	0.00729619
1	1	0	1	0	0	0	2230.48	10	0.730114	10.001	15.5216	15.5216	0	4.31156	11	0.00309197	0.000000000000000E+000	6.91099e+08	0.000000000000000E+000	0.000000000000000E+000	4.31156	4.31156	0.0000000E+000	0.000000000000000E+000	0.00730191
1	1	0	1	0	0	0	2263.48	10	0.730693	10.0016	15.8517	15.8517	0	4.40324	11	0.00315892	0.000000000000000E+000	6.88065e+08	0.000000000000000E+000	0.000000000000000E+000	4.40324	4.40324	0.0000000E+000	0.000000000000000E+000	0.00730811
1	1	0	1	0	0	0	2296.48	10	0.731683	10.0012	16.1817	16.1817	0	4.49492	11	0.00322594	0.000000000000000E+000	6.73452e+08	0.000000000000000E+000	0.000000000000000E+000	4.49492	4.49492	0.0000000E+000	0.000000000000000E+000	0.00731769
1	1	0	1	0	0	0	2329.48	10	0.732314	10.0016	16.5117	16.5117	0	4.5866	11	0.00329305	0.000000000000000E+000	6.69597e+08	0.000000000000000E+000	0.000000000000000E+000	4.5866	4.5866	0.0000000E+000	0.000000000000000E+000	0.00732433
1	1	0	1	0	0	0	2362.48	10	0.733137	10.0011	16.8418	16.8418	0	4.67828	11	0.0033602	0.000000000000000E+000	6.60932e+08	0.000000000000000E+000	0.000000000000000E+000	4.67828	4.67828	0.0000000E+000	0.000000000000000E+000	0.00733218
1	1	0	1	0	0	0	2395.48	10	0.733344	10.0019	17.1718	17.1718	0	4.76996	11	0.00342741	0.000000000000000E+000	6.68435e+08	0.000000000000000E+000	0.000000000000000E+000	4.76996	4.76996	0.0000000E+000	0.000000000000000E+000	0.00733482
1	1	0	1	0	0	0	2428.48	10	0.733911	10.0009	17.5019	17.5019	0	4.86164	11	0.00349467	0.000000000000000E+000	6.66589e+08	0.000000000000000E+000	0.000000000000000E+000	4.86164	4.86164	0.0000000E+000	0.000000000000000E+000	0.00733974
1	1	0	1	0	0	0	2461.48	10	0.735062	10.0014	17.8319	17.8319	0	4.95331	11	0.00356199	0.000000000000000E+000	6.50629e+08	0.000000000000000E+000	0.000000000000000E+000	4.95331	4.95331	0.0000000E+000	0.000000000000000E+000	0.00735162
1	1	0	1	0	0	0	2494.48	10	0.735486	10.0018	18.162	18.162	0	5.04499	11	0.00362939	0.000000000000000E+000	6.52579e+08	0.000000000000000E+000	0.000000000000000E+000	5.04499	5.04499	0.0000000E+000	0.000000000000000E+000	0.00735619
1	1	0	1	0	0	0	2527.48	10	0.735569	10.001	18.492	18.492	0	5.13667	11	0.00369679	0.000000000000000E+000	6.6245e+08	0.000000000000000E+000	0.000000000000000E+000	5.13667	5.13667	0.0000000E+000	0.000000000000000E+000	0.00735642
1	1	0	1	0	0	0	2560.48	10	0.736258	10.0017	18.8221	18.8221	0	5.22835	11	0.00376426	0.000000000000000E+000	6.58035e+08	0.000000000000000E+000	0.000000000000000E+000	5.22835	5.22835	0.0000000E+000	0.000000000000000E+000	0.00736382
1	1	0	1	0	0	0	2593.48	10	0.736716	10.0008	19.1521	19.1521	0	5.32003	11	0.00383178	0.000000000000000E+000	6.59031e+08	0.000000000000000E+000	0.000000000000000E+000	5.32003	5.32003	0.0000000E+000	0.000000000000000E+000	0.00736774
1	1	0	1	0	0	0	2626.48	10	0.737633	10.0013	19.4822	19.4822	0	5.41171	11	0.00389936	0.000000000000000E+000	6.49882e+08	0.000000000000000E+000	0.000000000000000E+000	5.41171	5.41171	0.0000000E+000	0.000000000000000E+000	0.00737729
1	1	0	1	0	0	0	2659.48	10	0.738226	10.0016	19.8122	19.8122	0	5.50339	11	0.003967	0.000000000000000E+000	6.48076e+08	0.000000000000000E+000	0.000000000000000E+000	5.50339	5.50339	0.0000000E+000	0.000000000000000E+000	0.00738345
1	1	0	1	0	0	0	2692.48	10	0.738722	10.0017	20.1422	20.1422	0	5.59507	11	0.00403469	0.000000000000000E+000	6.48336e+08	0.000000000000000E+000	0.000000000000000E+000	5.59507	5.59507	0.0000000E+000	0.000000000000000E+000	0.00738852
1	1	0	1	0	0	0	2725.48	10	0.739344	10.0015	20.4723	20.4723	0	5.68675	11	0.00410243	0.000000000000000E+000	6.46027e+08	0.000000000000000E+000	0.000000000000000E+000	5.68675	5.68675	0.0000000E+000	0.000000000000000E+000	0.00739455
1	1	0	1	0	0	0	2758.48	10	0.739505	10.0019	20.8023	20.8023	0	5.77843	11	0.00417022	0.000000000000000E+000	6.53139e+08	0.000000000000000E+000	0.000000000000000E+000	5.77843	5.77843	0.0000000E+000	0.000000000000000E+000	0.00739643
1	1	0	1	0	0	0	2791.48	10	0.740273	10.0016	21.1324	21.1324	0	5.87011	11	0.00423807	0.000000000000000E+000	6.47875e+08	0.000000000000000E+000	0.000000000000000E+000	5.87011	5.87011	0.0000000E+000	0.000000000000000E+000	0.00740393
1	1	0	1	0	0	0	2824.48	10	0.740929	10.0007	21.4624	21.4624	0	5.96179	11	0.00430596	0.000000000000000E+000	6.4502e+08	0.000000000000000E+000	0.000000000000000E+000	5.96179	5.96179	0.0000000E+000	0.000000000000000E+000	0.00740978
1	1	0	1	0	0	0	2857.48	10	0.741605	10.0019	21.7925	21.7925	0	6.05346	11	0.00437389	0.000000000000000E+000	6.41895e+08	0.000000000000000E+000	0.000000000000000E+000	6.05346	6.05346	0.0000000E+000	0.000000000000000E+000	0.00741749
1	1	0	1	0	0	0	2890.48	10	0.741824	10.0015	22.1225	22.1225	0	6.14514	11	0.00444188	0.000000000000000E+000	6.47446e+08	0.000000000000000E+000	0.000000000000000E+000	6.14514	6.14514	0.0000000E+000	0.000000000000000E+000	0.00741934
1	1	0	1	0	0	0	2923.48	10	0.74244	10.0015	22.4526	22.4526	0	6.23682	11	0.00450992	0.000000000000000E+000	6.45456e+08	0.000000000000000E+000	0.000000000000000E+000	6.23682	6.23682	0.0000000E+000	0.000000000000000E+000	0.00742551
1	1	0	1	0	0	0	2956.48	10	0.743076	10.0007	22.7826	22.7826	0	6.3285	11	0.00457801	0.000000000000000E+000	6.43188e+08	0.000000000000000E+000	0.000000000000000E+000	6.3285	6.3285	0.0000000E+000	0.000000000000000E+000	0.0074313
1	1	0	1	0	0	0	2989.48	10	0.743634	10.0007	23.1127	23.1127	0	6.42018	11	0.00464615	0.000000000000000E+000	6.42393e+08	0.000000000000000E+000	0.000000000000000E+000	6.42018	6.42018	0.0000000E+000	0.000000000000000E+000	0.00743688
1	1	0	1	0	0	0	3022.48	10	0.744206	10.0019	23.4427	23.4427	0	6.51186	11	0.00471435	0.000000000000000E+000	6.41367e+08	0.000000000000000E+000	0.000000000000000E+000	6.51186	6.51186	0.0000000E+000	0.000000000000000E+000	0.0074435
1	1	0	1	0	0	0	3055.48	10	0.744598	10.001	23.7727	23.7727	0	6.60354	11	0.00478259	0.000000000000000E+000	6.43488e+08	0.000000000000000E+000	0.000000000000000E+000	6.60354	6.60354	0.0000000E+000	0.000000000000000E+000	0.00744672
1	1	0	1	0	0	0	3088.48	10	0.745003	10.0012	24.1028	24.1028	0	6.69522	11	0.00485087	0.000000000000000E+000	6.45346e+08	0.000000000000000E+000	0.000000000000000E+000	6.69522	6.69522	0.0000000E+000	0.000000000000000E+000	0.00745096
1	1	0	1	0	0	0	3121.48	10	0.745414	10.0012	24.4328	24.4328	0	6.7869	11	0.00491921	0.000000000000000E+000	6.47075e+08	0.000000000000000E+000	0.000000000000000E+000	6.7869	6.7869	0.0000000E+000	0.000000000000000E+000	0.00745501
1	1	0	1	0	0	0	3154.48	10	0.746701	10.0021	24.7629	24.7629	0	6.87858	11	0.0049876	0.000000000000000E+000	6.34195e+08	0.000000000000000E+000	0.000000000000000E+000	6.87858	6.87858	0.0000000E+000	0.000000000000000E+000	0.00746855
1	1	0	1	0	0	0	3187.48	10	0.747085	10.0007	25.0929	25.0929	0	6.97026	11	0.00505607	0.000000000000000E+000	6.36391e+08	0.000000000000000E+000	0.000000000000000E+000	6.97026	6.97026	0.0000000E+000	0.000000000000000E+000	0.00747139
1	1	0	1	0	0	0	3220.48	10	0.74718	10.0016	25.423	25.423	0	7.06194	11	0.00512456	0.000000000000000E+000	6.43205e+08	0.000000000000000E+000	0.000000000000000E+000	7.06194	7.06194	0.0000000E+000	0.000000000000000E+000	0.00747301
1	1	0	1	0	0	0	3253.48	10	0.74789	10.0012	25.753	25.753	0	7.15361	11	0.00519308	0.000000000000000E+000	6.40054e+08	0.000000000000000E+000	0.000000000000000E+000	7.15361	7.15361	0.0000000E+000	0.000000000000000E+000	0.00747978
1	1	0	1	0	0	0	3286.48	10	0.748306	10.0005	26.0831	26.0831	0	7.24529	11	0.00526167	0.000000000000000E+000	6.41623e+08	0.000000000000000E+000	0.000000000000000E+000	7.24529	7.24529	0.0000000E+000	0.000000000000000E+000	0.00748347
1	1	0	1	0	0	0	3319.48	10	0.748855	10.0017	26.4131	26.4131	0	7.33697	11	0.0053303	0.000000000000000E+000	6.41086e+08	0.000000000000000E+000	0.000000000000000E+000	7.33697	7.33697	0.0000000E+000	0.000000000000000E+000	0.00748981
1	1	0	1	0	0	0	3352.48	10	0.749044	10.0009	26.7431	26.7431	0	7.42865	11	0.00539897	0.000000000000000E+000	6.46134e+08	0.000000000000000E+000	0.000000000000000E+000	7.42865	7.42865	0.0000000E+000	0.000000000000000E+000	0.00749108
1	1	0	1	0	0	0	3385.48	10	0.749399	10.0017	27.0732	27.0732	0	7.52033	11	0.00546768	0.000000000000000E+000	6.48551e+08	0.000000000000000E+000	0.000000000000000E+000	7.52033	7.52033	0.0000000E+000	0.000000000000000E+000	0.0074953
1	1	0	1	0	0	0	3418.48	10	0.750498	10.0024	27.4032	27.4032	0	7.61201	11	0.00553644	0.000000000000000E+000	6.3961e+08	0.000000000000000E+000	0.000000000000000E+000	7.61201	7.61201	0.0000000E+000	0.000000000000000E+000	0.00750677
1	1	0	1	0	0	0	3451.48	10	0.7506	10.0012	27.7333	27.7333	0	7.70369	11	0.00560525	0.000000000000000E+000	6.45777e+08	0.000000000000000E+000	0.000000000000000E+000	7.70369	7.70369	0.0000000E+000	0.000000000000000E+000	0.00750689
1	1	0	1	0	0	0	3484.48	10	0.751516	10.0011	28.0633	28.0633	0	7.79537	11	0.0056741	0.000000000000000E+000	6.3982e+08	0.000000000000000E+000	0.000000000000000E+000	7.79537	7.79537	0.0000000E+000	0.000000000000000E+000	0.007516
1	1	0	1	0	0	0	3517.48	10	0.751575	10.0019	28.3934	28.3934	0	7.88705	11	0.00574299	0.000000000000000E+000	6.46473e+08	0.000000000000000E+000	0.000000000000000E+000	7.88705	7.88705	0.0000000E+000	0.000000000000000E+000	0.00751716
1	1	0	1	0	0	0	3550.48	10	0.752121	10.0007	28.7234	28.7234	0	7.97873	11	0.00581193	0.000000000000000E+000	6.45956e+08	0.000000000000000E+000	0.000000000000000E+000	7.97873	7.97873	0.0000000E+000	0.000000000000000E+000	0.00752171
1	1	0	1	0	0	0	3583.48	10	0.752547	10.0013	29.0535	29.0535	0	8.07041	11	0.00588092	0.000000000000000E+000	6.47187e+08	0.000000000000000E+000	0.000000000000000E+000	8.07041	8.07041	0.0000000E+000	0.000000000000000E+000	0.00752645
1	1	0	1	0	0	0	3616.48	10	0.753542	10.0013	29.3835	29.3835	0	8.16209	11	0.00594996	0.000000000000000E+000	6.4034e+08	0.000000000000000E+000	0.000000000000000E+000	8.16209	8.16209	0.0000000E+000	0.000000000000000E+000	0.0075364
1	1	0	1	0	0	0	3649.48	10	0.753957	10.0016	29.7136	29.7136	0	8.25376	11	0.00601905	0.000000000000000E+000	6.41726e+08	0.000000000000000E+000	0.000000000000000E+000	8.25376	8.25376	0.0000000E+000	0.000000000000000E+000	0.0075408
1	1	0	1	0	0	0	3682.48	10	0.753862	10.0009	30.0436	30.0436	0	8.34544	11	0.00608818	0.000000000000000E+000	6.50185e+08	0.000000000000000E+000	0.000000000000000E+000	8.34544	8.34544	0.0000000E+000	0.000000000000000E+000	0.00753932
1	1	0	1	0	0	0	3715.48	10	0.754665	10.0012	30.3736	30.3736	0	8.43712	11	0.00615733	0.000000000000000E+000	6.4611e+08	0.000000000000000E+000	0.000000000000000E+000	8.43712	8.43712	0.0000000E+000	0.000000000000000E+000	0.00754753
1	1	0	1	0	0	0	3748.48	10	0.755183	10.0006	30.7037	30.7037	0	8.5288	11	0.00622655	0.000000000000000E+000	6.46006e+08	0.000000000000000E+000	0.000000000000000E+000	8.5288	8.5288	0.0000000E+000	0.000000000000000E+000	0.00755229
1	1	0	1	0	0	0	3781.48	10	0.755348	10.001	31.0337	31.0337	0	8.62048	11	0.0062958	0.000000000000000E+000	6.5069e+08	0.000000000000000E+000	0.000000000000000E+000	8.62048	8.62048	0.0000000E+000	0.000000000000000E+000	0.00755423
1	1	0	1	0	0	0	3814.48	10	0.756168	10.0015	31.3638	31.3638	0	8.71216	11	0.0063651	0.000000000000000E+000	6.46495e+08	0.000000000000000E+000	0.000000000000000E+000	8.71216	8.71216	0.0000000E+000	0.000000000000000E+000	0.00756281
1	1	0	1	0	0	0	3847.48	10	0.756597	10.0022	31.6938	31.6938	0	8.80384	11	0.00643444	0.000000000000000E+000	6.4757e+08	0.000000000000000E+000	0.000000000000000E+000	8.80384	8.80384	0.0000000E+000	0.000000000000000E+000	0.00756763
1	1	0	1	0	0	0	3880.48	10	0.757252	10.0009	32.0239	32.0239	0	8.89552	11	0.00650381	0.000000000000000E+000	6.45672e+08	0.000000000000000E+000	0.000000000000000E+000	8.89552	8.89552	0.0000000E+000	0.000000000000000E+000	0.00757322
1	1	0	1	0	0	0	3913.48	10	0.757393	10.0009	32.3539	32.3539	0	8.9872	11	0.00657324	0.000000000000000E+000	6.50481e+08	0.000000000000000E+000	0.000000000000000E+000	8.9872	8.9872	0.0000000E+000	0.000000000000000E+000	0.00757458
1	1	0	1	0	0	0	3946.48	10	0.758041	10.0007	32.684	32.684	0	9.07888	11	0.00664272	0.000000000000000E+000	6.48673e+08	0.000000000000000E+000	0.000000000000000E+000	9.07888	9.07888	0.0000000E+000	0.000000000000000E+000	0.00758096
1	1	0	1	0	0	0	3979.48	10	0.758585	10.0017	33.014	33.014	0	9.17055	11	0.00671224	0.000000000000000E+000	6.48218e+08	0.000000000000000E+000	0.000000000000000E+000	9.17055	9.17055	0.0000000E+000	0.000000000000000E+000	0.00758713
1	1	0	1	0	0	0	4012.48	10	0.75895	10.0016	33.344	33.344	0	9.26223	11	0.0067818	0.000000000000000E+000	6.50039e+08	0.000000000000000E+000	0.000000000000000E+000	9.26223	9.26223	0.0000000E+000	0.000000000000000E+000	0.00759073
1	1	0	1	0	0	0	4045.48	10	0.759245	10.0015	33.6741	33.6741	0	9.35391	11	0.0068514	0.000000000000000E+000	6.5272e+08	0.000000000000000E+000	0.000000000000000E+000	9.35391	9.35391	0.0000000E+000	0.000000000000000E+000	0.00759359
1	1	0	1	0	0	0	4078.48	10	0.75979	10.0016	34.0041	34.0041	0	9.44559	11	0.00692103	0.000000000000000E+000	6.52232e+08	0.000000000000000E+000	0.000000000000000E+000	9.44559	9.44559	0.0000000E+000	0.000000000000000E+000	0.00759908
1	1	0	1	0	0	0	4111.48	10	0.760019	10.0013	34.3342	34.3342	0	9.53727	11	0.0069907	0.000000000000000E+000	6.55682e+08	0.000000000000000E+000	0.000000000000000E+000	9.53727	9.53727	0.0000000E+000	0.000000000000000E+000	0.00760118
1	1	0	1	0	0	0	4144.48	10	0.760411	10.0017	34.6642	34.6642	0	9.62895	11	0.00706041	0.000000000000000E+000	6.57061e+08	0.000000000000000E+000	0.000000000000000E+000	9.62895	9.62895	0.0000000E+000	0.000000000000000E+000	0.00760539
1	1	0	1	0	0	0	4177.48	10	0.76093	10.0015	34.9943	34.9943	0	9.72063	11	0.00713016	0.000000000000000E+000	6.56857e+08	0.000000000000000E+000	0.000000000000000E+000	9.72063	9.72063	0.0000000E+000	0.000000000000000E+000	0.00761044
1	1	0	1	0	0	0	4210.48	10	0.76152	10.001	35.3243	35.3243	0	9.81231	11	0.00719995	0.000000000000000E+000	6.55784e+08	0.000000000000000E+000	0.000000000000000E+000	9.81231	9.81231	0.0000000E+000	0.000000000000000E+000	0.00761595
1	1	0	1	0	0	0	4243.48	10	0.761836	10.0013	35.6544	35.6544	0	9.90399	11	0.00726978	0.000000000000000E+000	6.58052e+08	0.000000000000000E+000	0.000000000000000E+000	9.90399	9.90399	0.0000000E+000	0.000000000000000E+000	0.00761936
1	1	0	1	0	0	0	4276.48	10	0.76197	10.001	35.9844	35.9844	0	9.99567	11	0.00733964	0.000000000000000E+000	6.62508e+08	0.000000000000000E+000	0.000000000000000E+000	9.99567	9.99567	0.0000000E+000	0.000000000000000E+000	0.0076205
1	1	0	1	0	0	0	4309.48	10	0.76264	10.0016	36.3144	36.3144	0	10.0873	11	0.00740956	0.000000000000000E+000	6.60439e+08	0.000000000000000E+000	0.000000000000000E+000	10.0873	10.0873	0.0000000E+000	0.000000000000000E+000	0.00762759
1	1	0	1	0	0	0	4342.48	10	0.763375	10.0004	36.6445	36.6445	0	10.179	11	0.0074795	0.000000000000000E+000	6.57648e+08	0.000000000000000E+000	0.000000000000000E+000	10.179	10.179	0.0000000E+000	0.000000000000000E+000	0.00763407
1	1	0	1	0	0	0	4375.48	10	0.763549	10.0009	36.9745	36.9745	0	10.2707	11	0.00754948	0.000000000000000E+000	6.61511e+08	0.000000000000000E+000	0.000000000000000E+000	10.2707	10.2707	0.0000000E+000	0.000000000000000E+000	0.00763614
1	1	0	1	0	0	0	4408.48	10	0.764176	10.0019	37.3046	37.3046	0	10.3624	11	0.0076195	0.000000000000000E+000	6.60008e+08	0.000000000000000E+000	0.000000000000000E+000	10.3624	10.3624	0.0000000E+000	0.000000000000000E+000	0.00764319
1	1	0	1	0	0	0	4441.48	10	0.764472	10.0014	37.6346	37.6346	0	10.4541	11	0.00768957	0.000000000000000E+000	6.6238e+08	0.000000000000000E+000	0.000000000000000E+000	10.4541	10.4541	0.0000000E+000	0.000000000000000E+000	0.00764576
1	1	0	1	0	0	0	4474.48	10	0.764787	10	37.9647	37.9647	0	10.5457	11	0.00775967	0.000000000000000E+000	6.64499e+08	0.000000000000000E+000	0.000000000000000E+000	10.5457	10.5457	0.0000000E+000	0.000000000000000E+000	0.0076479
1	1	0	1	0	0	0	4507.48	10	0.765663	10.0012	38.2947	38.2947	0	10.6374	11	0.00782982	0.000000000000000E+000	6.60164e+08	0.000000000000000E+000	0.000000000000000E+000	10.6374	10.6374	0.0000000E+000	0.000000000000000E+000	0.00765753
1	1	0	1	0	0	0	4540.48	10	0.76572	10.0012	38.6248	38.6248	0	10.7291	11	0.0079	0.000000000000000E+000	6.6519e+08	0.000000000000000E+000	0.000000000000000E+000	10.7291	10.7291	0.0000000E+000	0.000000000000000E+000	0.0076581
1	1	0	1	0	0	0	4573.48	10	0.766491	10.0011	38.9548	38.9548	0	10.8208	11	0.00797021	0.000000000000000E+000	6.62088e+08	0.000000000000000E+000	0.000000000000000E+000	10.8208	10.8208	0.0000000E+000	0.000000000000000E+000	0.00766576
1	1	0	1	0	0	0	4606.48	10	0.766497	10.0014	39.2848	39.2848	0	10.9125	11	0.00804047	0.000000000000000E+000	6.67631e+08	0.000000000000000E+000	0.000000000000000E+000	10.9125	10.9125	0.0000000E+000	0.000000000000000E+000	0.00766602
1	1	0	1	0	0	0	4639.48	10	0.766944	10.0012	39.6149	39.6149	0	11.0041	11	0.00811077	0.000000000000000E+000	6.68166e+08	0.000000000000000E+000	0.000000000000000E+000	11.0041	11.0041	0.0000000E+000	0.000000000000000E+000	0.00767039
1	1	0	1	0	0	0	4672.48	10	0.767418	10.0014	39.9449	39.9449	0	11.0958	11	0.00818109	0.000000000000000E+000	6.68391e+08	0.000000000000000E+000	0.000000000000000E+000	11.0958	11.0958	0.0000000E+000	0.000000000000000E+000	0.00767527
1	1	0	1	0	0	0	4705.48	10	0.767771	10.0015	40.275	40.275	0	11.1875	11	0.00825147	0.000000000000000E+000	6.69953e+08	0.000000000000000E+000	0.000000000000000E+000	11.1875	11.1875	0.0000000E+000	0.000000000000000E+000	0.00767886
1	1	0	1	0	0	0	4738.48	10	0.768116	10.0014	40.605	40.605	0	11.2792	11	0.00832188	0.000000000000000E+000	6.7159e+08	0.000000000000000E+000	0.000000000000000E+000	11.2792	11.2792	0.0000000E+000	0.000000000000000E+000	0.00768221
1	1	0	1	0	0	0	4771.48	10	0.768248	10.0009	40.9351	40.9351	0	11.3709	11	0.00839231	0.000000000000000E+000	6.75574e+08	0.000000000000000E+000	0.000000000000000E+000	11.3709	11.3709	0.0000000E+000	0.000000000000000E+000	0.00768318
1	1	0	1	0	0	0	4804.48	10	0.768914	10.0016	41.2651	41.2651	0	11.4625	11	0.00846278	0.000000000000000E+000	6.73614e+08	0.000000000000000E+000	0.000000000000000E+000	11.4625	11.4625	0.0000000E+000	0.000000000000000E+000	0.00769039
1	1	0	1	0	0	0	4837.48	10	0.76963	10.002	41.5952	41.5952	0	11.5542	11	0.00853329	0.000000000000000E+000	6.71158e+08	0.000000000000000E+000	0.000000000000000E+000	11.5542	11.5542	0.0000000E+000	0.000000000000000E+000	0.00769784
1	1	0	1	0	0	0	4870.48	10	0.769567	10.0013	41.9252	41.9252	0	11.6459	11	0.00860384	0.000000000000000E+000	6.7717e+08	0.000000000000000E+000	0.000000000000000E+000	11.6459	11.6459	0.0000000E+000	0.000000000000000E+000	0.00769667
1	1	0	1	0	0	0	4903.48	10	0.770272	10.0017	42.2552	42.2552	0	11.7376	11	0.00867441	0.000000000000000E+000	6.74814e+08	0.000000000000000E+000	0.000000000000000E+000	11.7376	11.7376	0.0000000E+000	0.000000000000000E+000	0.00770402
1	1	0	1	0	0	0	4936.48	10	0.770637	10.0014	42.5853	42.5853	0	11.8292	11	0.00874504	0.000000000000000E+000	6.76148e+08	0.000000000000000E+000	0.000000000000000E+000	11.8292	11.8292	0.0000000E+000	0.000000000000000E+000	0.00770742
1	1	0	1	0	0	0	4969.48	10	0.770701	10.0012	42.9153	42.9153	0	11.9209	11	0.00881569	0.000000000000000E+000	6.80695e+08	0.000000000000000E+000	0.000000000000000E+000	11.9209	11.9209	0.0000000E+000	0.000000000000000E+000	0.00770797
1	1	0	1	0	0	0	5002.48	10	0.771624	10.0009	43.2454	43.2454	0	12.0126	11	0.00888637	0.000000000000000E+000	6.76029e+08	0.000000000000000E+000	0.000000000000000E+000	12.0126	12.0126	0.0000000E+000	0.000000000000000E+000	0.00771695
1	1	0	1	0	0	0	5035.48	10	0.771506	10.0021	43.5754	43.5754	0	12.1043	11	0.0089571	0.000000000000000E+000	6.8245e+08	0.000000000000000E+000	0.000000000000000E+000	12.1043	12.1043	0.0000000E+000	0.000000000000000E+000	0.00771666
1	1	0	1	0	0	0	5068.48	10	0.771946	10.0011	43.9055	43.9055	0	12.196	11	0.00902785	0.000000000000000E+000	6.82917e+08	0.000000000000000E+000	0.000000000000000E+000	12.196	12.196	0.0000000E+000	0.000000000000000E+000	0.00772032
1	1	0	1	0	0	0	5101.48	10	0.772253	10.0019	44.2355	44.2355	0	12.2876	11	0.00909864	0.000000000000000E+000	6.84777e+08	0.000000000000000E+000	0.000000000000000E+000	12.2876	12.2876	0.0000000E+000	0.000000000000000E+000	0.00772398
1	1	0	1	0	0	0	5134.48	10	0.772613	10.0006	44.5656	44.5656	0	12.3793	11	0.00916948	0.000000000000000E+000	6.86065e+08	0.000000000000000E+000	0.000000000000000E+000	12.3793	12.3793	0.0000000E+000	0.000000000000000E+000	0.0077266
1	1	0	1	0	0	0	5167.48	10	0.773055	10.0013	44.8956	44.8956	0	12.471	11	0.00924033	0.000000000000000E+000	6.86478e+08	0.000000000000000E+000	0.000000000000000E+000	12.471	12.471	0.0000000E+000	0.000000000000000E+000	0.00773155
1	1	0	1	0	0	0	5200.48	10	0.773451	10.0016	45.2257	45.2257	0	12.5627	11	0.00931123	0.000000000000000E+000	6.87361e+08	0.000000000000000E+000	0.000000000000000E+000	12.5627	12.5627	0.0000000E+000	0.000000000000000E+000	0.00773576
1	1	0	1	0	0	0	5233.48	10	0.773967	10.0006	45.5557	45.5557	0	12.6544	11	0.00938217	0.000000000000000E+000	6.86988e+08	0.000000000000000E+000	0.000000000000000E+000	12.6544	12.6544	0.0000000E+000	0.000000000000000E+000	0.00774014
1	1	0	1	0	0	0	5266.48	10	0.774524	10.0019	45.8857	45.8857	0	12.746	11	0.00945315	0.000000000000000E+000	6.86204e+08	0.000000000000000E+000	0.000000000000000E+000	12.746	12.746	0.0000000E+000	0.000000000000000E+000	0.00774674
1	1	0	1	0	0	0	5299.48	10	0.774535	10.0019	46.2158	46.2158	0	12.8377	11	0.00952415	0.000000000000000E+000	6.91021e+08	0.000000000000000E+000	0.000000000000000E+000	12.8377	12.8377	0.0000000E+000	0.000000000000000E+000	0.00774685
1	1	0	1	0	0	0	5332.48	10	0.774887	10.0016	46.5458	46.5458	0	12.9294	11	0.0095952	0.000000000000000E+000	6.92317e+08	0.000000000000000E+000	0.000000000000000E+000	12.9294	12.9294	0.0000000E+000	0.000000000000000E+000	0.00775007
1	1	0	1	0	0	0	5365.48	10	0.775391	10.0014	46.8759	46.8759	0	13.0211	11	0.00966628	0.000000000000000E+000	6.92038e+08	0.000000000000000E+000	0.000000000000000E+000	13.0211	13.0211	0.0000000E+000	0.000000000000000E+000	0.00775497
1	1	0	1	0	0	0	5398.48	10	0.7758	10.0009	47.2059	47.2059	0	13.1128	11	0.00973737	0.000000000000000E+000	6.92721e+08	0.000000000000000E+000	0.000000000000000E+000	13.1128	13.1128	0.0000000E+000	0.000000000000000E+000	0.00775872
1	1	0	1	0	0	0	5431.48	10	0.776265	10.0014	47.536	47.536	0	13.2044	11	0.00980851	0.000000000000000E+000	6.92844e+08	0.000000000000000E+000	0.000000000000000E+000	13.2044	13.2044	0.0000000E+000	0.000000000000000E+000	0.00776376
1	1	0	1	0	0	0	5464.48	10	0.777002	10.0014	47.866	47.866	0	13.2961	11	0.0098797	0.000000000000000E+000	6.90241e+08	0.000000000000000E+000	0.000000000000000E+000	13.2961	13.2961	0.0000000E+000	0.000000000000000E+000	0.00777108
1	1	0	1	0	0	0	5497.48	10	0.77706	10.0022	48.1961	48.1961	0	13.3878	11	0.00995093	0.000000000000000E+000	6.94417e+08	0.000000000000000E+000	0.000000000000000E+000	13.3878	13.3878	0.0000000E+000	0.000000000000000E+000	0.0077723
1	1	0	1	0	0	0	5530.48	10	0.777281	10.0018	48.5261	48.5261	0	13.4795	11	0.0100222	0.000000000000000E+000	6.96952e+08	0.000000000000000E+000	0.000000000000000E+000	13.4795	13.4795	0.0000000E+000	0.000000000000000E+000	0.00777422
1	1	0	1	0	0	0	5563.48	10	0.778057	10.0012	48.8561	48.8561	0	13.5712	11	0.0100935	0.000000000000000E+000	6.93959e+08	0.000000000000000E+000	0.000000000000000E+000	13.5712	13.5712	0.0000000E+000	0.000000000000000E+000	0.00778148
1	1	0	1	0	0	0	5596.48	10	0.77823	10.0013	49.1862	49.1862	0	13.6628	11	0.0101648	0.000000000000000E+000	6.96933e+08	0.000000000000000E+000	0.000000000000000E+000	13.6628	13.6628	0.0000000E+000	0.000000000000000E+000	0.00778331
1	1	0	1	0	0	0	5629.48	10	0.778646	10.0014	49.5162	49.5162	0	13.7545	11	0.0102361	0.000000000000000E+000	6.97496e+08	0.000000000000000E+000	0.000000000000000E+000	13.7545	13.7545	0.0000000E+000	0.000000000000000E+000	0.00778753
1	1	0	1	0	0	0	5662.48	10	0.778836	10.0023	49.8463	49.8463	0	13.8462	11	0.0103075	0.000000000000000E+000	7.00273e+08	0.000000000000000E+000	0.000000000000000E+000	13.8462	13.8462	0.0000000E+000	0.000000000000000E+000	0.00779012
1	1	0	1	0	0	0	5695.48	10	0.779438	10.0018	50.1763	50.1763	0	13.9379	11	0.010379	0.000000000000000E+000	6.98997e+08	0.000000000000000E+000	0.000000000000000E+000	13.9379	13.9379	0.0000000E+000	0.000000000000000E+000	0.00779579
1	1	0	1	0	0	0	5728.48	10	0.779679	10.0011	50.5064	50.5064	0	14.0295	11	0.0104504	0.000000000000000E+000	7.01243e+08	0.000000000000000E+000	0.000000000000000E+000	14.0295	14.0295	0.0000000E+000	0.000000000000000E+000	0.00779765
1	1	0	1	0	0	0	5761.48	10	0.780081	10.0016	50.8364	50.8364	0	14.1212	11	0.0105219	0.000000000000000E+000	7.01905e+08	0.000000000000000E+000	0.000000000000000E+000	14.1212	14.1212	0.0000000E+000	0.000000000000000E+000	0.00780208
1	1	0	1	0	0	0	5794.48	10	0.780531	10.0007	51.1665	51.1665	0	14.2129	11	0.0105935	0.000000000000000E+000	7.021e+08	0.000000000000000E+000	0.000000000000000E+000	14.2129	14.2129	0.0000000E+000	0.000000000000000E+000	0.00780588
1	1	0	1	0	0	0	5827.48	10	0.7808	10.0011	51.4965	51.4965	0	14.3046	11	0.010665	0.000000000000000E+000	7.04033e+08	0.000000000000000E+000	0.000000000000000E+000	14.3046	14.3046	0.0000000E+000	0.000000000000000E+000	0.00780887
1	1	0	1	0	0	0	5860.48	10	0.781322	10.0014	51.8266	51.8266	0	14.3963	11	0.0107366	0.000000000000000E+000	7.03527e+08	0.000000000000000E+000	0.000000000000000E+000	14.3963	14.3963	0.0000000E+000	0.000000000000000E+000	0.00781433
1	1	0	1	0	0	0	5893.48	10	0.781742	10.0017	52.1566	52.1566	0	14.4879	11	0.0108083	0.000000000000000E+000	7.03987e+08	0.000000000000000E+000	0.000000000000000E+000	14.4879	14.4879	0.0000000E+000	0.000000000000000E+000	0.00781874
1	1	0	1	0	0	0	5926.48	10	0.78164	10.0019	52.4866	52.4866	0	14.5796	11	0.01088	0.000000000000000E+000	7.09417e+08	0.000000000000000E+000	0.000000000000000E+000	14.5796	14.5796	0.0000000E+000	0.000000000000000E+000	0.00781787
1	1	0	1	0	0	0	5959.48	10	0.781844	10.0018	52.8167	52.8167	0	14.6713	11	0.0109517	0.000000000000000E+000	7.11922e+08	0.000000000000000E+000	0.000000000000000E+000	14.6713	14.6713	0.0000000E+000	0.000000000000000E+000	0.00781985
1	1	0	1	0	0	0	5992.48	10	0.782297	10.0012	53.1467	53.1467	0	14.763	11	0.0110234	0.000000000000000E+000	7.1202e+08	0.000000000000000E+000	0.000000000000000E+000	14.763	14.763	0.0000000E+000	0.000000000000000E+000	0.00782389
1	1	0	1	0	0	0	6025.48	10	0.783269	10.0011	53.4768	53.4768	0	14.8547	11	0.0110952	0.000000000000000E+000	7.07235e+08	0.000000000000000E+000	0.000000000000000E+000	14.8547	14.8547	0.0000000E+000	0.000000000000000E+000	0.00783356
1	1	0	1	0	0	0	6058.48	10	0.783263	10.0009	53.8068	53.8068	0	14.9463	11	0.011167	0.000000000000000E+000	7.11652e+08	0.000000000000000E+000	0.000000000000000E+000	14.9463	14.9463	0.0000000E+000	0.000000000000000E+000	0.00783335
1	1	0	1	0	0	0	6091.48	10	0.784139	10.0014	54.1369	54.1369	0	15.038	11	0.0112388	0.000000000000000E+000	7.07817e+08	0.000000000000000E+000	0.000000000000000E+000	15.038	15.038	0.0000000E+000	0.000000000000000E+000	0.00784251
1	1	0	1	0	0	0	6124.48	10	0.784135	10.0013	54.4669	54.4669	0	15.1297	11	0.0113107	0.000000000000000E+000	7.12169e+08	0.000000000000000E+000	0.000000000000000E+000	15.1297	15.1297	0.0000000E+000	0.000000000000000E+000	0.00784237
1	1	0	1	0	0	0	6157.48	10	0.784665	10.0016	54.797	54.797	0	15.2214	11	0.0113826	0.000000000000000E+000	7.11556e+08	0.000000000000000E+000	0.000000000000000E+000	15.2214	15.2214	0.0000000E+000	0.000000000000000E+000	0.00784792
1	1	0	1	0	0	0	6190.48	10	0.784694	10.0011	55.127	55.127	0	15.3131	11	0.0114545	0.000000000000000E+000	7.15571e+08	0.000000000000000E+000	0.000000000000000E+000	15.3131	15.3131	0.0000000E+000	0.000000000000000E+000	0.00784781
1	1	0	1	0	0	0	6223.48	10	0.785213	10.0015	55.4571	55.4571	0	15.4047	11	0.0115265	0.000000000000000E+000	7.15033e+08	0.000000000000000E+000	0.000000000000000E+000	15.4047	15.4047	0.0000000E+000	0.000000000000000E+000	0.00785331
1	1	0	1	0	0	0	6256.48	10	0.785304	10.0013	55.7871	55.7871	0	15.4964	11	0.0115985	0.000000000000000E+000	7.18447e+08	0.000000000000000E+000	0.000000000000000E+000	15.4964	15.4964	0.0000000E+000	0.000000000000000E+000	0.00785407
1	1	0	1	0	0	0	6289.48	10	0.786092	10.0016	56.1171	56.1171	0	15.5881	11	0.0116706	0.000000000000000E+000	7.15441e+08	0.000000000000000E+000	0.000000000000000E+000	15.5881	15.5881	0.0000000E+000	0.000000000000000E+000	0.00786219
1	1	0	1	0	0	0	6322.48	10	0.786354	10.0009	56.4472	56.4472	0	15.6798	11	0.0117426	0.000000000000000E+000	7.1725e+08	0.000000000000000E+000	0.000000000000000E+000	15.6798	15.6798	0.0000000E+000	0.000000000000000E+000	0.00786427
1	1	0	1	0	0	0	6355.48	10	0.786715	10.0009	56.7772	56.7772	0	15.7715	11	0.0118147	0.000000000000000E+000	7.18151e+08	0.000000000000000E+000	0.000000000000000E+000	15.7715	15.7715	0.0000000E+000	0.000000000000000E+000	0.00786783
1	1	0	1	0	0	0	6388.48	10	0.786878	10.0013	57.1073	57.1073	0	15.8631	11	0.0118869	0.000000000000000E+000	7.20843e+08	0.000000000000000E+000	0.000000000000000E+000	15.8631	15.8631	0.0000000E+000	0.000000000000000E+000	0.0078698
1	1	0	1	0	0	0	6421.48	10	0.787313	10.0009	57.4373	57.4373	0	15.9548	11	0.011959	0.000000000000000E+000	7.21045e+08	0.000000000000000E+000	0.000000000000000E+000	15.9548	15.9548	0.0000000E+000	0.000000000000000E+000	0.00787386
1	1	0	1	0	0	0	6454.48	10	0.787663	10.0015	57.7674	57.7674	0	16.0465	11	0.0120312	0.000000000000000E+000	7.22022e+08	0.000000000000000E+000	0.000000000000000E+000	16.0465	16.0465	0.0000000E+000	0.000000000000000E+000	0.0078778
1	1	0	1	0	0	0	6487.48	10	0.788014	10.0015	58.0974	58.0974	0	16.1382	11	0.0121035	0.000000000000000E+000	7.22968e+08	0.000000000000000E+000	0.000000000000000E+000	16.1382	16.1382	0.0000000E+000	0.000000000000000E+000	0.00788132
1	1	0	1	0	0	0	6520.48	10	0.788709	10.0025	58.4275	58.4275	0	16.2298	11	0.0121757	0.000000000000000E+000	7.2084e+08	0.000000000000000E+000	0.000000000000000E+000	16.2298	16.2298	0.0000000E+000	0.000000000000000E+000	0.00788908
1	1	0	1	0	0	0	6553.48	10	0.788511	10.0017	58.7575	58.7575	0	16.3215	11	0.012248	0.000000000000000E+000	7.26689e+08	0.000000000000000E+000	0.000000000000000E+000	16.3215	16.3215	0.0000000E+000	0.000000000000000E+000	0.00788644
1	1	0	1	0	0	0	6586.48	10	0.789443	10.0016	59.0876	59.0876	0	16.4132	11	0.0123204	0.000000000000000E+000	7.22443e+08	0.000000000000000E+000	0.000000000000000E+000	16.4132	16.4132	0.0000000E+000	0.000000000000000E+000	0.00789571
1	1	0	1	0	0	0	6619.48	10	0.789746	10.0025	59.4176	59.4176	0	16.5049	11	0.0123928	0.000000000000000E+000	7.23802e+08	0.000000000000000E+000	0.000000000000000E+000	16.5049	16.5049	0.0000000E+000	0.000000000000000E+000	0.00789944
1	1	0	1	0	0	0	6652.48	10	0.789996	10.0019	59.7476	59.7476	0	16.5966	11	0.0124652	0.000000000000000E+000	7.25613e+08	0.000000000000000E+000	0.000000000000000E+000	16.5966	16.5966	0.0000000E+000	0.000000000000000E+000	0.00790149
1	1	0	1	0	0	0	6685.48	10	0.790274	10.0014	60.0777	60.0777	0	16.6882	11	0.0125376	0.000000000000000E+000	7.27166e+08	0.000000000000000E+000	0.000000000000000E+000	16.6882	16.6882	0.0000000E+000	0.000000000000000E+000	0.00790387
1	1	0	1	0	0	0	6718.48	10	0.790592	10.0013	60.4077	60.4077	0	16.7799	11	0.01261	0.000000000000000E+000	7.28356e+08	0.000000000000000E+000	0.000000000000000E+000	16.7799	16.7799	0.0000000E+000	0.000000000000000E+000	0.00790695
1	1	0	1	0	0	0	6751.48	10	0.790986	10.0014	60.7378	60.7378	0	16.8716	11	0.0126825	0.000000000000000E+000	7.28871e+08	0.000000000000000E+000	0.000000000000000E+000	16.8716	16.8716	0.0000000E+000	0.000000000000000E+000	0.00791094
1	1	0	1	0	0	0	6784.48	10	0.79126	10.0019	61.0678	61.0678	0	16.9633	11	0.0127551	0.000000000000000E+000	7.30431e+08	0.000000000000000E+000	0.000000000000000E+000	16.9633	16.9633	0.0000000E+000	0.000000000000000E+000	0.00791408
1	1	0	1	0	0	0	6817.48	10	0.791621	10.0011	61.3979	61.3979	0	17.055	11	0.0128276	0.000000000000000E+000	7.31221e+08	0.000000000000000E+000	0.000000000000000E+000	17.055	17.055	0.0000000E+000	0.000000000000000E+000	0.00791709
1	1	0	1	0	0	0	6850.48	10	0.792116	10.0012	61.7279	61.7279	0	17.1466	11	0.0129002	0.000000000000000E+000	7.3084e+08	0.000000000000000E+000	0.000000000000000E+000	17.1466	17.1466	0.0000000E+000	0.000000000000000E+000	0.00792209
1	1	0	1	0	0	0	6883.48	10	0.792037	10.0018	62.058	62.058	0	17.2383	11	0.0129728	0.000000000000000E+000	7.35438e+08	0.000000000000000E+000	0.000000000000000E+000	17.2383	17.2383	0.0000000E+000	0.000000000000000E+000	0.00792181
1	1	0	1	0	0	0	6916.48	10	0.792538	10.0016	62.388	62.388	0	17.33	11	0.0130455	0.000000000000000E+000	7.34987e+08	0.000000000000000E+000	0.000000000000000E+000	17.33	17.33	0.0000000E+000	0.000000000000000E+000	0.00792661
1	1	0	1	0	0	0	6949.48	10	0.792961	10.0012	62.7181	62.7181	0	17.4217	11	0.0131182	0.000000000000000E+000	7.35212e+08	0.000000000000000E+000	0.000000000000000E+000	17.4217	17.4217	0.0000000E+000	0.000000000000000E+000	0.00793054
1	1	0	1	0	0	0	6982.48	10	0.793554	10.0006	63.0481	63.0481	0	17.5134	11	0.0131909	0.000000000000000E+000	7.33976e+08	0.000000000000000E+000	0.000000000000000E+000	17.5134	17.5134	0.0000000E+000	0.000000000000000E+000	0.00793602
1	1	0	1	0	0	0	7015.48	10	0.793929	10.0012	63.3781	63.3781	0	17.605	11	0.0132636	0.000000000000000E+000	7.34614e+08	0.000000000000000E+000	0.000000000000000E+000	17.605	17.605	0.0000000E+000	0.000000000000000E+000	0.00794027
1	1	0	1	0	0	0	7048.48	10	0.794061	10.0021	63.7082	63.7082	0	17.6967	11	0.0133364	0.000000000000000E+000	7.37312e+08	0.000000000000000E+000	0.000000000000000E+000	17.6967	17.6967	0.0000000E+000	0.000000000000000E+000	0.0079423
1	1	0	1	0	0	0	7081.48	10	0.794511	10.0012	64.0382	64.0382	0	17.7884	11	0.0134092	0.000000000000000E+000	7.3729e+08	0.000000000000000E+000	0.000000000000000E+000	17.7884	17.7884	0.0000000E+000	0.000000000000000E+000	0.00794604
1	1	0	1	0	0	0	7114.48	10	0.795039	10.002	64.3683	64.3683	0	17.8801	11	0.0134821	0.000000000000000E+000	7.36612e+08	0.000000000000000E+000	0.000000000000000E+000	17.8801	17.8801	0.0000000E+000	0.000000000000000E+000	0.00795198
1	1	0	1	0	0	0	7147.48	10	0.795301	10.0017	64.6983	64.6983	0	17.9718	11	0.013555	0.000000000000000E+000	7.38172e+08	0.000000000000000E+000	0.000000000000000E+000	17.9718	17.9718	0.0000000E+000	0.000000000000000E+000	0.0079544
1	1	0	1	0	0	0	7180.48	10	0.795321	10.0023	65.0284	65.0284	0	18.0634	11	0.0136279	0.000000000000000E+000	7.41772e+08	0.000000000000000E+000	0.000000000000000E+000	18.0634	18.0634	0.0000000E+000	0.000000000000000E+000	0.00795506
1	1	0	1	0	0	0	7213.48	10	0.795816	10.0014	65.3584	65.3584	0	18.1551	11	0.0137008	0.000000000000000E+000	7.41354e+08	0.000000000000000E+000	0.000000000000000E+000	18.1551	18.1551	0.0000000E+000	0.000000000000000E+000	0.00795929
1	1	0	1	0	0	0	7246.48	10	0.79609	10.0017	65.6885	65.6885	0	18.2468	11	0.0137738	0.000000000000000E+000	7.42789e+08	0.000000000000000E+000	0.000000000000000E+000	18.2468	18.2468	0.0000000E+000	0.000000000000000E+000	0.00796224
1	1	0	1	0	0	0	7279.48	10	0.796566	10.0016	66.0185	66.0185	0	18.3385	11	0.0138468	0.000000000000000E+000	7.4252e+08	0.000000000000000E+000	0.000000000000000E+000	18.3385	18.3385	0.0000000E+000	0.000000000000000E+000	0.0079669
1	1	0	1	0	0	0	7312.48	10	0.797283	10.0014	66.3485	66.3485	0	18.4302	11	0.0139199	0.000000000000000E+000	7.40266e+08	0.000000000000000E+000	0.000000000000000E+000	18.4302	18.4302	0.0000000E+000	0.000000000000000E+000	0.00797392
1	1	0	1	0	0	0	7345.48	10	0.797337	10.0005	66.6786	66.6786	0	18.5218	11	0.013993	0.000000000000000E+000	7.435e+08	0.000000000000000E+000	0.000000000000000E+000	18.5218	18.5218	0.0000000E+000	0.000000000000000E+000	0.0079738
1	1	0	1	0	0	0	7378.48	10	0.797479	10.0014	67.0086	67.0086	0	18.6135	11	0.0140661	0.000000000000000E+000	7.46e+08	0.000000000000000E+000	0.000000000000000E+000	18.6135	18.6135	0.0000000E+000	0.000000000000000E+000	0.00797593
1	1	0	1	0	0	0	7411.48	10	0.797796	10.0019	67.3387	67.3387	0	18.7052	11	0.0141392	0.000000000000000E+000	7.47031e+08	0.000000000000000E+000	0.000000000000000E+000	18.7052	18.7052	0.0000000E+000	0.000000000000000E+000	0.00797946
1	1	0	1	0	0	0	7444.48	10	0.798287	10.0015	67.6687	67.6687	0	18.7969	11	0.0142124	0.000000000000000E+000	7.46633e+08	0.000000000000000E+000	0.000000000000000E+000	18.7969	18.7969	0.0000000E+000	0.000000000000000E+000	0.00798406
1	1	0	1	0	0	0	7477.48	10	0.798478	10.0014	67.9988	67.9988	0	18.8885	11	0.0142856	0.000000000000000E+000	7.48693e+08	0.000000000000000E+000	0.000000000000000E+000	18.8885	18.8885	0.0000000E+000	0.000000000000000E+000	0.00798592
1	1	0	1	0	0	0	7510.48	10	0.799135	10.0014	68.3288	68.3288	0	18.9802	11	0.0143588	0.000000000000000E+000	7.46922e+08	0.000000000000000E+000	0.000000000000000E+000	18.9802	18.9802	0.0000000E+000	0.000000000000000E+000	0.00799244
1	1	0	1	0	0	0	7543.48	10	0.799323	10.001	68.6589	68.6589	0	19.0719	11	0.0144321	0.000000000000000E+000	7.48992e+08	0.000000000000000E+000	0.000000000000000E+000	19.0719	19.0719	0.0000000E+000	0.000000000000000E+000	0.00799402
1	1	0	1	0	0	0	7576.48	10	0.799392	10.0015	68.9889	68.9889	0	19.1636	11	0.0145054	0.000000000000000E+000	7.52031e+08	0.000000000000000E+000	0.000000000000000E+000	19.1636	19.1636	0.0000000E+000	0.000000000000000E+000	0.00799511
1	1	0	1	0	0	0	7609.48	10	0.799917	10.0011	69.319	69.319	0	19.2553	11	0.0145787	0.000000000000000E+000	7.51327e+08	0.000000000000000E+000	0.000000000000000E+000	19.2553	19.2553	0.0000000E+000	0.000000000000000E+000	0.00800006
1	1	0	1	0	0	0	7642.48	10	0.800574	10.0014	69.649	69.649	0	19.3469	11	0.0146521	0.000000000000000E+000	7.49568e+08	0.000000000000000E+000	0.000000000000000E+000	19.3469	19.3469	0.0000000E+000	0.000000000000000E+000	0.00800688
1	1	0	1	0	0	0	7675.48	10	0.800644	10.0013	69.9791	69.9791	0	19.4386	11	0.0147255	0.000000000000000E+000	7.52553e+08	0.000000000000000E+000	0.000000000000000E+000	19.4386	19.4386	0.0000000E+000	0.000000000000000E+000	0.00800748
1	1	0	1	0	0	0	7708.48	10	0.800803	10.0014	70.3091	70.3091	0	19.5303	11	0.0147989	0.000000000000000E+000	7.54811e+08	0.000000000000000E+000	0.000000000000000E+000	19.5303	19.5303	0.0000000E+000	0.000000000000000E+000	0.00800917
1	1	0	1	0	0	0	7741.48	10	0.801669	10.0015	70.6391	70.6391	0	19.622	11	0.0148724	0.000000000000000E+000	7.51368e+08	0.000000000000000E+000	0.000000000000000E+000	19.622	19.622	0.0000000E+000	0.000000000000000E+000	0.00801789
1	1	0	1	0	0	0	7774.48	10	0.802124	10.0022	70.9692	70.9692	0	19.7137	11	0.0149459	0.000000000000000E+000	7.51238e+08	0.000000000000000E+000	0.000000000000000E+000	19.7137	19.7137	0.0000000E+000	0.000000000000000E+000	0.008023
1	1	0	1	0	0	0	7807.48	10	0.802033	10.0016	71.2992	71.2992	0	19.8053	11	0.0150194	0.000000000000000E+000	7.5546e+08	0.000000000000000E+000	0.000000000000000E+000	19.8053	19.8053	0.0000000E+000	0.000000000000000E+000	0.00802163
1	1	0	1	0	0	0	7840.48	10	0.802611	10.0009	71.6293	71.6293	0	19.897	11	0.015093	0.000000000000000E+000	7.54341e+08	0.000000000000000E+000	0.000000000000000E+000	19.897	19.897	0.0000000E+000	0.000000000000000E+000	0.00802685
1	1	0	1	0	0	0	7873.48	10	0.802784	10.0013	71.9593	71.9593	0	19.9887	11	0.0151666	0.000000000000000E+000	7.56435e+08	0.000000000000000E+000	0.000000000000000E+000	19.9887	19.9887	0.0000000E+000	0.000000000000000E+000	0.00802889
1	1	0	1	0	0	0	7878.53	10	0.802984	10.0021	72.0099	72.0099	0	20.0027	11	0.0151778	0.000000000000000E+000	7.55377e+08	0.000000000000000E+000	0.000000000000000E+000	20.0027	20.0027	0.0000000E+000	0.000000000000000E+000	0.0080315