File: Data_1/2022_01_24 Co50Ni25Fe25Nx elec1 set1.1_01_CV_C02.mpt
EC-Lab ASCII FILE
Nb header lines : 57

Cyclic Voltammetry

Run on channel : 2 (SN 12477)
User :
CE vs. WE compliance from -10 V to 10 V
Electrode connection : standard
Potential control : Ewe
Ewe ctrl range : min = -2.50 V, max = 2.50 V
Safety Limits :
	Do not start on E overload
Acquisition started on : 01/24/2023 12:28:09.319
Loaded Setting File :  C:\Users\grupogalan\Documents\EC-Lab\Data\Lole Jurado\2023_01_23_CoNiFeNx_400ºC_24h_electrode1__set2_20012023_1.mps
Saved on :
	File : 2022_01_24 Co50Ni25Fe25Nx elec1 set1.1_01_CV_C02.mpr
	Directory : C:\Users\grupogalan\Documents\EC-Lab\Data\Scott\
	Host : 169.254.104.159
Device : VSP (SN 1176)
Address : USB
EC-Lab for windows v11.46 (software)
Internet server v11.40 (firmware)
Command interpretor v11.40 (firmware)
Electrode material :
Initial state :
Electrolyte :
Comments :
Electrode surface area : 0.000 cm²
Characteristic mass : 0.001 g
Equivalent Weight : 0.000 g/eq.
Density : 0.000 g/cm3
Volume (V) : 0.001 cm³
Cycle Definition : Charge/Discharge alternance
Ei (V)              0.000
vs.                 Eoc
dE/dt               10.000
dE/dt unit          mV/s
E1 (V)              1.000
vs.                 Ref
Step percent        50
N                   10
E range min (V)     -2.500
E range max (V)     2.500
I Range             Auto
I Range min         Unset
I Range max         Unset
I Range init        Unset
Bandwidth           5
E2 (V)              0.000
vs.                 Ref
nc cycles           2
Reverse Scan        1
Ef (V)              0.000
vs.                 Eoc

mode	ox/red	error	control changes	counter inc.	time/s	control/V	Ewe/V	<I>/mA	cycle number	(Q-Qo)/C	I Range	P/W
2	1	0	1	0	0.000000000000000E+000	-0.142864	-0.140897	0.0108378	1	0.0000000E+000	13	-1.52701e-06
2	0	0	1	0	0.8551	-0.134313	-0.13502	0.000911048	1	6.50914e-07	13	-1.2301e-07
2	0	0	1	0	1.7554	-0.12531	-0.126374	0.00136825	1	1.74631e-06	13	-1.72911e-07
2	1	0	0	0	2.6556	-0.116308	-0.115656	0.00179236	1	3.23199e-06	13	-2.07296e-07
2	1	0	1	0	3.5558	-0.107306	-0.10837	0.00225339	1	5.13116e-06	13	-2.442e-07
2	1	0	0	0	4.456	-0.0983038	-0.0993931	0.00269842	1	7.44065e-06	13	-2.68204e-07
2	1	0	1	0	5.3562	-0.0893017	-0.0898829	0.0029972	1	1.01013e-05	13	-2.69397e-07
2	1	0	0	0	6.2564	-0.0802996	-0.0811216	0.00321971	1	1.30156e-05	13	-2.61188e-07
2	1	0	1	0	7.1566	-0.0712975	-0.0733721	0.00341735	1	1.61473e-05	13	-2.50738e-07
2	1	0	0	0	8.0568	-0.0622954	-0.0627429	0.00357806	1	1.94154e-05	13	-2.24498e-07
2	1	0	1	0	8.957	-0.0532932	-0.052661	0.00364902	1	2.27657e-05	13	-1.92161e-07
2	1	0	0	0	9.8572	-0.0442911	-0.0439824	0.00371813	1	2.61942e-05	13	-1.63532e-07
2	1	0	1	0	10.7574	-0.035289	-0.0361344	0.00377779	1	2.96978e-05	13	-1.36508e-07
2	0	0	0	0	11.6576	-0.0262869	-0.0270134	0.00384632	1	3.32836e-05	13	-1.03902e-07
2	0	0	1	0	12.5578	-0.0172848	-0.0170663	0.00390775	1	3.69422e-05	13	-6.66906e-08
2	0	0	0	0	13.458	-0.00828266	-0.00857963	0.00401532	1	4.06669e-05	13	-3.445e-08
2	1	0	1	0	14.3582	0.000719453	0.000861606	0.00412216	1	4.44843e-05	13	3.55168e-09
2	0	0	0	0	15.2584	0.00972156	0.00792689	0.00421904	1	4.83965e-05	13	3.34439e-08
2	1	0	1	0	16.1587	0.0187239	0.0177848	0.00438039	1	5.24328e-05	13	7.79041e-08
2	1	0	1	0	17.0589	0.0277251	0.0280302	0.0045128	1	5.65388e-05	13	1.26495e-07
2	1	0	0	0	17.9592	0.0367279	0.0354827	0.00463723	1	6.07456e-05	13	1.64541e-07
2	1	0	1	0	18.8594	0.04573	0.04545	0.00475471	1	6.5062e-05	13	2.16102e-07
2	1	0	0	0	19.7596	0.0547321	0.0556963	0.00489302	1	6.949e-05	13	2.72523e-07
2	1	0	1	0	20.6598	0.0637342	0.0639835	0.00502895	1	7.40497e-05	13	3.2177e-07
2	1	0	0	0	21.56	0.0727363	0.0724245	0.00521909	1	7.87659e-05	13	3.7799e-07
2	1	0	1	0	22.4602	0.0817385	0.0798759	0.00558728	1	8.37308e-05	13	4.46289e-07
2	1	0	0	0	23.3604	0.0907406	0.0912348	0.00607983	1	8.90717e-05	13	5.54692e-07
2	1	0	1	0	24.2606	0.0997427	0.099854	0.0068337	1	9.49824e-05	13	6.82373e-07
2	1	0	0	0	25.1608	0.108745	0.109275	0.00799482	1	0.000101733	13	8.73635e-07
2	1	0	1	0	26.061	0.117747	0.117882	0.00971814	1	0.000109774	13	1.14559e-06
2	1	0	0	0	26.9612	0.126749	0.128587	0.0120637	1	0.000119663	13	1.55124e-06
2	0	0	1	0	27.8614	0.135751	0.134938	0.0150027	1	0.000131963	13	2.02442e-06
2	1	0	0	0	28.7616	0.144753	0.146194	0.0182515	1	0.000147119	13	2.66825e-06
2	1	0	1	0	29.6618	0.153755	0.15456	0.021364	1	0.000165223	13	3.30204e-06
2	1	0	0	0	30.562	0.162757	0.161348	0.0239402	1	0.000185985	13	3.8627e-06
2	1	0	1	0	31.4623	0.17176	0.170741	0.0260881	1	0.000208921	13	4.45431e-06
2	1	0	1	0	32.3625	0.180761	0.18078	0.02773	1	0.000233604	13	5.01303e-06
2	1	0	0	0	33.2628	0.189764	0.189035	0.0291557	1	0.000259742	13	5.51145e-06
2	1	0	1	0	34.163	0.198766	0.197507	0.0303807	1	0.00028715	13	6.00039e-06
2	1	0	0	0	35.0632	0.207768	0.207871	0.0316135	1	0.000315749	13	6.57153e-06
2	1	0	1	0	35.9634	0.21677	0.21644	0.0329548	1	0.000345556	13	7.13275e-06
2	1	0	0	0	36.8636	0.225772	0.225717	0.0343502	1	0.000376645	13	7.75342e-06
2	1	0	1	0	37.7638	0.234774	0.23392	0.0358692	1	0.000409135	13	8.39054e-06
2	1	0	0	0	38.664	0.243776	0.242664	0.0376295	1	0.000443176	13	9.13131e-06
2	1	0	1	0	39.5642	0.252779	0.252768	0.0395913	1	0.000478968	13	1.00074e-05
2	1	0	0	0	40.4644	0.261781	0.262761	0.0418428	1	0.000516784	13	1.09946e-05
2	1	0	1	0	41.3646	0.270783	0.270519	0.044586	1	0.000556928	13	1.20613e-05
2	1	0	0	0	42.2648	0.279785	0.278277	0.0476992	1	0.000599782	13	1.32736e-05
2	1	0	1	0	43.165	0.288787	0.288335	0.0512276	1	0.000645727	13	1.47707e-05
2	1	0	0	0	44.0652	0.297789	0.296848	0.0553746	1	0.000695255	13	1.64379e-05
2	1	0	1	0	44.9654	0.306791	0.30611	0.0600437	1	0.000748887	13	1.838e-05
2	1	0	0	0	45.8656	0.315793	0.315061	0.0654786	1	0.000807198	13	2.06298e-05
2	1	0	1	0	46.7658	0.324795	0.324349	0.071768	1	0.000870839	13	2.32779e-05
2	1	0	1	0	47.6661	0.333798	0.333367	0.0788791	1	0.000940605	13	2.62957e-05
2	1	0	0	0	48.5964	0.3431	0.340932	0.0887339	1	0.00102081	12	3.02522e-05
2	1	0	1	0	49.4966	0.352102	0.351085	0.0978287	1	0.00110592	12	3.43462e-05
2	1	0	0	0	50.3968	0.361104	0.361101	0.108726	1	0.00120017	12	3.9261e-05
2	1	0	1	0	51.297	0.370106	0.369391	0.12144	1	0.00130507	12	4.48588e-05
2	1	0	0	0	52.1972	0.379108	0.379185	0.135825	1	0.00142214	12	5.15027e-05
2	1	0	1	0	53.0974	0.38811	0.386395	0.152449	1	0.00155317	12	5.89057e-05
2	1	0	0	0	53.9976	0.397112	0.395644	0.17112	1	0.00170012	12	6.77028e-05
2	1	0	1	0	54.8978	0.406115	0.405563	0.192087	1	0.00186514	12	7.79033e-05
2	1	0	0	0	55.798	0.415117	0.415928	0.215578	1	0.00205026	12	8.9665e-05
2	1	0	1	0	56.6982	0.424119	0.423715	0.241446	1	0.00225771	12	0.000102304
2	1	0	0	0	57.5984	0.433121	0.432226	0.270044	1	0.00248982	12	0.00011672
2	1	0	1	0	58.4986	0.442123	0.441193	0.301061	1	0.00274879	12	0.000132826
2	1	0	0	0	59.3988	0.451125	0.451048	0.333926	1	0.00303656	12	0.000150617
2	1	0	1	0	60.299	0.460127	0.460372	0.368764	1	0.003355	12	0.000169769
2	1	0	0	0	61.1992	0.469129	0.46859	0.405034	1	0.00370574	12	0.000189795
2	1	0	1	0	62.0995	0.478132	0.477215	0.443513	1	0.00409041	12	0.000211651
2	1	0	1	0	62.9997	0.487133	0.486453	0.48359	1	0.00451043	12	0.000235244
2	1	0	0	0	63.9	0.496136	0.494877	0.525715	1	0.00496756	12	0.000260164
2	1	0	1	0	64.8002	0.505138	0.505352	0.569101	1	0.00546342	12	0.000287596
2	1	0	0	0	65.7004	0.51414	0.514359	0.615047	1	0.0059996	12	0.000316355
2	1	0	1	0	66.6006	0.523142	0.523402	0.662117	1	0.00657775	12	0.000346553
2	1	0	0	0	67.5008	0.532144	0.530966	0.71065	1	0.00719941	12	0.00037733
2	1	0	1	0	68.401	0.541146	0.540843	0.761864	1	0.0078662	12	0.000412049
2	1	0	0	0	69.3012	0.550148	0.549384	0.814768	1	0.0085798	12	0.00044762
2	1	0	1	0	70.2014	0.55915	0.559113	0.870435	1	0.00934243	12	0.000486672
2	1	0	0	0	71.1016	0.568153	0.568994	0.929185	1	0.0101566	12	0.0005287
2	1	0	1	0	72.0018	0.577155	0.576124	0.992198	1	0.0110255	12	0.000571629
2	1	0	0	0	72.932	0.586457	0.584802	1.06595	1	0.0119886	11	0.000623367
2	1	0	1	0	73.8322	0.595459	0.595684	1.14401	1	0.0129868	11	0.000681467
2	1	0	0	0	74.7324	0.604461	0.603299	1.23683	1	0.0140619	11	0.000746176
2	1	0	1	0	75.6326	0.613463	0.612535	1.35375	1	0.0152311	11	0.000829217
2	1	0	0	0	76.5328	0.622465	0.622461	1.50396	1	0.0165185	11	0.000936156
2	1	0	1	0	77.433	0.631467	0.631433	1.71292	1	0.0179664	11	0.0010816
2	1	0	1	0	78.3333	0.640469	0.640504	2.00087	1	0.0196365	11	0.00128156
2	1	0	0	0	79.2336	0.649472	0.646884	2.39456	1	0.0216119	11	0.001549
2	1	0	1	0	80.1338	0.658474	0.657331	2.91736	1	0.0239986	11	0.00191767
2	1	0	0	0	81.034	0.667476	0.667607	3.58121	1	0.0269187	11	0.00239084
2	1	0	1	0	81.9342	0.676478	0.677178	4.39105	1	0.0305036	11	0.00297352
2	1	0	0	0	82.8344	0.68548	0.684133	5.34898	1	0.0348851	11	0.00365941
2	1	0	1	0	83.7346	0.694482	0.692735	6.44247	1	0.0401896	11	0.00446293
2	1	0	0	0	84.6348	0.703484	0.702897	7.66164	1	0.046537	11	0.00538534
2	1	0	1	0	85.535	0.712486	0.713474	9.00238	1	0.0540389	11	0.00642297
2	1	0	0	0	86.4352	0.721488	0.721689	10.4544	1	0.0627973	11	0.00754486
2	1	0	1	0	87.3654	0.730791	0.730374	12.0686	1	0.0732736	10	0.00881462
2	1	0	0	0	88.2656	0.739793	0.740864	13.6955	1	0.0848728	10	0.0101465
2	1	0	1	0	89.1658	0.748795	0.747926	15.4121	1	0.0979816	10	0.0115271
2	1	0	0	0	90.066	0.757797	0.758064	17.198	1	0.112663	10	0.0130372
2	1	0	1	0	90.9662	0.766799	0.767164	19.0543	1	0.128985	10	0.0146178
2	1	0	0	0	91.8664	0.775801	0.775523	20.9543	1	0.146996	10	0.0162505
2	1	0	1	0	92.7667	0.784804	0.783808	22.9327	1	0.16676	10	0.0179748
2	1	0	1	0	93.6669	0.793805	0.792373	24.9529	1	0.188319	10	0.019772
2	1	0	0	0	94.5672	0.802808	0.801209	27.0376	1	0.211733	10	0.0216628
2	1	0	1	0	95.4674	0.81181	0.812103	29.1408	1	0.237031	10	0.0236653
2	1	0	0	0	96.3676	0.820812	0.821366	31.3063	1	0.264244	10	0.0257139
2	1	0	1	0	97.2678	0.829814	0.829317	33.5426	1	0.293441	10	0.0278174
2	1	0	0	0	98.168	0.838816	0.837447	35.8481	1	0.324672	10	0.0300209
2	1	0	1	0	99.0682	0.847818	0.847224	38.1891	1	0.358007	10	0.0323547
2	1	0	0	0	99.9684	0.85682	0.856379	40.6421	1	0.393494	10	0.0348051
2	1	0	1	0	100.869	0.865822	0.864244	43.1405	1	0.431226	10	0.0372839
2	1	0	0	0	101.769	0.874825	0.874062	45.6358	1	0.471181	10	0.0398885
2	1	0	1	0	102.669	0.883827	0.882977	48.1503	1	0.513412	10	0.0425156
2	1	0	0	0	103.569	0.892829	0.890234	50.7115	1	0.557933	10	0.0451452
2	1	0	1	0	104.469	0.901831	0.902604	53.2873	1	0.604763	10	0.0480974
2	1	0	0	0	105.37	0.910833	0.911182	56.0471	1	0.654011	10	0.0510691
2	1	0	1	0	106.27	0.919835	0.919589	58.6908	1	0.705675	10	0.0539714
2	1	0	0	0	107.17	0.928837	0.92919	61.4263	1	0.759757	10	0.0570767
2	1	0	1	0	108.07	0.93784	0.938114	64.1128	1	0.816294	10	0.0601451
2	1	0	1	0	108.97	0.946841	0.946009	67.107	1	0.875325	10	0.0634838
2	1	0	0	0	109.871	0.955843	0.95472	70.0681	1	0.937065	10	0.0668954
2	1	0	1	0	110.771	0.964846	0.96422	72.8068	1	1.00139	10	0.0702018
2	1	0	0	0	111.671	0.973848	0.975105	75.6695	1	1.06827	10	0.0737857
2	1	0	1	0	112.571	0.98285	0.984272	78.4973	1	1.13766	10	0.0772627
2	1	0	0	0	113.472	0.991852	0.992567	81.2402	1	1.20956	10	0.0806363
2	1	0	1	0	114.287	1	1.00072	83.9549	1	1.27691	10	0.0840153
2	1	0	0	0	115.142	0.991452	0.989588	80.9165	1	1.3474	10	0.080074
2	1	0	1	0	116.043	0.98245	0.981069	78.0033	1	1.41899	10	0.0765266
2	1	0	0	0	116.943	0.973448	0.974277	74.8901	1	1.48778	10	0.0729638
2	1	0	1	0	117.843	0.964446	0.965345	71.8023	1	1.55381	10	0.069314
2	1	0	1	0	118.743	0.955443	0.95464	68.8251	1	1.61708	10	0.0657032
2	1	0	1	0	119.643	0.946442	0.946365	65.8631	1	1.6777	10	0.0623306
2	1	0	1	0	120.544	0.937439	0.937042	63.0494	1	1.73571	10	0.0590799
2	1	0	0	0	121.444	0.928437	0.927398	60.2091	1	1.79115	10	0.0558377
2	1	0	1	0	122.344	0.919435	0.919304	57.3759	1	1.84403	10	0.0527459
2	1	0	0	0	123.244	0.910433	0.909538	54.5762	1	1.89438	10	0.0496391
2	1	0	1	0	124.145	0.901431	0.901416	51.9344	1	1.9423	10	0.0468145
2	1	0	0	0	125.045	0.892429	0.891792	49.2937	1	1.98783	10	0.0439597
2	1	0	1	0	125.945	0.883427	0.881582	46.7077	1	2.03103	10	0.0411767
2	1	0	0	0	126.845	0.874424	0.873003	44.2879	1	2.07197	10	0.0386635
2	1	0	1	0	127.745	0.865422	0.865035	42.0134	1	2.11074	10	0.0363431
2	1	0	0	0	128.646	0.85642	0.857333	39.7233	1	2.14751	10	0.0340561
2	1	0	1	0	129.546	0.847418	0.84746	37.3612	1	2.1822	10	0.0316621
2	1	0	0	0	130.446	0.838416	0.838759	35.122	1	2.21479	10	0.0294589
2	1	0	1	0	131.346	0.829414	0.829569	32.9201	1	2.24539	10	0.0273095
2	1	0	0	0	132.246	0.820412	0.819812	30.786	1	2.27406	10	0.0252387
2	1	0	1	0	133.147	0.81141	0.809918	28.7334	1	2.30082	10	0.0232717
2	1	0	1	0	134.047	0.802407	0.802018	26.7122	1	2.32576	10	0.0214237
2	1	0	1	0	134.947	0.793406	0.795762	24.7266	1	2.34889	10	0.0196765
2	1	0	1	0	135.847	0.784403	0.785789	22.8448	1	2.37029	10	0.0179511
2	1	0	0	0	136.748	0.775401	0.775196	21.004	1	2.39001	10	0.0162822
2	1	0	1	0	137.648	0.766399	0.768509	19.2379	1	2.4081	10	0.0147845
2	1	0	0	0	138.548	0.757397	0.755728	17.5394	1	2.42464	10	0.013255
2	1	0	1	0	139.448	0.748395	0.749862	15.9061	1	2.43969	10	0.0119273
2	1	0	0	0	140.348	0.739393	0.741962	14.3543	1	2.45329	10	0.0106504
2	1	0	1	0	141.249	0.730391	0.730084	12.879	1	2.46553	10	0.00940279
2	1	0	0	0	142.149	0.721388	0.721015	11.4666	1	2.47647	10	0.00826758
2	1	0	1	0	143.049	0.712386	0.711574	10.1346	1	2.48618	10	0.00721149
2	1	0	0	0	143.949	0.703384	0.703038	8.88919	1	2.49473	10	0.00624944
2	1	0	1	0	144.849	0.694382	0.695272	7.71888	1	2.50219	10	0.00536673
2	1	0	0	0	145.75	0.68538	0.684267	6.63203	1	2.50863	10	0.00453808
2	1	0	1	0	146.65	0.676378	0.6747	5.63304	1	2.51414	10	0.00380061
2	1	0	0	0	147.55	0.667376	0.667675	4.7233	1	2.51878	10	0.00315363
2	1	0	1	0	148.48	0.658074	0.657514	3.8634	1	2.52276	11	0.00254024
2	1	0	1	0	149.38	0.649071	0.64903	3.13395	1	2.52589	11	0.00203403
2	1	0	1	0	150.281	0.64007	0.640018	2.49435	1	2.52841	11	0.00159643
2	1	0	1	0	151.181	0.631067	0.630089	1.94552	1	2.5304	11	0.00122585
2	1	0	0	0	152.081	0.622065	0.621778	1.47919	1	2.53193	11	0.000919725
2	1	0	1	0	152.981	0.613063	0.611769	1.10118	1	2.53308	11	0.000673667
2	1	0	0	0	153.882	0.604061	0.604424	0.792441	1	2.53392	11	0.00047897
2	1	0	1	0	154.782	0.595059	0.594126	0.551327	1	2.53451	11	0.000327558
2	1	0	0	0	155.712	0.585757	0.586055	0.356557	1	2.53492	12	0.000208962
2	1	0	1	0	156.612	0.576755	0.576503	0.219505	1	2.53517	12	0.000126545
2	1	0	0	0	157.512	0.567752	0.566801	0.118245	1	2.53532	12	6.70214e-05
2	1	0	1	0	158.413	0.55875	0.55916	0.0445056	1	2.53538	12	2.48858e-05
2	1	0	0	0	159.313	0.549748	0.550297	-0.00897621	1	2.53539	12	-4.93958e-06
2	0	0	1	0	160.213	0.540746	0.540925	-0.0476313	1	2.53536	12	-2.5765e-05
2	0	0	0	0	161.113	0.531744	0.534006	-0.0762112	1	2.5353	12	-4.06972e-05
2	0	0	1	0	162.013	0.522742	0.523076	-0.0979664	1	2.53522	12	-5.12439e-05
2	0	0	0	0	162.914	0.51374	0.515378	-0.114469	1	2.53512	12	-5.89948e-05
2	0	0	1	0	163.814	0.504738	0.504098	-0.126417	1	2.535	12	-6.37265e-05
2	0	0	1	0	164.714	0.495735	0.494595	-0.136926	1	2.53488	12	-6.7723e-05
2	0	0	1	0	165.614	0.486734	0.487311	-0.143967	1	2.53475	12	-7.01566e-05
2	0	0	1	0	166.515	0.477731	0.477717	-0.14957	1	2.53461	12	-7.14522e-05
2	0	0	0	0	167.415	0.468729	0.467869	-0.154048	1	2.53447	12	-7.20742e-05
2	0	0	1	0	168.315	0.459727	0.45843	-0.157417	1	2.53433	12	-7.21645e-05
2	0	0	0	0	169.215	0.450725	0.450934	-0.15994	1	2.53418	12	-7.21226e-05
2	0	0	1	0	170.115	0.441723	0.443053	-0.161564	1	2.53404	12	-7.15817e-05
2	0	0	0	0	171.016	0.432721	0.433093	-0.162517	1	2.53389	12	-7.0385e-05
2	0	0	1	0	171.916	0.423719	0.424452	-0.162948	1	2.53374	12	-6.91637e-05
2	0	0	0	0	172.816	0.414717	0.412331	-0.162793	1	2.53359	12	-6.71247e-05
2	0	0	1	0	173.716	0.405714	0.405823	-0.16237	1	2.53344	12	-6.58934e-05
2	0	0	0	0	174.616	0.396712	0.395235	-0.161235	1	2.53329	12	-6.37258e-05
2	0	0	1	0	175.517	0.38771	0.385805	-0.159602	1	2.53314	12	-6.15752e-05
2	0	0	0	0	176.417	0.378708	0.377818	-0.157913	1	2.533	12	-5.96624e-05
2	0	0	1	0	177.317	0.369706	0.368481	-0.155683	1	2.53286	12	-5.73663e-05
2	0	0	0	0	178.217	0.360704	0.359915	-0.153251	1	2.53271	12	-5.51572e-05
2	0	0	1	0	179.117	0.351702	0.351502	-0.150706	1	2.53258	12	-5.29734e-05
2	0	0	1	0	180.018	0.342699	0.342372	-0.147919	1	2.53244	12	-5.06433e-05
2	0	0	1	0	180.918	0.333698	0.333948	-0.144919	1	2.53231	12	-4.83955e-05
2	0	0	1	0	181.818	0.324695	0.325666	-0.1421	1	2.53217	12	-4.62772e-05
2	0	0	0	0	182.718	0.315693	0.315432	-0.139046	1	2.53205	12	-4.38595e-05
2	0	0	1	0	183.619	0.306691	0.304507	-0.135906	1	2.53192	12	-4.13845e-05
2	0	0	0	0	184.519	0.297689	0.29616	-0.131969	1	2.5318	12	-3.90839e-05
2	0	0	1	0	185.419	0.288687	0.289443	-0.127697	1	2.53168	12	-3.69611e-05
2	0	0	0	0	186.319	0.279685	0.27734	-0.123022	1	2.53157	12	-3.4119e-05
2	0	0	1	0	187.219	0.270683	0.270522	-0.117964	1	2.53145	12	-3.19118e-05
2	0	0	0	0	188.12	0.261681	0.261556	-0.112779	1	2.53135	12	-2.9498e-05
2	0	0	1	0	189.02	0.252679	0.250915	-0.10774	1	2.53125	12	-2.70336e-05
2	0	0	0	0	189.92	0.243676	0.243349	-0.102698	1	2.53115	12	-2.49914e-05
2	0	0	1	0	190.82	0.234674	0.23292	-0.0977015	1	2.53106	12	-2.27566e-05
2	0	0	0	0	191.72	0.225672	0.226322	-0.0929496	1	2.53097	12	-2.10365e-05
2	0	0	1	0	192.621	0.21667	0.216668	-0.0880544	1	2.53089	12	-1.90786e-05
2	0	0	0	0	193.521	0.207668	0.20752	-0.0834886	1	2.53081	12	-1.73255e-05
2	0	0	1	0	194.421	0.198666	0.197019	-0.0785047	1	2.53074	12	-1.54669e-05
2	0	0	1	0	195.321	0.189663	0.188408	-0.0742133	1	2.53067	12	-1.39823e-05
2	0	0	1	0	196.221	0.180662	0.180774	-0.0701275	1	2.5306	12	-1.26772e-05
2	0	0	1	0	197.122	0.17166	0.171488	-0.0660887	1	2.53054	12	-1.13334e-05
2	0	0	0	0	198.022	0.162657	0.162553	-0.0625268	1	2.53048	12	-1.01639e-05
2	0	0	1	0	198.922	0.153655	0.151798	-0.0592309	1	2.53043	12	-8.99115e-06
2	0	0	0	0	199.822	0.144653	0.144961	-0.0564651	1	2.53037	12	-8.18524e-06
2	0	0	1	0	200.723	0.135651	0.13366	-0.0536921	1	2.53032	12	-7.17651e-06
2	0	0	0	0	201.623	0.126649	0.127224	-0.0511796	1	2.53028	12	-6.51129e-06
2	0	0	1	0	202.523	0.117647	0.118623	-0.0487838	1	2.53023	12	-5.78688e-06
2	0	0	0	0	203.423	0.108645	0.107847	-0.0468131	1	2.53019	12	-5.04867e-06
2	0	0	1	0	204.323	0.0996427	0.0977528	-0.0448632	1	2.53014	12	-4.38551e-06
2	0	0	0	0	205.224	0.0906405	0.0908328	-0.0429438	1	2.5301	12	-3.90071e-06
2	0	0	1	0	206.124	0.0816384	0.0802089	-0.0414015	1	2.53007	12	-3.32077e-06
2	0	0	0	0	207.024	0.0726363	0.0717308	-0.0399319	1	2.53003	12	-2.86435e-06
2	0	0	1	0	207.924	0.0636342	0.0633343	-0.0386424	1	2.52999	12	-2.44739e-06
2	0	0	0	0	208.824	0.0546321	0.0544744	-0.037236	1	2.52996	12	-2.02841e-06
2	0	0	1	0	209.725	0.04563	0.0455348	-0.0363576	1	2.52992	12	-1.65554e-06
2	0	0	0	0	210.625	0.0366279	0.0364585	-0.0353282	1	2.52989	12	-1.28801e-06
2	0	0	1	0	211.525	0.0276255	0.027163	-0.0343792	1	2.52986	12	-9.33842e-07
2	0	0	1	0	212.425	0.0186243	0.0179366	-0.0334615	1	2.52983	12	-6.00186e-07
2	0	0	0	0	213.326	0.00962154	0.00949247	-0.0328224	1	2.5298	12	-3.11565e-07
2	0	0	1	0	214.226	0.000619429	-0.00123114	-0.032074	1	2.52977	12	3.94876e-08
2	0	0	0	1	214.946	0.00652081	0.00630721	-0.028131	2	2.52975	12	-1.77428e-07
2	0	0	1	1	215.847	0.0155229	0.0146771	-0.0259356	2	2.52972	12	-3.8066e-07
2	0	0	0	1	216.747	0.024525	0.0249489	-0.0238869	2	2.5297	12	-5.95952e-07
2	0	0	1	1	217.647	0.0335272	0.0330378	-0.0222487	2	2.52968	12	-7.35048e-07
2	0	0	0	1	218.547	0.0425293	0.0424111	-0.0206345	2	2.52966	12	-8.75133e-07
2	1	0	1	1	219.447	0.0515314	0.050396	-0.0195675	2	2.52964	12	-9.86122e-07
2	0	0	0	1	220.348	0.0605335	0.0609149	-0.0182985	2	2.52963	12	-1.11465e-06
2	0	0	1	1	221.248	0.0695365	0.0685598	-0.0171505	2	2.52961	12	-1.17584e-06
2	0	0	1	1	222.148	0.0785375	0.0795676	-0.016006	2	2.5296	12	-1.27356e-06
2	0	0	0	1	223.048	0.0875398	0.0874015	-0.0151347	2	2.52958	12	-1.32279e-06
2	0	0	1	1	223.949	0.0965419	0.0952464	-0.0140854	2	2.52957	12	-1.34158e-06
2	0	0	0	1	224.849	0.105544	0.105426	-0.0129764	2	2.52956	12	-1.36805e-06
2	0	0	1	1	225.749	0.114546	0.114287	-0.0121775	2	2.52955	12	-1.39173e-06
2	0	0	0	1	226.649	0.123548	0.12317	-0.0111242	2	2.52954	12	-1.37016e-06
2	0	0	1	1	227.549	0.13255	0.132424	-0.00992714	2	2.52953	12	-1.31459e-06
2	0	0	0	1	228.45	0.141552	0.140067	-0.00873054	2	2.52952	12	-1.22286e-06
2	0	0	1	1	229.35	0.150555	0.150274	-0.00727746	2	2.52952	12	-1.09361e-06
2	0	0	0	1	230.25	0.159557	0.159466	-0.00636786	2	2.52951	12	-1.01546e-06
2	0	0	1	1	231.15	0.168559	0.168196	-0.00492831	2	2.52951	12	-8.2892e-07
2	1	0	0	1	232.05	0.177561	0.176665	-0.00382564	2	2.5295	12	-6.75858e-07
2	1	0	1	1	232.951	0.186563	0.185874	-0.00231541	2	2.5295	12	-4.30374e-07
2	1	0	0	1	233.851	0.195565	0.195611	-0.000824126	2	2.5295	12	-1.61208e-07
2	1	0	1	1	234.751	0.204567	0.202459	0.000770101	2	2.5295	12	1.55914e-07
2	1	0	0	1	235.651	0.213569	0.21273	0.00260505	2	2.5295	12	5.54172e-07
2	1	0	1	1	236.551	0.222571	0.222227	0.00466525	2	2.52951	12	1.03675e-06
2	1	0	1	1	237.452	0.231574	0.23105	0.00712634	2	2.52951	12	1.64654e-06
2	1	0	1	1	238.352	0.240575	0.240249	0.00982328	2	2.52952	12	2.36003e-06
2	1	0	1	1	239.252	0.249578	0.24751	0.013089	2	2.52953	12	3.23966e-06
2	1	0	0	1	240.152	0.25858	0.257763	0.0165526	2	2.52955	12	4.26665e-06
2	1	0	1	1	241.053	0.267582	0.266551	0.0208119	2	2.52957	12	5.54743e-06
2	1	0	0	1	241.953	0.276584	0.276544	0.0253251	2	2.52959	12	7.00352e-06
2	1	0	1	1	242.853	0.285586	0.285449	0.0304025	2	2.52961	12	8.67835e-06
2	1	0	0	1	243.753	0.294588	0.293438	0.0361099	2	2.52964	12	1.0596e-05
2	1	0	1	1	244.653	0.30359	0.303384	0.042395	2	2.52968	12	1.2862e-05
2	1	0	0	1	245.554	0.312593	0.312629	0.0492007	2	2.52972	12	1.53816e-05
2	1	0	1	1	246.454	0.321595	0.321368	0.0565016	2	2.52977	12	1.81578e-05
2	1	0	0	1	247.354	0.330597	0.330958	0.0642804	2	2.52983	12	2.12741e-05
2	1	0	1	1	248.254	0.339599	0.342246	0.0726202	2	2.52989	12	2.4854e-05
2	1	0	0	1	249.154	0.348601	0.348388	0.08193	2	2.52996	12	2.85435e-05
2	1	0	1	1	250.055	0.357603	0.358278	0.0916158	2	2.53004	12	3.28239e-05
2	1	0	0	1	250.955	0.366605	0.365334	0.102594	2	2.53013	12	3.7481e-05
2	1	0	1	1	251.855	0.375607	0.375724	0.114517	2	2.53023	12	4.30268e-05
2	1	0	1	1	252.755	0.38461	0.383912	0.127641	2	2.53034	12	4.90029e-05
2	1	0	1	1	253.655	0.393611	0.393032	0.1414	2	2.53046	12	5.55749e-05
2	1	0	1	1	254.556	0.402614	0.400854	0.155469	2	2.5306	12	6.23204e-05
2	1	0	0	1	255.456	0.411616	0.411143	0.169034	2	2.53074	12	6.94973e-05
2	1	0	1	1	256.356	0.420618	0.420312	0.181961	2	2.5309	12	7.64802e-05
2	1	0	0	1	257.256	0.42962	0.430315	0.194154	2	2.53108	12	8.35474e-05
2	1	0	1	1	258.157	0.438622	0.438478	0.206579	2	2.53126	12	9.05804e-05
2	1	0	0	1	259.057	0.447624	0.446318	0.218841	2	2.53145	12	9.76725e-05
2	1	0	1	1	259.957	0.456626	0.454165	0.231822	2	2.53166	12	0.000105285
2	1	0	0	1	260.857	0.465629	0.464143	0.246019	2	2.53188	12	0.000114188
2	1	0	1	1	261.757	0.474631	0.473918	0.261294	2	2.53211	12	0.000123832
2	1	0	0	1	262.658	0.483633	0.484446	0.277966	2	2.53235	12	0.000134659
2	1	0	1	1	263.558	0.492635	0.492007	0.295651	2	2.53261	12	0.000145462
2	1	0	0	1	264.458	0.501637	0.501717	0.314511	2	2.53289	12	0.000157796
2	1	0	1	1	265.358	0.510639	0.509655	0.333705	2	2.53319	12	0.000170074
2	1	0	0	1	266.258	0.519641	0.519442	0.353345	2	2.5335	12	0.000183542
2	1	0	1	1	267.159	0.528643	0.527107	0.374552	2	2.53383	12	0.000197429
2	1	0	0	1	268.059	0.537645	0.537094	0.396332	2	2.53418	12	0.000212868
2	1	0	1	1	268.959	0.546648	0.548241	0.420122	2	2.53455	12	0.000230328
2	1	0	1	1	269.859	0.55565	0.555817	0.446455	2	2.53494	12	0.000248147
2	1	0	0	1	270.76	0.564652	0.563209	0.477061	2	2.53536	12	0.000268685
2	1	0	1	1	271.66	0.573654	0.572323	0.51413	2	2.53581	12	0.000294249
2	1	0	0	1	272.56	0.582656	0.58297	0.562939	2	2.5363	12	0.000328177
2	1	0	1	1	273.46	0.591658	0.591338	0.631024	2	2.53684	12	0.000373149
2	1	0	0	1	274.36	0.60066	0.60117	0.730104	2	2.53745	12	0.000438916
2	1	0	1	1	275.261	0.609662	0.608781	0.875941	2	2.53818	12	0.000533257
2	1	0	0	1	276.191	0.618964	0.619468	1.09702	2	2.53909	11	0.000679569
2	1	0	1	1	277.091	0.627967	0.626757	1.39737	2	2.54021	11	0.000875814
2	1	0	0	1	277.991	0.636969	0.634497	1.80426	2	2.54165	11	0.0011448
2	1	0	1	1	278.891	0.645971	0.645211	2.32773	2	2.54351	11	0.00150188
2	1	0	0	1	279.792	0.654973	0.655436	2.97713	2	2.54589	11	0.00195132
2	1	0	1	1	280.692	0.663975	0.663396	3.75452	2	2.54892	11	0.00249073
2	1	0	0	1	281.592	0.672977	0.671172	4.66054	2	2.5527	11	0.00312803
2	1	0	1	1	282.492	0.681979	0.681321	5.69459	2	2.55736	11	0.00387985
2	1	0	0	1	283.392	0.690981	0.690801	6.84149	2	2.563	11	0.0047261
2	1	0	1	1	284.293	0.699983	0.701154	8.1061	2	2.56973	11	0.00568363
2	1	0	1	1	285.193	0.708986	0.708858	9.47493	2	2.57765	11	0.00671638
2	1	0	0	1	286.108	0.718138	0.716894	10.9579	2	2.58701	11	0.00785566
2	1	0	1	1	287.023	0.72729	0.727622	12.5658	2	2.59778	10	0.00914312
2	1	0	0	1	287.924	0.736292	0.737275	14.2426	2	2.60985	10	0.0105007
2	1	0	1	1	288.824	0.745294	0.744505	16.0148	2	2.62347	10	0.0119231
2	1	0	0	1	289.724	0.754296	0.754334	17.8833	2	2.63873	10	0.01349
2	1	0	1	1	290.624	0.763298	0.761804	19.8017	2	2.6557	10	0.015085
2	1	0	0	1	291.524	0.7723	0.771276	21.8116	2	2.67444	10	0.0168228
2	1	0	1	1	292.425	0.781303	0.780509	23.865	2	2.69501	10	0.0186269
2	1	0	0	1	293.325	0.790305	0.789483	25.9702	2	2.71744	10	0.020503
2	1	0	1	1	294.225	0.799307	0.798661	28.158	2	2.74181	10	0.0224887
2	1	0	0	1	295.125	0.808309	0.808818	30.4042	2	2.76818	10	0.0245914
2	1	0	1	1	296.025	0.817311	0.818163	32.6849	2	2.79658	10	0.0267416
2	1	0	0	1	296.926	0.826313	0.825355	35.0497	2	2.82708	10	0.0289284
2	1	0	1	1	297.826	0.835315	0.834998	37.4253	2	2.85971	10	0.03125
2	1	0	1	1	298.726	0.844318	0.844286	39.8883	2	2.89452	10	0.0336771
2	1	0	1	1	299.626	0.853319	0.853508	42.4222	2	2.93156	10	0.0362077
2	1	0	1	1	300.527	0.862321	0.862945	44.9581	2	2.97091	10	0.0387964
2	1	0	0	1	301.427	0.871324	0.871191	47.7712	2	3.01267	10	0.0416178
2	1	0	1	1	302.327	0.880326	0.878883	50.3279	2	3.05684	10	0.0442324
2	1	0	0	1	303.227	0.889328	0.889536	52.9622	2	3.10333	10	0.0471118
2	1	0	1	1	304.127	0.89833	0.89731	55.6239	2	3.15223	10	0.0499119
2	1	0	0	1	305.028	0.907332	0.906836	58.3217	2	3.20355	10	0.0528882
2	1	0	1	1	305.928	0.916334	0.915357	61.1238	2	3.25729	10	0.0559501
2	1	0	0	1	306.828	0.925336	0.924559	64.132	2	3.31371	10	0.0592938
2	1	0	1	1	307.728	0.934339	0.933803	67.0211	2	3.37277	10	0.0625845
2	1	0	0	1	308.628	0.943341	0.943122	69.9676	2	3.43445	10	0.0659879
2	1	0	1	1	309.529	0.952343	0.951163	72.9112	2	3.4988	10	0.0693504
2	1	0	0	1	310.429	0.961345	0.961641	75.705	2	3.56569	10	0.072801
2	1	0	1	1	311.329	0.970347	0.970164	78.684	2	3.63513	10	0.0763364
2	1	0	0	1	312.229	0.979349	0.978776	81.5025	2	3.70727	10	0.0797726
2	1	0	1	1	313.129	0.988351	0.987689	84.476	2	3.78198	10	0.083436
2	1	0	1	1	314.03	0.997354	0.995892	87.456	2	3.85939	10	0.0870967
2	1	0	0	1	314.75	0.995453	0.996571	86.5216	2	3.92248	10	0.0862249
2	1	0	1	1	315.651	0.986451	0.986241	83.4961	2	3.99895	10	0.0823473
2	1	0	0	1	316.551	0.977449	0.976588	80.2036	2	4.07264	10	0.0783259
2	1	0	1	1	317.451	0.968446	0.967603	77.1898	2	4.14345	10	0.0746891
2	1	0	0	1	318.351	0.959444	0.959258	73.9153	2	4.21145	10	0.0709038
2	1	0	1	1	319.251	0.950442	0.950911	71.2384	2	4.27691	10	0.0677414
2	1	0	0	1	320.152	0.94144	0.940626	68.3715	2	4.33971	10	0.064312
2	1	0	1	1	321.052	0.932438	0.932586	65.372	2	4.39988	10	0.060965
2	1	0	0	1	321.952	0.923436	0.923352	62.4559	2	4.4574	10	0.0576688
2	1	0	1	1	322.852	0.914434	0.914242	59.5638	2	4.51229	10	0.0544557
2	1	0	0	1	323.752	0.905432	0.905526	56.756	2	4.56461	10	0.051394
2	1	0	1	1	324.653	0.89643	0.895611	53.9006	2	4.61439	10	0.0482739
2	1	0	1	1	325.553	0.887427	0.887712	51.2578	2	4.66172	10	0.0455022
2	1	0	1	1	326.453	0.878426	0.877638	48.6201	2	4.70663	10	0.0426709
2	1	0	1	1	327.353	0.869423	0.868875	45.9605	2	4.74919	10	0.0399339
2	1	0	0	1	328.254	0.860421	0.85981	43.4283	2	4.78942	10	0.0373401
2	1	0	1	1	329.154	0.851419	0.851661	40.9138	2	4.82736	10	0.0348447
2	1	0	0	1	330.054	0.842417	0.843282	38.4625	2	4.86307	10	0.0324347
2	1	0	1	1	330.954	0.833415	0.832607	36.091	2	4.89663	10	0.0300496
2	1	0	0	1	331.854	0.824413	0.824054	33.7781	2	4.92805	10	0.027835
2	1	0	1	1	332.755	0.81541	0.815069	31.5001	2	4.95742	10	0.0256747
2	1	0	0	1	333.655	0.806408	0.804974	29.2999	2	4.98477	10	0.0235857
2	1	0	1	1	334.555	0.797406	0.79675	27.1632	2	5.01017	10	0.0216423
2	1	0	0	1	335.455	0.788404	0.787765	25.1413	2	5.0337	10	0.0198055
2	1	0	1	1	336.355	0.779402	0.779889	23.1464	2	5.05542	10	0.0180517
2	1	0	0	1	337.256	0.7704	0.768823	21.2178	2	5.07537	10	0.0163127
2	1	0	1	1	338.156	0.761398	0.760221	19.3984	2	5.09364	10	0.0147471
2	1	0	0	1	339.056	0.752396	0.752496	17.6045	2	5.11028	10	0.0132473
2	1	0	1	1	339.956	0.743394	0.742359	15.9074	2	5.12535	10	0.011809
2	1	0	1	1	340.856	0.734391	0.734423	14.2901	2	5.13893	10	0.010495
2	1	0	1	1	341.757	0.72539	0.725453	12.7526	2	5.15108	10	0.00925138
2	1	0	1	1	342.657	0.716387	0.715672	11.3081	2	5.1619	10	0.00809291
2	1	0	0	1	343.557	0.707385	0.706113	9.92627	2	5.17144	10	0.00700906
2	1	0	1	1	344.457	0.698383	0.698137	8.6601	2	5.17979	10	0.00604594
2	1	0	0	1	345.358	0.689381	0.691433	7.46134	2	5.18703	10	0.00515901
2	1	0	1	1	346.258	0.680379	0.681108	6.3774	2	5.19324	10	0.00434369
2	1	0	0	1	347.158	0.671377	0.670859	5.36919	2	5.19851	10	0.00360197
2	1	0	1	1	348.088	0.662075	0.661715	4.42458	2	5.20306	11	0.00292781
2	1	0	0	1	348.988	0.653072	0.652837	3.62276	2	5.20667	11	0.00236507
2	1	0	1	1	349.889	0.64407	0.645052	2.9129	2	5.20959	11	0.00187897
2	1	0	0	1	350.789	0.635068	0.635242	2.29599	2	5.21193	11	0.00145851
2	1	0	1	1	351.689	0.626066	0.62534	1.77277	2	5.21375	11	0.00110858
2	1	0	0	1	352.589	0.617064	0.617457	1.33576	2	5.21513	11	0.000824773
2	1	0	1	1	353.489	0.608062	0.607988	0.977778	2	5.21616	11	0.000594477
2	1	0	0	1	354.39	0.59906	0.597581	0.690179	2	5.2169	11	0.000412438
2	1	0	1	1	355.29	0.590058	0.588379	0.464993	2	5.21741	11	0.000273592
2	1	0	1	1	356.22	0.580756	0.581295	0.286271	2	5.21775	12	0.000166408
2	1	0	0	1	357.12	0.571753	0.572642	0.158063	2	5.21795	12	9.05134e-05
2	1	0	1	1	358.021	0.562751	0.561481	0.0630204	2	5.21804	12	3.53848e-05
2	1	0	0	1	358.921	0.553749	0.555372	-0.00580924	2	5.21806	12	-3.22629e-06
2	1	0	1	1	359.821	0.544747	0.546613	-0.055757	2	5.21802	12	-3.04775e-05
2	0	0	0	1	360.721	0.535745	0.536388	-0.0929855	2	5.21795	12	-4.98763e-05
2	0	0	1	1	361.621	0.526743	0.527405	-0.119274	2	5.21785	12	-6.29058e-05
2	0	0	0	1	362.522	0.517741	0.517059	-0.138754	2	5.21773	12	-7.17439e-05
2	0	0	1	1	363.422	0.508739	0.509321	-0.153981	2	5.21759	12	-7.84258e-05
2	0	0	0	1	364.322	0.499736	0.500263	-0.164583	2	5.21745	12	-8.2335e-05
2	0	0	1	1	365.222	0.490734	0.490194	-0.172537	2	5.21729	12	-8.45767e-05
2	0	0	0	1	366.122	0.481732	0.479594	-0.178776	2	5.21713	12	-8.574e-05
2	0	0	1	1	367.023	0.47273	0.47173	-0.182854	2	5.21696	12	-8.62577e-05
2	0	0	0	1	367.923	0.463728	0.464945	-0.185962	2	5.21679	12	-8.6462e-05
2	0	0	1	1	368.823	0.454726	0.455248	-0.187646	2	5.21662	12	-8.54252e-05
2	0	0	0	1	369.723	0.445724	0.444703	-0.188944	2	5.21645	12	-8.40241e-05
2	0	0	1	1	370.623	0.436722	0.433527	-0.189795	2	5.21627	12	-8.22811e-05
2	0	0	1	1	371.524	0.427719	0.426949	-0.189957	2	5.2161	12	-8.11019e-05
2	0	0	1	1	372.424	0.418718	0.417051	-0.190545	2	5.21593	12	-7.94669e-05
2	0	0	1	1	373.324	0.409715	0.409139	-0.190108	2	5.21575	12	-7.77803e-05
2	0	0	0	1	374.224	0.400713	0.399574	-0.189244	2	5.21558	12	-7.56172e-05
2	0	0	1	1	375.125	0.391711	0.38956	-0.188364	2	5.21541	12	-7.33792e-05
2	0	0	0	1	376.025	0.382709	0.381914	-0.186604	2	5.21523	12	-7.12666e-05
2	0	0	1	1	376.925	0.373707	0.374303	-0.184416	2	5.21507	12	-6.90273e-05
2	0	0	0	1	377.825	0.364705	0.364394	-0.181604	2	5.2149	12	-6.61755e-05
2	0	0	1	1	378.725	0.355703	0.355205	-0.17869	2	5.21473	12	-6.34718e-05
2	0	0	0	1	379.626	0.346701	0.346407	-0.175359	2	5.21457	12	-6.07457e-05
2	0	0	1	1	380.526	0.337699	0.337556	-0.171977	2	5.21441	12	-5.80518e-05
2	0	0	0	1	381.426	0.328696	0.328148	-0.168685	2	5.21426	12	-5.53537e-05
2	0	0	1	1	382.326	0.319694	0.318738	-0.165184	2	5.21411	12	-5.26504e-05
2	0	0	0	1	383.226	0.310692	0.310184	-0.161381	2	5.21396	12	-5.00578e-05
2	0	0	1	1	384.127	0.30169	0.301106	-0.157407	2	5.21381	12	-4.73961e-05
2	0	0	0	1	385.027	0.292688	0.292023	-0.152807	2	5.21367	12	-4.46233e-05
2	0	0	1	1	385.927	0.283686	0.282661	-0.147738	2	5.21353	12	-4.17598e-05
2	0	0	1	1	386.827	0.274683	0.273924	-0.142104	2	5.2134	12	-3.89256e-05
2	0	0	1	1	387.727	0.265682	0.265699	-0.136388	2	5.21328	12	-3.62381e-05
2	0	0	1	1	388.628	0.256679	0.256532	-0.130334	2	5.21315	12	-3.34348e-05
2	0	0	0	1	389.528	0.247677	0.246722	-0.124365	2	5.21304	12	-3.06835e-05
2	0	0	1	1	390.428	0.238675	0.238344	-0.118794	2	5.21293	12	-2.83138e-05
2	0	0	0	1	391.328	0.229673	0.229402	-0.112908	2	5.21282	12	-2.59013e-05
2	0	0	1	1	392.229	0.220671	0.220144	-0.107356	2	5.21272	12	-2.36339e-05
2	0	0	0	1	393.129	0.211669	0.211215	-0.101795	2	5.21263	12	-2.15007e-05
2	0	0	1	1	394.029	0.202667	0.203247	-0.0964415	2	5.21254	12	-1.96015e-05
2	0	0	0	1	394.929	0.193665	0.193365	-0.0911476	2	5.21245	12	-1.76247e-05
2	0	0	1	1	395.829	0.184663	0.18739	-0.0860855	2	5.21237	12	-1.61315e-05
2	0	0	0	1	396.73	0.17566	0.174597	-0.0812	2	5.21229	12	-1.41773e-05
2	0	0	1	1	397.63	0.166658	0.168236	-0.0767987	2	5.21222	12	-1.29203e-05
2	0	0	0	1	398.53	0.157656	0.158814	-0.0727364	2	5.21215	12	-1.15515e-05
2	0	0	1	1	399.43	0.148654	0.1491	-0.0689676	2	5.21209	12	-1.02831e-05
2	0	0	0	1	400.33	0.139652	0.140136	-0.0656123	2	5.21203	12	-9.19465e-06
2	0	0	1	1	401.231	0.13065	0.129771	-0.0625449	2	5.21197	12	-8.11651e-06
2	0	0	0	1	402.131	0.121648	0.121516	-0.0594973	2	5.21191	12	-7.22984e-06
2	0	0	1	1	403.031	0.112646	0.111933	-0.0569313	2	5.21186	12	-6.37251e-06
2	0	0	1	1	403.931	0.103644	0.103976	-0.054274	2	5.21181	12	-5.64319e-06
2	0	0	0	1	404.832	0.0946415	0.0958817	-0.0523098	2	5.21176	12	-5.01555e-06
2	0	0	1	1	405.732	0.0856394	0.0854169	-0.0499977	2	5.21172	12	-4.27065e-06
2	0	0	0	1	406.632	0.0766373	0.0748662	-0.0482779	2	5.21167	12	-3.61438e-06
2	0	0	1	1	407.532	0.0676352	0.0668134	-0.046622	2	5.21163	12	-3.11497e-06
2	0	0	0	1	408.432	0.058633	0.0581826	-0.0451686	2	5.21159	12	-2.62802e-06
2	0	0	1	1	409.333	0.0496309	0.0477517	-0.0436713	2	5.21155	12	-2.08538e-06
2	0	0	0	1	410.233	0.0406288	0.0400903	-0.0424211	2	5.21151	12	-1.70067e-06
2	0	0	1	1	411.133	0.0316267	0.0299225	-0.04135	2	5.21147	12	-1.23729e-06
2	0	0	0	1	412.033	0.0226246	0.0220702	-0.040112	2	5.21143	12	-8.8528e-07
2	0	0	1	1	412.933	0.0136225	0.0129726	-0.0390971	2	5.2114	12	-5.07191e-07
2	0	0	0	1	413.834	0.00462037	0.00406066	-0.0381692	2	5.21136	12	-1.54992e-07
2	0	0	0	0	414.554	0.00251988	0.00142377	-0.0359039	3	5.21133	12	-5.11191e-08
2	0	0	1	0	415.455	0.011522	0.00987538	-0.0327361	3	5.2113	12	-3.23281e-07
2	0	0	0	0	416.355	0.0205241	0.0197356	-0.0305614	3	5.21128	12	-6.03147e-07
2	0	0	1	0	417.255	0.0295262	0.0295216	-0.028751	3	5.21125	12	-8.48774e-07
2	0	0	0	0	418.155	0.0385283	0.039403	-0.0273144	3	5.21122	12	-1.07627e-06
2	0	0	1	0	419.055	0.0475304	0.0473062	-0.0259353	3	5.2112	12	-1.2269e-06
2	0	0	0	0	419.956	0.0565325	0.0582123	-0.0246751	3	5.21118	12	-1.43639e-06
2	0	0	1	0	420.856	0.0655347	0.0649604	-0.0235657	3	5.21116	12	-1.53084e-06
2	0	0	0	0	421.756	0.0745368	0.0743751	-0.0224528	3	5.21114	12	-1.66993e-06
2	0	0	1	0	422.656	0.0835389	0.0838821	-0.0214523	3	5.21112	12	-1.79947e-06
2	0	0	0	0	423.556	0.092541	0.0915997	-0.0205749	3	5.2111	12	-1.88465e-06
2	0	0	1	0	424.457	0.101543	0.102125	-0.0195667	3	5.21108	12	-1.99825e-06
2	0	0	0	0	425.357	0.110545	0.110011	-0.018423	3	5.21106	12	-2.02674e-06
2	0	0	1	0	426.257	0.119547	0.119096	-0.0172726	3	5.21105	12	-2.0571e-06
2	1	0	0	0	427.157	0.128549	0.127623	-0.0164239	3	5.21103	12	-2.09607e-06
2	1	0	1	0	428.057	0.137552	0.137167	-0.0152258	3	5.21102	12	-2.08847e-06
2	1	0	1	0	428.958	0.146554	0.146942	-0.014017	3	5.21101	12	-2.05969e-06
2	0	0	0	0	429.858	0.155556	0.155539	-0.0130744	3	5.211	12	-2.03359e-06
2	0	0	1	0	430.758	0.164558	0.164568	-0.0117944	3	5.21099	12	-1.94098e-06
2	1	0	0	0	431.658	0.17356	0.172898	-0.0106408	3	5.21098	12	-1.83977e-06
2	1	0	1	0	432.559	0.182562	0.183479	-0.00913267	3	5.21097	12	-1.67566e-06
2	1	0	0	0	433.459	0.191564	0.190527	-0.00780903	3	5.21096	12	-1.48783e-06
2	1	0	1	0	434.359	0.200566	0.20111	-0.00613851	3	5.21096	12	-1.23452e-06
2	1	0	0	0	435.259	0.209568	0.207901	-0.00442126	3	5.21095	12	-9.19183e-07
2	1	0	1	0	436.159	0.218571	0.217887	-0.00234844	3	5.21095	12	-5.11694e-07
2	1	0	0	0	437.06	0.227573	0.226643	-0.000130549	3	5.21095	12	-2.95879e-08
2	1	0	1	0	437.96	0.236575	0.236725	0.00267957	3	5.21095	12	6.34322e-07
2	1	0	0	0	438.86	0.245577	0.244354	0.00590157	3	5.21096	12	1.44208e-06
2	1	0	1	0	439.76	0.254579	0.255462	0.00947002	3	5.21097	12	2.41923e-06
2	1	0	0	0	440.66	0.263581	0.264523	0.0133476	3	5.21098	12	3.53074e-06
2	1	0	1	0	441.561	0.272583	0.271628	0.0179828	3	5.21099	12	4.88464e-06
2	1	0	0	0	442.461	0.281585	0.2803	0.0230772	3	5.21101	12	6.46853e-06
2	1	0	1	0	443.361	0.290587	0.289694	0.0286402	3	5.21104	12	8.29688e-06
2	1	0	1	0	444.261	0.29959	0.298572	0.0347686	3	5.21106	12	1.03809e-05
2	1	0	1	0	445.161	0.308591	0.307137	0.0414958	3	5.2111	12	1.27449e-05
2	1	0	1	0	446.062	0.317594	0.317499	0.048438	3	5.21114	12	1.5379e-05
2	1	0	0	0	446.962	0.326596	0.326197	0.0560292	3	5.21119	12	1.82765e-05
2	1	0	1	0	447.862	0.335598	0.334795	0.063956	3	5.21125	12	2.14121e-05
2	1	0	0	0	448.762	0.3446	0.34434	0.0731185	3	5.21131	12	2.51776e-05
2	1	0	1	0	449.663	0.353602	0.352346	0.0827491	3	5.21138	12	2.91563e-05
2	1	0	0	0	450.563	0.362604	0.362084	0.0934417	3	5.21146	12	3.38338e-05
2	1	0	1	0	451.463	0.371606	0.372124	0.105131	3	5.21155	12	3.91217e-05
2	1	0	0	0	452.363	0.380609	0.380657	0.117934	3	5.21165	12	4.48923e-05
2	1	0	1	0	453.263	0.389611	0.388837	0.13171	3	5.21177	12	5.12136e-05
2	1	0	0	0	454.164	0.398613	0.397023	0.145569	3	5.21189	12	5.77943e-05
2	1	0	1	0	455.064	0.407615	0.406627	0.159039	3	5.21203	12	6.46694e-05
2	1	0	0	0	455.964	0.416617	0.418607	0.171599	3	5.21218	12	7.18326e-05
2	1	0	1	0	456.864	0.425619	0.424873	0.18353	3	5.21235	12	7.79768e-05
2	1	0	0	0	457.764	0.434621	0.433735	0.194864	3	5.21252	12	8.45192e-05
2	1	0	1	0	458.665	0.443623	0.445829	0.206329	3	5.2127	12	9.19876e-05
2	1	0	1	0	459.565	0.452626	0.452165	0.218568	3	5.21289	12	9.88285e-05
2	1	0	1	0	460.465	0.461627	0.462549	0.231607	3	5.2131	12	0.00010713
2	1	0	1	0	461.365	0.47063	0.47003	0.246062	3	5.21332	12	0.000115656
2	1	0	0	0	462.266	0.479632	0.478943	0.261914	3	5.21355	12	0.000125442
2	1	0	1	0	463.166	0.488634	0.48686	0.278667	3	5.21379	12	0.000135672
2	1	0	0	0	464.066	0.497636	0.497363	0.295454	3	5.21406	12	0.000146948
2	1	0	1	0	464.966	0.506638	0.506031	0.312266	3	5.21433	12	0.000158016
2	1	0	0	0	465.866	0.51564	0.514411	0.33017	3	5.21463	12	0.000169843
2	1	0	1	0	466.767	0.524642	0.524783	0.347874	3	5.21493	12	0.000182558
2	1	0	0	0	467.667	0.533644	0.533581	0.366283	3	5.21526	12	0.000195442
2	1	0	1	0	468.567	0.542647	0.542567	0.387014	3	5.2156	12	0.000209981
2	1	0	0	0	469.467	0.551649	0.552227	0.409054	3	5.21596	12	0.000225891
2	1	0	1	0	470.367	0.560651	0.560191	0.434895	3	5.21635	12	0.000243624
2	1	0	0	0	471.268	0.569653	0.569609	0.46571	3	5.21676	12	0.000265272
2	1	0	1	0	472.168	0.578655	0.578136	0.50705	3	5.2172	12	0.000293144
2	1	0	0	0	473.068	0.587657	0.587146	0.564819	3	5.21768	12	0.000331632
2	1	0	1	0	473.968	0.596659	0.595453	0.650136	3	5.21823	12	0.000387125
2	1	0	0	0	474.868	0.605661	0.605006	0.777981	3	5.21887	12	0.000470683
2	1	0	1	0	475.769	0.614663	0.614193	0.963583	3	5.21966	12	0.000591826
2	1	0	1	0	476.699	0.623966	0.622739	1.24176	3	5.22069	11	0.000773289
2	1	0	0	0	477.599	0.632968	0.632414	1.60679	3	5.22197	11	0.00101616
2	1	0	1	0	478.499	0.64197	0.641141	2.0821	3	5.22363	11	0.00133492
2	1	0	0	0	479.4	0.650972	0.650644	2.67619	3	5.22576	11	0.00174124
2	1	0	1	0	480.3	0.659974	0.659935	3.3924	3	5.22849	11	0.00223876
2	1	0	0	0	481.2	0.668976	0.667035	4.23316	3	5.23192	11	0.00282366
2	1	0	1	0	482.1	0.677978	0.678424	5.19583	3	5.23617	11	0.00352498
2	1	0	0	0	483	0.68698	0.687317	6.27978	3	5.24133	11	0.0043162
2	1	0	1	0	483.901	0.695983	0.695429	7.479	3	5.24752	11	0.00520112
2	1	0	0	0	484.801	0.704985	0.7059	8.78286	3	5.25484	11	0.00619982
2	1	0	1	0	485.701	0.713987	0.710947	10.1925	3	5.26339	11	0.00724636
2	1	0	0	0	486.631	0.723289	0.723935	11.7705	3	5.2736	10	0.00852111
2	1	0	1	0	487.531	0.732291	0.732729	13.3858	3	5.28493	10	0.00980814
2	1	0	0	0	488.432	0.741293	0.740569	15.1109	3	5.29776	10	0.0111906
2	1	0	1	0	489.332	0.750295	0.750232	16.9205	3	5.31218	10	0.0126943
2	1	0	1	0	490.232	0.759298	0.758384	18.8027	3	5.32827	10	0.0142597
2	1	0	1	0	491.132	0.768299	0.767871	20.7393	3	5.34607	10	0.0159251
2	1	0	1	0	492.033	0.777302	0.777715	22.756	3	5.36566	10	0.0176977
2	1	0	0	0	492.933	0.786304	0.786472	24.8523	3	5.3871	10	0.0195456
2	1	0	1	0	493.833	0.795306	0.793806	27.0093	3	5.41045	10	0.0214401
2	1	0	0	0	494.733	0.804308	0.804202	29.2196	3	5.43576	10	0.0234985
2	1	0	1	0	495.633	0.81331	0.812416	31.475	3	5.46309	10	0.0255708
2	1	0	0	0	496.534	0.822312	0.822127	33.7981	3	5.49247	10	0.0277864
2	1	0	1	0	497.434	0.831314	0.831532	36.1756	3	5.52396	10	0.0300812
2	1	0	0	0	498.334	0.840316	0.839448	38.5794	3	5.55761	10	0.0323854
2	1	0	1	0	499.234	0.849318	0.849328	41.0374	3	5.59346	10	0.0348542
2	1	0	0	0	500.134	0.858321	0.857603	43.6605	3	5.63158	10	0.0374434
2	1	0	1	0	501.035	0.867323	0.866763	46.2917	3	5.67209	10	0.0401239
2	1	0	0	0	501.935	0.876325	0.876533	48.8921	3	5.71494	10	0.0428555
2	1	0	1	0	502.835	0.885327	0.885525	51.7415	3	5.76026	10	0.0458184
2	1	0	0	0	503.735	0.894329	0.894433	54.5629	3	5.8081	10	0.0488029
2	1	0	1	0	504.635	0.903331	0.902206	57.2584	3	5.85843	10	0.0516589
2	1	0	1	0	505.536	0.912334	0.9107	60.0249	3	5.91122	10	0.0546647
2	1	0	1	0	506.436	0.921335	0.920617	62.7968	3	5.96653	10	0.0578118
2	1	0	1	0	507.336	0.930338	0.930134	65.7185	3	6.02439	10	0.0611271
2	1	0	0	0	508.236	0.93934	0.9378	68.5778	3	6.08485	10	0.0643122
2	1	0	1	0	509.137	0.948342	0.947814	71.4957	3	6.1479	10	0.0677646
2	1	0	0	0	510.037	0.957344	0.956347	74.6111	3	6.2137	10	0.0713541
2	1	0	1	0	510.937	0.966346	0.967297	77.522	3	6.28221	10	0.0749868
2	1	0	0	0	511.837	0.975348	0.974592	80.5132	3	6.35339	10	0.0784675
2	1	0	1	0	512.737	0.98435	0.983602	83.4934	3	6.42727	10	0.0821243
2	1	0	0	0	513.638	0.993352	0.993509	86.5775	3	6.50379	10	0.0860155
2	1	0	1	0	514.358	0.999454	0.997482	88.5719	3	6.56706	10	0.0883489
2	1	0	0	0	515.258	0.990452	0.990656	85.2077	3	6.64524	10	0.0844115
2	1	0	1	0	516.159	0.98145	0.982282	81.9533	3	6.72046	10	0.0805013
2	1	0	1	0	517.059	0.972447	0.972521	78.8996	3	6.79281	10	0.0767316
2	1	0	1	0	517.959	0.963446	0.961913	75.7775	3	6.8624	10	0.0728913
2	1	0	1	0	518.859	0.954443	0.95399	72.645	3	6.92918	10	0.0693026
2	1	0	0	0	519.76	0.945441	0.946515	69.5858	3	6.99323	10	0.065864
2	1	0	1	0	520.66	0.936439	0.937409	66.5664	3	7.05449	10	0.0623999
2	1	0	0	0	521.56	0.927437	0.928155	63.7016	3	7.1131	10	0.0591249
2	1	0	1	0	522.46	0.918435	0.917889	60.8429	3	7.1691	10	0.055847
2	1	0	0	0	523.36	0.909433	0.908822	58.222	3	7.22266	10	0.0529135
2	1	0	1	0	524.261	0.900431	0.900729	55.4324	3	7.27382	10	0.0499296
2	1	0	0	0	525.161	0.891428	0.889689	52.6379	3	7.32244	10	0.0468314
2	1	0	1	0	526.061	0.882426	0.881511	49.9948	3	7.36862	10	0.0440709
2	1	0	0	0	526.961	0.873424	0.87391	47.4074	3	7.41242	10	0.0414298
2	1	0	1	0	527.861	0.864422	0.864273	44.8086	3	7.45389	10	0.0387268
2	1	0	0	0	528.762	0.85542	0.855524	42.2421	3	7.49305	10	0.0361391
2	1	0	1	0	529.662	0.846418	0.845598	39.7159	3	7.52992	10	0.0335837
2	1	0	0	0	530.562	0.837416	0.835858	37.378	3	7.56461	10	0.0312427
2	1	0	1	0	531.462	0.828414	0.827199	34.94	3	7.59715	10	0.0289023
2	1	0	1	0	532.362	0.819411	0.818864	32.6657	3	7.62757	10	0.0267487
2	1	0	1	0	533.263	0.81041	0.810738	30.4289	3	7.65595	10	0.0246699
2	1	0	1	0	534.163	0.801407	0.80013	28.2371	3	7.68234	10	0.0225934
2	1	0	0	0	535.063	0.792405	0.793114	26.2275	3	7.70687	10	0.0208014
2	1	0	1	0	535.963	0.783403	0.781871	24.1742	3	7.72954	10	0.0189011
2	1	0	0	0	536.864	0.774401	0.773208	22.1725	3	7.75038	10	0.0171439
2	1	0	1	0	537.764	0.765399	0.765937	20.2567	3	7.76946	10	0.0155153
2	1	0	0	0	538.664	0.756397	0.756763	18.4188	3	7.78685	10	0.0139387
2	1	0	1	0	539.564	0.747395	0.746954	16.6605	3	7.80262	10	0.0124446
2	1	0	0	0	540.464	0.738393	0.736973	14.9862	3	7.81684	10	0.0110445
2	1	0	1	0	541.365	0.72939	0.728256	13.3959	3	7.8296	10	0.00975563
2	1	0	0	0	542.265	0.720388	0.720372	11.8929	3	7.84097	10	0.00856734
2	1	0	1	0	543.165	0.711386	0.712978	10.4771	3	7.85102	10	0.00746994
2	1	0	0	0	544.065	0.702384	0.703758	9.14711	3	7.85984	10	0.00643735
2	1	0	1	0	544.965	0.693382	0.692444	7.91866	3	7.86751	10	0.00548322
2	1	0	0	0	545.866	0.68438	0.684564	6.78482	3	7.87411	10	0.00464464
2	1	0	1	0	546.766	0.675378	0.674514	5.7461	3	7.87973	10	0.00387582
2	1	0	0	0	547.666	0.666376	0.667527	4.79958	3	7.88446	10	0.00320385
2	1	0	1	0	548.596	0.657074	0.657682	3.92229	3	7.88851	11	0.00257962
2	1	0	1	0	549.497	0.648071	0.64763	3.17718	3	7.89169	11	0.00205764
2	1	0	0	0	550.397	0.639069	0.638614	2.52906	3	7.89424	11	0.00161509
2	1	0	1	0	551.297	0.630067	0.629696	1.97061	3	7.89626	11	0.00124089
2	1	0	0	0	552.197	0.621065	0.620606	1.50176	3	7.89781	11	0.000932003
2	1	0	1	0	553.097	0.612063	0.611725	1.11662	3	7.89897	11	0.000683065
2	1	0	0	0	553.998	0.603061	0.601959	0.802478	3	7.89983	11	0.000483059
2	1	0	1	0	554.898	0.594059	0.592943	0.552259	3	7.90043	11	0.000327458
2	1	0	0	0	555.828	0.584756	0.583641	0.351272	3	7.90084	12	0.000205017
2	1	0	1	0	556.728	0.575754	0.576196	0.205086	3	7.90108	12	0.00011817
2	1	0	0	0	557.628	0.566752	0.565464	0.0967458	3	7.90121	12	5.47062e-05
2	1	0	1	0	558.529	0.55775	0.557306	0.0162288	3	7.90126	12	9.0444e-06
2	1	0	0	0	559.429	0.548748	0.548377	-0.0429074	3	7.90124	12	-2.35294e-05
2	0	0	1	0	560.329	0.539746	0.53929	-0.085421	3	7.90118	12	-4.60667e-05
2	0	0	0	0	561.229	0.530744	0.530361	-0.116763	3	7.90108	12	-6.19267e-05
2	0	0	1	0	562.129	0.521741	0.521065	-0.140303	3	7.90096	12	-7.31071e-05
2	0	0	1	0	563.03	0.51274	0.512325	-0.157209	3	7.90082	12	-8.05421e-05
2	0	0	1	0	563.93	0.503738	0.50414	-0.169688	3	7.90067	12	-8.55467e-05
2	0	0	1	0	564.83	0.494735	0.494413	-0.179449	3	7.90051	12	-8.87218e-05
2	0	0	0	0	565.73	0.485733	0.484366	-0.186267	3	7.90034	12	-9.02216e-05
2	0	0	1	0	566.631	0.476731	0.476377	-0.191133	3	7.90017	12	-9.10516e-05
2	0	0	0	0	567.531	0.467729	0.46769	-0.194338	3	7.89999	12	-9.089e-05
2	0	0	1	0	568.431	0.458727	0.456744	-0.19681	3	7.89981	12	-8.98917e-05
2	0	0	0	0	569.331	0.449725	0.449347	-0.198245	3	7.89963	12	-8.90808e-05
2	0	0	1	0	570.231	0.440723	0.440016	-0.199108	3	7.89945	12	-8.76108e-05
2	0	0	0	0	571.132	0.431721	0.430872	-0.200236	3	7.89926	12	-8.6276e-05
2	0	0	1	0	572.032	0.422718	0.422315	-0.200854	3	7.89908	12	-8.48235e-05
2	0	0	0	0	572.932	0.413716	0.414159	-0.200617	3	7.8989	12	-8.30871e-05
2	0	0	1	0	573.832	0.404714	0.403499	-0.200818	3	7.89871	12	-8.10299e-05
2	0	0	0	0	574.732	0.395712	0.395083	-0.200161	3	7.89853	12	-7.90804e-05
2	0	0	1	0	575.633	0.38671	0.386986	-0.199342	3	7.89835	12	-7.71426e-05
2	0	0	0	0	576.533	0.377708	0.375649	-0.197188	3	7.89817	12	-7.40735e-05
2	0	0	1	0	577.433	0.368706	0.368036	-0.195137	3	7.89799	12	-7.18172e-05
2	0	0	1	0	578.333	0.359703	0.360145	-0.192254	3	7.89781	12	-6.92392e-05
2	0	0	1	0	579.233	0.350702	0.351437	-0.189243	3	7.89764	12	-6.65071e-05
2	0	0	1	0	580.134	0.341699	0.341072	-0.185793	3	7.89747	12	-6.33686e-05
2	0	0	0	0	581.034	0.332697	0.334569	-0.182491	3	7.8973	12	-6.10559e-05
2	0	0	1	0	581.934	0.323695	0.324846	-0.178615	3	7.89714	12	-5.80225e-05
2	0	0	0	0	582.834	0.314693	0.313355	-0.174876	3	7.89697	12	-5.47984e-05
2	0	0	1	0	583.735	0.305691	0.306272	-0.170704	3	7.89682	12	-5.22819e-05
2	0	0	0	0	584.635	0.296689	0.296575	-0.166103	3	7.89666	12	-4.9262e-05
2	0	0	1	0	585.535	0.287687	0.286769	-0.161005	3	7.89652	12	-4.61714e-05
2	0	0	0	0	586.435	0.278685	0.277598	-0.155491	3	7.89637	12	-4.3164e-05
2	0	0	1	0	587.335	0.269683	0.268189	-0.149624	3	7.89623	12	-4.01276e-05
2	0	0	0	0	588.236	0.26068	0.259971	-0.143303	3	7.8961	12	-3.72545e-05
2	0	0	1	0	589.136	0.251678	0.251248	-0.137165	3	7.89597	12	-3.44624e-05
2	0	0	0	0	590.036	0.242676	0.242226	-0.130843	3	7.89585	12	-3.16935e-05
2	0	0	1	0	590.936	0.233674	0.234068	-0.124746	3	7.89573	12	-2.9199e-05
2	0	0	0	0	591.836	0.224672	0.222759	-0.11857	3	7.89562	12	-2.64124e-05
2	0	0	1	0	592.737	0.21567	0.213998	-0.11273	3	7.89552	12	-2.41241e-05
2	0	0	1	0	593.637	0.206667	0.206255	-0.106816	3	7.89542	12	-2.20315e-05
2	0	0	1	0	594.537	0.197666	0.196812	-0.101186	3	7.89532	12	-1.99146e-05
2	0	0	1	0	595.437	0.188664	0.190243	-0.0960378	3	7.89523	12	-1.82705e-05
2	0	0	0	0	596.338	0.179661	0.178861	-0.0906972	3	7.89515	12	-1.62222e-05
2	0	0	1	0	597.238	0.170659	0.171171	-0.085572	3	7.89507	12	-1.46474e-05
2	0	0	0	0	598.138	0.161657	0.16218	-0.0810417	3	7.89499	12	-1.31434e-05
2	0	0	1	0	599.038	0.152655	0.152988	-0.0768985	3	7.89492	12	-1.17646e-05
2	0	0	0	0	599.938	0.143653	0.142019	-0.073043	3	7.89485	12	-1.03735e-05
2	0	0	1	0	600.839	0.134651	0.134559	-0.0695314	3	7.89479	12	-9.35606e-06
2	0	0	0	0	601.739	0.125649	0.126743	-0.066262	3	7.89473	12	-8.39823e-06
2	0	0	1	0	602.639	0.116647	0.116238	-0.0634454	3	7.89467	12	-7.37474e-06
2	0	0	0	0	603.539	0.107645	0.106181	-0.0605407	3	7.89461	12	-6.42828e-06
2	0	0	1	0	604.439	0.0986424	0.0980477	-0.0580928	3	7.89456	12	-5.69586e-06
2	0	0	0	0	605.34	0.0896403	0.0900713	-0.0559566	3	7.8945	12	-5.04008e-06
2	0	0	1	0	606.24	0.0806382	0.0822158	-0.0538235	3	7.89445	12	-4.42514e-06
2	0	0	0	0	607.14	0.0716361	0.0696444	-0.0519325	3	7.89441	12	-3.61681e-06
2	0	0	1	0	608.04	0.062634	0.0652044	-0.0502281	3	7.89436	12	-3.27509e-06
2	0	0	0	0	608.94	0.0536319	0.0531623	-0.0487534	3	7.89431	12	-2.59184e-06
2	0	0	1	0	609.841	0.0446295	0.0451162	-0.0471684	3	7.89427	12	-2.12806e-06
2	0	0	1	0	610.741	0.0356285	0.0362564	-0.0459445	3	7.89423	12	-1.66578e-06
2	0	0	0	0	611.641	0.0266255	0.0265262	-0.0446462	3	7.89419	12	-1.18429e-06
2	0	0	1	0	612.541	0.0176234	0.0181159	-0.0434793	3	7.89415	12	-7.87668e-07
2	0	0	0	0	613.442	0.00862131	0.00790567	-0.04253	3	7.89411	12	-3.36228e-07
2	0	0	1	0	614.297	6.93002e-05	-0.0014645	-0.0365278	3	7.89407	12	5.34948e-08
2	0	0	1	1	615.063	-0.0075825	-0.00716255	-0.0407879	3	7.89404	12	2.92145e-07
2	0	0	0	1	615.963	-0.0165846	-0.0172158	-0.0399593	3	7.894	12	6.87932e-07
2	0	0	1	1	616.863	-0.0255867	-0.0251424	-0.0390709	3	7.89397	12	9.82335e-07
2	0	0	0	1	617.763	-0.0345889	-0.0351479	-0.0382028	3	7.89393	12	1.34275e-06
2	0	0	1	1	618.663	-0.043591	-0.0447408	-0.0375877	3	7.8939	12	1.6817e-06
2	0	0	0	1	619.564	-0.0525931	-0.0526112	-0.0368875	3	7.89387	12	1.9407e-06
2	0	0	1	1	620.464	-0.0615952	-0.0624322	-0.0360356	3	7.89383	12	2.24978e-06
2	0	0	0	1	621.364	-0.0705973	-0.0711383	-0.0354338	3	7.8938	12	2.5207e-06
2	0	0	1	1	622.264	-0.0795994	-0.0793661	-0.0346592	3	7.89377	12	2.75077e-06
2	0	0	0	1	623.164	-0.0886015	-0.088905	-0.0340421	3	7.89374	12	3.02652e-06
2	0	0	1	1	624.065	-0.0976036	-0.0982327	-0.0332935	3	7.89371	12	3.27051e-06
2	0	0	0	1	624.965	-0.106606	-0.106873	-0.032932	3	7.89368	12	3.51954e-06
2	0	0	1	1	625.865	-0.115608	-0.115904	-0.0322703	3	7.89365	12	3.74026e-06
2	0	0	0	1	626.765	-0.12461	-0.125803	-0.0317053	3	7.89362	12	3.98863e-06
2	0	0	1	1	627.665	-0.133612	-0.134044	-0.0311117	3	7.89359	12	4.17033e-06
2	0	0	1	1	628.566	-0.142615	-0.145855	-0.0307448	3	7.89356	12	4.48427e-06
2	0	0	0	1	628.618	-0.143164	-0.143799	-0.0245871	3	7.89356	12	3.53559e-06