File: Data_1/2022_01_26 IrOx 1mg  ref309 elect1 set1_01_CV_C02.mpt
EC-Lab ASCII FILE
Nb header lines : 57

Cyclic Voltammetry

Run on channel : 2 (SN 12477)
User :
CE vs. WE compliance from -10 V to 10 V
Electrode connection : standard
Potential control : Ewe
Ewe ctrl range : min = -2.50 V, max = 2.50 V
Safety Limits :
	Do not start on E overload
Acquisition started on : 01/26/2023 11:20:17.212
Loaded Setting File :  C:\Users\grupogalan\Documents\EC-Lab\Data\Scott\_cyclic_pause_tafel.mps
Saved on :
	File : 2022_01_26 IrOx 1mg  ref309 elect1 set1_01_CV_C02.mpr
	Directory : C:\Users\grupogalan\Documents\EC-Lab\Data\Scott\
	Host : 169.254.104.159
Device : VSP (SN 1176)
Address : USB
EC-Lab for windows v11.46 (software)
Internet server v11.40 (firmware)
Command interpretor v11.40 (firmware)
Electrode material :
Initial state :
Electrolyte :
Comments :
Electrode surface area : 0.000 cm²
Characteristic mass : 0.001 g
Equivalent Weight : 0.000 g/eq.
Density : 0.000 g/cm3
Volume (V) : 0.001 cm³
Cycle Definition : Charge/Discharge alternance
Ei (V)              0.000
vs.                 Eoc
dE/dt               10.000
dE/dt unit          mV/s
E1 (V)              1.000
vs.                 Ref
Step percent        50
N                   10
E range min (V)     -2.500
E range max (V)     2.500
I Range             Auto
I Range min         Unset
I Range max         Unset
I Range init        Unset
Bandwidth           5
E2 (V)              0.000
vs.                 Ref
nc cycles           2
Reverse Scan        1
Ef (V)              0.000
vs.                 Eoc

mode	ox/red	error	control changes	counter inc.	time/s	control/V	Ewe/V	<I>/mA	cycle number	(Q-Qo)/C	I Range	P/W
2	1	0	1	0	0.000000000000000E+000	-0.0501425	-0.053464	0.149787	1	0.0000000E+000	12	-8.00823e-06
2	1	0	0	0	0.8852	-0.0412904	-0.0427595	0.128291	1	0.000108479	11	-5.48568e-06
2	1	0	1	0	1.7854	-0.0322883	-0.0337839	0.135325	1	0.000238114	11	-4.57182e-06
2	1	0	0	0	2.6856	-0.0232862	-0.0227134	0.140678	1	0.000374772	11	-3.19528e-06
2	1	0	1	0	3.5858	-0.0142841	-0.0123568	0.147762	1	0.000516593	11	-1.82586e-06
2	1	0	0	0	4.486	-0.00528196	-0.00499133	0.149556	1	0.000661767	11	-7.46482e-07
2	1	0	1	0	5.3862	0.00372016	0.00222881	0.154828	1	0.000810143	11	3.45083e-07
2	1	0	0	0	6.2864	0.0127223	0.0118854	0.159829	1	0.00096229	11	1.89962e-06
2	1	0	1	0	7.1866	0.0217244	0.0216947	0.162175	1	0.00111694	11	3.51834e-06
2	1	0	0	0	8.0868	0.0307265	0.0310712	0.164274	1	0.00127422	11	5.10419e-06
2	1	0	1	0	8.987	0.0397286	0.040925	0.16295	1	0.00143366	11	6.66875e-06
2	1	0	0	0	9.8872	0.0487307	0.0487583	0.168441	1	0.00159521	11	8.2129e-06
2	1	0	1	0	10.7874	0.0577328	0.0573234	0.172336	1	0.0017586	11	9.87888e-06
2	1	0	0	0	11.6876	0.0667349	0.0661282	0.172607	1	0.00192337	11	1.14142e-05
2	1	0	1	0	12.5878	0.0757371	0.0748609	0.173464	1	0.00208992	11	1.29857e-05
2	1	0	0	0	13.488	0.0847391	0.0831598	0.17438	1	0.00225773	11	1.45014e-05
2	1	0	1	0	14.3882	0.0937413	0.0948062	0.175178	1	0.00242621	11	1.66079e-05
2	1	0	1	0	15.2885	0.102744	0.104045	0.17644	1	0.00259575	11	1.83577e-05
2	1	0	1	0	16.1887	0.111745	0.112846	0.176486	1	0.00276631	11	1.99157e-05
2	1	0	1	0	17.089	0.120748	0.121304	0.177581	1	0.00293693	11	2.15413e-05
2	1	0	0	0	17.9892	0.12975	0.130345	0.180516	1	0.00310813	11	2.35293e-05
2	1	0	1	0	18.8894	0.138752	0.136978	0.178692	1	0.00327997	11	2.44769e-05
2	1	0	0	0	19.7896	0.147754	0.145737	0.178846	1	0.0034516	11	2.60646e-05
2	1	0	1	0	20.6898	0.156756	0.156186	0.179797	1	0.00362341	11	2.80818e-05
2	1	0	0	0	21.59	0.165758	0.166213	0.175304	1	0.00379514	11	2.91378e-05
2	1	0	1	0	22.4902	0.17476	0.17516	0.175728	1	0.00396694	11	3.07805e-05
2	1	0	0	0	23.3904	0.183762	0.184863	0.17861	1	0.00413869	11	3.30185e-05
2	1	0	1	0	24.2906	0.192765	0.193787	0.178191	1	0.00430995	11	3.45311e-05
2	1	0	0	0	25.1908	0.201767	0.20115	0.178695	1	0.00448138	11	3.59446e-05
2	1	0	1	0	26.091	0.210769	0.20995	0.177398	1	0.00465189	11	3.72447e-05
2	1	0	0	0	26.9912	0.219771	0.219112	0.175931	1	0.00482245	11	3.85485e-05
2	1	0	1	0	27.8914	0.228773	0.229255	0.174191	1	0.00499347	11	3.99342e-05
2	1	0	0	0	28.7916	0.237775	0.237457	0.173767	1	0.0051648	11	4.12621e-05
2	1	0	1	0	29.6918	0.246777	0.246215	0.176318	1	0.00533575	11	4.34121e-05
2	1	0	1	0	30.5921	0.25578	0.255797	0.175402	1	0.0055072	11	4.48674e-05
2	1	0	1	0	31.4923	0.264781	0.263797	0.175792	1	0.00567925	11	4.63733e-05
2	1	0	1	0	32.3926	0.273784	0.271672	0.179346	1	0.00585178	11	4.87232e-05
2	1	0	0	0	33.2928	0.282786	0.280539	0.178931	1	0.00602492	11	5.01971e-05
2	1	0	1	0	34.193	0.291788	0.292087	0.17756	1	0.00619912	11	5.18629e-05
2	1	0	0	0	35.0932	0.30079	0.301194	0.17879	1	0.00637459	11	5.38505e-05
2	1	0	1	0	35.9934	0.309792	0.310526	0.181369	1	0.00655116	11	5.63198e-05
2	1	0	0	0	36.8936	0.318794	0.31853	0.181787	1	0.00672888	11	5.79045e-05
2	1	0	1	0	37.7938	0.327796	0.327084	0.184633	1	0.00690836	11	6.03906e-05
2	1	0	0	0	38.694	0.336798	0.335143	0.188598	1	0.00708941	11	6.32075e-05
2	1	0	1	0	39.5942	0.3458	0.345552	0.189362	1	0.00727154	11	6.54344e-05
2	1	0	0	0	40.4944	0.354802	0.353927	0.191121	1	0.00745631	11	6.76429e-05
2	1	0	1	0	41.3946	0.363805	0.365355	0.193677	1	0.00764368	11	7.0761e-05
2	1	0	0	0	42.2948	0.372807	0.373612	0.197893	1	0.00783284	11	7.39351e-05
2	1	0	1	0	43.195	0.381809	0.381052	0.201819	1	0.00802537	11	7.69036e-05
2	1	0	0	0	44.0952	0.390811	0.390218	0.205464	1	0.00822171	11	8.01757e-05
2	1	0	1	0	44.9954	0.399813	0.398952	0.213148	1	0.00842133	11	8.50359e-05
2	1	0	0	0	45.8956	0.408815	0.40929	0.217342	1	0.00862498	11	8.89561e-05
2	1	0	1	0	46.7959	0.417817	0.417026	0.221629	1	0.00883332	11	9.2425e-05
2	1	0	1	0	47.6962	0.426819	0.426833	0.226424	1	0.00904678	11	9.6645e-05
2	1	0	0	0	48.5964	0.435821	0.437316	0.236641	1	0.00926563	11	0.000103487
2	1	0	1	0	49.4966	0.444824	0.444497	0.241262	1	0.00949076	11	0.00010724
2	1	0	0	0	50.3968	0.453826	0.452781	0.249144	1	0.00972281	11	0.000112808
2	1	0	1	0	51.297	0.462828	0.463374	0.260658	1	0.00996177	11	0.000120782
2	1	0	0	0	52.1972	0.47183	0.46986	0.265817	1	0.0102077	11	0.000124897
2	0	0	1	0	53.0974	0.480832	0.480166	0.274306	1	0.0104618	11	0.000131712
2	1	0	0	0	53.9976	0.489834	0.489259	0.285278	1	0.0107246	11	0.000139575
2	1	0	1	0	54.8978	0.498836	0.499461	0.294883	1	0.0109957	11	0.000147283
2	1	0	0	0	55.798	0.507838	0.508588	0.307722	1	0.0112774	11	0.000156504
2	1	0	1	0	56.6982	0.516841	0.515535	0.321564	1	0.0115709	11	0.000165777
2	1	0	0	0	57.5984	0.525843	0.525791	0.33976	1	0.0118772	11	0.000178642
2	1	0	1	0	58.4986	0.534845	0.534204	0.359856	1	0.0121999	11	0.000192236
2	1	0	0	0	59.3988	0.543847	0.543632	0.380347	1	0.0125445	11	0.000206769
2	1	0	1	0	60.299	0.552849	0.553101	0.419403	1	0.012918	11	0.000231973
2	1	0	0	0	61.1992	0.561851	0.561528	0.477397	1	0.0133334	11	0.000268072
2	1	0	1	0	62.0995	0.570854	0.572148	0.561452	1	0.0138113	11	0.000321234
2	1	0	1	0	62.9997	0.579855	0.580439	0.689261	1	0.0143827	11	0.000400074
2	1	0	0	0	63.9	0.588857	0.587057	0.87401	1	0.0150927	11	0.000513094
2	1	0	1	0	64.8002	0.597859	0.596072	1.132	1	0.0160025	11	0.000674753
2	1	0	0	0	65.7004	0.606862	0.604952	1.48858	1	0.0171906	11	0.000900517
2	1	0	1	0	66.6006	0.615864	0.615871	1.95093	1	0.018748	11	0.00120152
2	1	0	0	0	67.5008	0.624866	0.626044	2.54392	1	0.0207774	11	0.0015926
2	1	0	1	0	68.401	0.633868	0.633697	3.2616	1	0.0233958	11	0.00206686
2	1	0	0	0	69.3012	0.64287	0.641195	4.11097	1	0.0267203	11	0.00263593
2	1	0	1	0	70.2014	0.651872	0.650993	5.09916	1	0.0308721	11	0.00331952
2	1	0	0	0	71.1016	0.660874	0.659878	6.22058	1	0.0359735	11	0.00410483
2	1	0	1	0	72.0018	0.669876	0.668125	7.48086	1	0.0421462	11	0.00499815
2	1	0	0	0	72.902	0.678879	0.679599	8.86725	1	0.0495099	11	0.00602617
2	1	0	1	0	73.8022	0.687881	0.687543	10.3774	1	0.0581797	11	0.00713493
2	1	0	0	0	74.7324	0.697183	0.697265	12.0542	1	0.0686359	10	0.00840499
2	1	0	1	0	75.6326	0.706185	0.70608	13.7899	1	0.0802803	10	0.0097368
2	1	0	0	0	76.5328	0.715187	0.714628	15.6243	1	0.0935261	10	0.0111656
2	1	0	1	0	77.4331	0.72419	0.724952	17.5234	1	0.108449	10	0.0127037
2	1	0	1	0	78.3333	0.733191	0.733063	19.4718	1	0.125121	10	0.014274
2	1	0	0	0	79.2336	0.742193	0.742603	21.3885	1	0.143534	10	0.0158831
2	1	0	1	0	80.1338	0.751195	0.752589	23.4383	1	0.163721	10	0.0176394
2	1	0	0	0	81.034	0.760198	0.761224	25.5868	1	0.185793	10	0.0194773
2	1	0	1	0	81.9342	0.7692	0.769622	27.8351	1	0.209855	10	0.0214225
2	1	0	0	0	82.8344	0.778202	0.777944	30.2185	1	0.235982	10	0.0235083
2	1	0	1	0	83.7346	0.787204	0.786854	32.6603	1	0.264283	10	0.0256989
2	1	0	0	0	84.6348	0.796206	0.795952	35.2018	1	0.294844	10	0.028019
2	1	0	1	0	85.535	0.805208	0.805511	37.7785	1	0.327715	10	0.030431
2	1	0	0	0	86.4352	0.81421	0.813726	40.4451	1	0.362941	10	0.0329112
2	1	0	1	0	87.3354	0.823212	0.824171	43.1263	1	0.400575	10	0.0355435
2	1	0	0	0	88.2356	0.832214	0.831856	45.8773	1	0.440626	10	0.0381633
2	1	0	1	0	89.1358	0.841217	0.84097	48.6809	1	0.483196	10	0.0409392
2	1	0	0	0	90.036	0.850219	0.849427	51.4801	1	0.528292	10	0.0437286
2	1	0	1	0	90.9362	0.859221	0.858313	54.4236	1	0.575995	10	0.0467125
2	1	0	0	0	91.8364	0.868223	0.868112	57.4993	1	0.626423	10	0.0499158
2	1	0	1	0	92.7367	0.877226	0.878269	60.6294	1	0.679585	10	0.0532489
2	1	0	1	0	93.6369	0.886227	0.887786	63.9006	1	0.735617	10	0.0567301
2	1	0	0	0	94.5372	0.895229	0.895253	67.1485	1	0.794612	10	0.0601149
2	1	0	1	0	95.4374	0.904231	0.903196	70.6201	1	0.856628	10	0.0637838
2	1	0	0	0	96.3376	0.913234	0.911404	74.1479	1	0.921799	10	0.0675787
2	1	0	1	0	97.2378	0.922236	0.921311	77.5605	1	0.990092	10	0.0714574
2	1	0	0	0	98.138	0.931238	0.93176	80.8912	1	1.06146	10	0.0753712
2	1	0	1	0	99.0382	0.94024	0.941106	84.5987	1	1.13598	10	0.0796163
2	1	0	0	0	99.9384	0.949242	0.949995	88.2708	1	1.21382	10	0.0838568
2	1	0	1	0	100.839	0.958244	0.959281	91.7899	1	1.29491	10	0.0880524
2	1	0	0	0	101.739	0.967246	0.967475	95.4094	1	1.37919	10	0.0923062
2	1	0	1	0	102.639	0.976248	0.974878	99.0883	1	1.46671	10	0.0965989
2	1	0	0	0	103.539	0.98525	0.984853	102.67	1	1.55749	10	0.101115
2	1	0	1	0	104.439	0.994252	0.992864	106.43	1	1.65155	10	0.10567
2	1	0	0	0	105.17	0.998453	0.997836	108.128	1	1.73038	10	0.107894
2	1	0	1	0	106.07	0.989451	0.988099	103.48	1	1.82557	10	0.102248
2	1	0	0	0	106.97	0.980449	0.979797	99.1012	1	1.91674	10	0.097099
2	1	0	1	0	107.871	0.971446	0.97278	94.7089	1	2.00398	10	0.092131
2	1	0	1	0	108.771	0.962445	0.96432	90.4831	1	2.08735	10	0.0872546
2	1	0	0	0	109.671	0.953443	0.953396	86.3758	1	2.16697	10	0.0823503
2	1	0	1	0	110.571	0.944441	0.943373	82.4231	1	2.24289	10	0.0777557
2	1	0	0	0	111.472	0.935439	0.934266	78.5586	1	2.31529	10	0.0733947
2	1	0	1	0	112.372	0.926437	0.925351	74.6034	1	2.38426	10	0.0690343
2	1	0	0	0	113.272	0.917434	0.916114	70.8487	1	2.44972	10	0.0649055
2	1	0	1	0	114.172	0.908432	0.909187	67.2219	1	2.51186	10	0.0611173
2	1	0	0	0	115.072	0.89943	0.899296	63.5678	1	2.57071	10	0.0571662
2	1	0	1	0	115.973	0.890428	0.891504	60.1075	1	2.62634	10	0.0535861
2	1	0	0	0	116.873	0.881426	0.880352	56.6444	1	2.67885	10	0.049867
2	1	0	1	0	117.773	0.872424	0.871431	53.3119	1	2.72832	10	0.0464577
2	1	0	0	0	118.673	0.863422	0.863249	49.9909	1	2.7748	10	0.0431546
2	1	0	1	0	119.573	0.85442	0.854207	46.8637	1	2.81836	10	0.0400313
2	1	0	0	0	120.474	0.845418	0.844516	43.7661	1	2.85911	10	0.0369612
2	1	0	1	0	121.374	0.836416	0.836658	40.7519	1	2.89713	10	0.0340954
2	1	0	0	0	122.274	0.827413	0.82847	37.8687	1	2.93251	10	0.0313731
2	1	0	1	0	123.174	0.818411	0.817401	35.0854	1	2.9653	10	0.0286788
2	1	0	1	0	124.074	0.80941	0.809702	32.3556	1	2.99562	10	0.0261984
2	1	0	0	0	124.975	0.800407	0.799516	29.7453	1	3.02356	10	0.0237818
2	1	0	1	0	125.875	0.791405	0.790327	27.2369	1	3.04918	10	0.0215261
2	1	0	0	0	126.775	0.782403	0.782877	24.8095	1	3.07259	10	0.0194228
2	1	0	1	0	127.675	0.773401	0.773335	22.5136	1	3.09388	10	0.0174105
2	1	0	0	0	128.576	0.764399	0.764549	20.3404	1	3.11315	10	0.0155512
2	1	0	1	0	129.476	0.755396	0.755121	18.2731	1	3.1305	10	0.0137984
2	1	0	0	0	130.376	0.746394	0.74492	16.2797	1	3.14601	10	0.0121271
2	1	0	1	0	131.276	0.737392	0.736023	14.4119	1	3.1598	10	0.0106075
2	1	0	0	0	132.176	0.72839	0.728637	12.6662	1	3.17197	10	0.00922909
2	1	0	1	0	133.077	0.719388	0.719114	11.023	1	3.18261	10	0.00792681
2	1	0	0	0	133.977	0.710386	0.710959	9.50084	1	3.19183	10	0.00675471
2	1	0	1	0	134.877	0.701384	0.702178	8.10511	1	3.19974	10	0.00569123
2	1	0	0	0	135.777	0.692382	0.692664	6.83845	1	3.20644	10	0.00473675
2	1	0	1	0	136.677	0.68338	0.68368	5.67888	1	3.21205	10	0.00388254
2	1	0	0	0	137.578	0.674377	0.673235	4.64128	1	3.21667	10	0.00312467
2	1	0	1	0	138.508	0.665075	0.66326	3.6912	1	3.22052	11	0.00244822
2	1	0	1	0	139.408	0.656074	0.655956	2.90269	1	3.22347	11	0.00190404
2	1	0	0	0	140.308	0.647071	0.649143	2.22837	1	3.22576	11	0.00144653
2	1	0	1	0	141.209	0.638069	0.637906	1.66543	1	3.2275	11	0.00106238
2	1	0	0	0	142.109	0.629067	0.629105	1.2081	1	3.22877	11	0.000760021
2	1	0	1	0	143.009	0.620065	0.619263	0.843096	1	3.22967	11	0.000522098
2	1	0	0	0	143.909	0.611063	0.609755	0.561371	1	3.23028	11	0.000342299
2	1	0	1	0	144.809	0.602061	0.601684	0.354862	1	3.23068	11	0.000213515
2	1	0	0	0	145.71	0.593058	0.594705	0.205924	1	3.23091	11	0.000122464
2	1	0	1	0	146.61	0.584056	0.584604	0.100919	1	3.23104	11	5.89974e-05
2	1	0	0	0	147.51	0.575054	0.576048	0.0388799	1	3.23109	11	2.23967e-05
2	1	0	1	0	148.41	0.566052	0.56516	-0.00283432	1	3.23109	11	-1.60185e-06
2	1	0	0	0	149.31	0.55705	0.558072	-0.0287522	1	3.23106	11	-1.60458e-05
2	1	0	1	0	150.211	0.548048	0.548739	-0.0490875	1	3.23101	11	-2.69362e-05
2	1	0	0	0	151.111	0.539046	0.537274	-0.059504	1	3.23095	11	-3.19699e-05
2	1	0	1	0	152.011	0.530044	0.529536	-0.0658094	1	3.23088	11	-3.48484e-05
2	1	0	0	0	152.911	0.521042	0.522129	-0.0695413	1	3.23081	11	-3.63095e-05
2	1	0	1	0	153.811	0.512039	0.511851	-0.0707327	1	3.23074	11	-3.62046e-05
2	0	0	1	0	154.712	0.503038	0.502961	-0.069255	1	3.23067	11	-3.48325e-05
2	1	0	0	0	155.612	0.494035	0.49362	-0.0742183	1	3.23059	11	-3.66356e-05
2	0	0	1	0	156.512	0.485033	0.483938	-0.0766379	1	3.23051	11	-3.7088e-05
2	0	0	0	0	157.412	0.476031	0.474748	-0.0782293	1	3.23043	11	-3.71392e-05
2	1	0	1	0	158.313	0.467029	0.467188	-0.07982	1	3.23035	11	-3.7291e-05
2	0	0	0	0	159.213	0.458027	0.459643	-0.0835826	1	3.23026	11	-3.84182e-05
2	0	0	1	0	160.113	0.449025	0.449386	-0.0839373	1	3.23018	11	-3.77202e-05
2	0	0	0	0	161.013	0.440023	0.439036	-0.0833817	1	3.23009	11	-3.66076e-05
2	0	0	1	0	161.913	0.43102	0.430751	-0.0851103	1	3.23	11	-3.66614e-05
2	0	0	0	0	162.814	0.422018	0.420435	-0.091125	1	3.22991	11	-3.83121e-05
2	0	0	1	0	163.714	0.413016	0.412595	-0.0924408	1	3.22982	11	-3.81406e-05
2	0	0	0	0	164.614	0.404014	0.404614	-0.0934014	1	3.22972	11	-3.77915e-05
2	0	0	1	0	165.514	0.395012	0.394651	-0.0988233	1	3.22962	11	-3.90007e-05
2	0	0	0	0	166.414	0.38601	0.385612	-0.0998072	1	3.22953	11	-3.84869e-05
2	0	0	1	0	167.315	0.377008	0.377364	-0.0989481	1	3.22942	11	-3.73395e-05
2	0	0	0	0	168.215	0.368006	0.367875	-0.103376	1	3.22932	11	-3.80296e-05
2	0	0	1	0	169.115	0.359003	0.357749	-0.104685	1	3.22922	11	-3.74508e-05
2	0	0	1	0	170.015	0.350001	0.348946	-0.107441	1	3.22912	11	-3.74909e-05
2	0	0	1	0	170.915	0.341	0.339957	-0.110236	1	3.22901	11	-3.74754e-05
2	0	0	1	0	171.816	0.331997	0.332386	-0.111002	1	3.2289	11	-3.68955e-05
2	0	0	0	0	172.716	0.322995	0.322616	-0.112969	1	3.22879	11	-3.64456e-05
2	0	0	1	0	173.616	0.313993	0.314181	-0.110768	1	3.22868	11	-3.48011e-05
2	0	0	0	0	174.516	0.304991	0.305428	-0.113203	1	3.22856	11	-3.45753e-05
2	0	0	1	0	175.417	0.295989	0.2947	-0.115429	1	3.22845	11	-3.4017e-05
2	0	0	0	0	176.317	0.286987	0.285187	-0.116574	1	3.22833	11	-3.32455e-05
2	1	0	1	0	177.217	0.277985	0.277019	-0.120686	1	3.22821	11	-3.34322e-05
2	1	0	0	0	178.117	0.268982	0.268731	-0.124356	1	3.22809	11	-3.34185e-05
2	1	0	1	0	179.017	0.25998	0.260942	-0.1234	1	3.22797	11	-3.22003e-05
2	1	0	0	0	179.918	0.250978	0.251	-0.123804	1	3.22785	11	-3.10748e-05
2	1	0	1	0	180.818	0.241976	0.241061	-0.127763	1	3.22772	11	-3.07987e-05
2	1	0	0	0	181.718	0.232974	0.232724	-0.129681	1	3.22759	11	-3.01798e-05
2	1	0	1	0	182.618	0.223972	0.223133	-0.13133	1	3.22746	11	-2.9304e-05
2	1	0	0	0	183.518	0.21497	0.214682	-0.133888	1	3.22733	11	-2.87432e-05
2	1	0	1	0	184.419	0.205968	0.206176	-0.139476	1	3.2272	11	-2.87565e-05
2	1	0	1	0	185.319	0.196965	0.198372	-0.140451	1	3.22706	11	-2.78615e-05
2	1	0	1	0	186.219	0.187964	0.187948	-0.143854	1	3.22692	11	-2.7037e-05
2	1	0	1	0	187.119	0.178961	0.179103	-0.147479	1	3.22678	11	-2.64139e-05
2	1	0	0	0	188.02	0.169959	0.168372	-0.149518	1	3.22664	11	-2.51747e-05
2	1	0	1	0	188.92	0.160957	0.159744	-0.149806	1	3.22649	11	-2.39306e-05
2	0	0	0	0	189.82	0.151955	0.151822	-0.153609	1	3.22635	11	-2.33212e-05
2	1	0	1	0	190.72	0.142953	0.14365	-0.156257	1	3.2262	11	-2.24463e-05
2	0	0	0	0	191.62	0.133951	0.13382	-0.157712	1	3.22605	11	-2.11049e-05
2	0	0	1	0	192.521	0.124949	0.124754	-0.159591	1	3.22589	11	-1.99096e-05
2	1	0	0	0	193.421	0.115946	0.115211	-0.159718	1	3.22574	11	-1.84012e-05
2	1	0	1	0	194.321	0.106944	0.106655	-0.160205	1	3.22558	11	-1.70867e-05
2	0	0	0	0	195.221	0.0979423	0.0979299	-0.159899	1	3.22542	11	-1.56589e-05
2	0	0	1	0	196.121	0.0889402	0.0880856	-0.165678	1	3.22526	11	-1.45939e-05
2	0	0	0	0	197.022	0.079938	0.0803669	-0.16986	1	3.2251	11	-1.36511e-05
2	0	0	1	0	197.922	0.0709359	0.0707974	-0.166711	1	3.22494	11	-1.18027e-05
2	0	0	0	0	198.822	0.0619338	0.0617231	-0.168018	1	3.22477	11	-1.03706e-05
2	0	0	1	0	199.722	0.0529317	0.0536947	-0.169045	1	3.22461	11	-9.07685e-06
2	0	0	0	0	200.622	0.0439296	0.0423973	-0.170735	1	3.22444	11	-7.23869e-06
2	0	0	1	0	201.523	0.0349275	0.0335703	-0.176085	1	3.22427	11	-5.91123e-06
2	0	0	1	0	202.423	0.0259254	0.0258038	-0.178845	1	3.2241	11	-4.61488e-06
2	0	0	0	0	203.323	0.0169233	0.0163997	-0.182568	1	3.22393	11	-2.99405e-06
2	0	0	1	0	204.223	0.00792114	0.00821643	-0.183695	1	3.22375	11	-1.50932e-06
2	0	0	0	1	205.019	3.07233e-05	-0.0015515	-0.413712	1	3.2236	11	6.41875e-07
2	1	0	1	1	205.874	0.00852128	0.00867465	0.0451183	2	3.22363	11	3.91385e-07
2	1	0	1	1	206.774	0.0175238	0.0180263	0.0660826	2	3.22369	11	1.19123e-06
2	1	0	1	1	207.675	0.0265251	0.027244	0.0804896	2	3.22377	11	2.19286e-06
2	1	0	1	1	208.575	0.0355276	0.0350955	0.0908472	2	3.22386	11	3.18833e-06
2	1	0	0	1	209.475	0.0445297	0.04414	0.0929638	2	3.22395	11	4.10342e-06
2	0	0	1	1	210.375	0.0535318	0.0538082	0.0994388	2	3.22405	11	5.35063e-06
2	0	0	0	1	211.276	0.0625339	0.061458	0.100137	2	3.22415	11	6.15422e-06
2	0	0	1	1	212.176	0.0715361	0.0718209	0.10267	2	3.22425	11	7.37382e-06
2	0	0	0	1	213.076	0.0805382	0.0810034	0.108158	2	3.22436	11	8.76114e-06
2	0	0	1	1	213.976	0.0895403	0.0913207	0.112008	2	3.22447	11	1.02287e-05
2	0	0	0	1	214.876	0.0985424	0.0991836	0.112935	2	3.22458	11	1.12013e-05
2	0	0	1	1	215.777	0.107545	0.106304	0.113158	2	3.22469	11	1.20292e-05
2	0	0	0	1	216.677	0.116547	0.115837	0.114142	2	3.2248	11	1.32218e-05
2	0	0	1	1	217.577	0.125549	0.124927	0.113718	2	3.22492	11	1.42065e-05
2	0	0	0	1	218.477	0.134551	0.135216	0.112875	2	3.22503	11	1.52625e-05
2	0	0	1	1	219.377	0.143553	0.143834	0.113924	2	3.22515	11	1.63861e-05
2	0	0	0	1	220.278	0.152555	0.152965	0.116445	2	3.22526	11	1.78121e-05
2	0	0	1	1	221.178	0.161557	0.162475	0.115015	2	3.22538	11	1.86872e-05
2	0	0	1	1	222.078	0.17056	0.168997	0.114002	2	3.22549	11	1.9266e-05
2	0	0	1	1	222.978	0.179561	0.178586	0.115827	2	3.22561	11	2.0685e-05
2	1	0	1	1	223.879	0.188563	0.1872	0.113168	2	3.22572	11	2.1185e-05
2	1	0	0	1	224.779	0.197566	0.197725	0.111968	2	3.22584	11	2.2139e-05
2	0	0	1	1	225.679	0.206568	0.206047	0.112446	2	3.22596	11	2.31692e-05
2	1	0	0	1	226.579	0.21557	0.216605	0.113976	2	3.22607	11	2.46878e-05
2	1	0	1	1	227.479	0.224572	0.224518	0.113361	2	3.22619	11	2.54517e-05
2	1	0	0	1	228.38	0.233574	0.231903	0.116373	2	3.2263	11	2.69872e-05
2	0	0	1	1	229.28	0.242576	0.242281	0.116121	2	3.22642	11	2.81338e-05
2	0	0	0	1	230.18	0.251578	0.251178	0.116385	2	3.22653	11	2.92334e-05
2	1	0	1	1	231.08	0.26058	0.259827	0.114007	2	3.22665	11	2.96221e-05
2	1	0	0	1	231.98	0.269583	0.269758	0.115974	2	3.22676	11	3.12849e-05
2	1	0	1	1	232.881	0.278585	0.279284	0.117839	2	3.22687	11	3.29105e-05
2	1	0	0	1	233.781	0.287587	0.28807	0.115961	2	3.22699	11	3.34048e-05
2	1	0	1	1	234.681	0.296589	0.295242	0.1169	2	3.2271	11	3.45138e-05
2	1	0	0	1	235.581	0.305591	0.304021	0.119551	2	3.22722	11	3.63459e-05
2	1	0	1	1	236.481	0.314593	0.314281	0.117135	2	3.22733	11	3.68132e-05
2	1	0	0	1	237.382	0.323595	0.323104	0.116335	2	3.22745	11	3.75884e-05
2	1	0	1	1	238.282	0.332598	0.333068	0.114375	2	3.22756	11	3.80946e-05
2	1	0	1	1	239.182	0.341599	0.34166	0.115958	2	3.22768	11	3.96181e-05
2	1	0	0	1	240.082	0.350602	0.351229	0.116683	2	3.22779	11	4.09825e-05
2	1	0	1	1	240.983	0.359604	0.359044	0.116146	2	3.22791	11	4.17017e-05
2	1	0	0	1	241.883	0.368606	0.367248	0.118835	2	3.22803	11	4.36418e-05
2	1	0	1	1	242.783	0.377608	0.376988	0.117145	2	3.22814	11	4.41623e-05
2	1	0	0	1	243.683	0.38661	0.387043	0.115564	2	3.22826	11	4.47282e-05
2	1	0	1	1	244.583	0.395612	0.396846	0.114677	2	3.22838	11	4.55092e-05
2	1	0	0	1	245.484	0.404614	0.404533	0.119591	2	3.22849	11	4.83787e-05
2	1	0	1	1	246.384	0.413616	0.414929	0.120221	2	3.22861	11	4.9883e-05
2	0	0	0	1	247.284	0.422618	0.421412	0.123007	2	3.22873	11	5.18368e-05
2	0	0	1	1	248.184	0.431621	0.430383	0.122786	2	3.22885	11	5.28452e-05
2	0	0	0	1	249.084	0.440623	0.440324	0.123052	2	3.22897	11	5.41828e-05
2	0	0	1	1	249.985	0.449625	0.449328	0.122276	2	3.22909	11	5.49419e-05
2	0	0	0	1	250.885	0.458627	0.4595	0.122089	2	3.22921	11	5.61e-05
2	0	0	1	1	251.785	0.467629	0.468212	0.123012	2	3.22933	11	5.75956e-05
2	0	0	0	1	252.685	0.476631	0.476693	0.125179	2	3.22945	11	5.96718e-05
2	0	0	1	1	253.585	0.485634	0.485736	0.12672	2	3.22958	11	6.15522e-05
2	1	0	1	1	254.486	0.494635	0.494052	0.130094	2	3.22971	11	6.42731e-05
2	0	0	0	1	255.386	0.503637	0.501403	0.135756	2	3.22984	11	6.80685e-05
2	1	0	1	1	256.286	0.51264	0.512442	0.140446	2	3.22998	11	7.19703e-05
2	1	0	0	1	257.186	0.521642	0.522047	0.147439	2	3.23012	11	7.69699e-05
2	1	0	1	1	258.087	0.530644	0.531844	0.158743	2	3.23026	11	8.44264e-05
2	1	0	0	1	258.987	0.539646	0.540723	0.172547	2	3.23042	11	9.33e-05
2	1	0	1	1	259.887	0.548648	0.547726	0.192995	2	3.2306	11	0.000105708
2	1	0	0	1	260.787	0.55765	0.55726	0.222953	2	3.23079	11	0.000124243
2	1	0	1	1	261.687	0.566652	0.565646	0.268793	2	3.23102	11	0.000152042
2	1	0	0	1	262.588	0.575654	0.574408	0.335913	2	3.2313	11	0.000192951
2	1	0	1	1	263.488	0.584656	0.583391	0.438007	2	3.23166	11	0.00025553
2	1	0	0	1	264.388	0.593659	0.593613	0.590302	2	3.23213	11	0.000350411
2	1	0	1	1	265.288	0.602661	0.603422	0.803425	2	3.23277	11	0.000484804
2	1	0	0	1	266.188	0.611663	0.61123	1.09857	2	3.23363	11	0.000671482
2	1	0	1	1	267.089	0.620665	0.619449	1.48579	2	3.2348	11	0.00092037
2	1	0	0	1	267.989	0.629667	0.628926	1.98853	2	3.23637	11	0.00125064
2	1	0	1	1	268.889	0.638669	0.636641	2.60644	2	3.23844	11	0.00165937
2	1	0	1	1	269.789	0.647671	0.647492	3.35142	2	3.24113	11	0.00217002
2	1	0	0	1	270.69	0.656673	0.657623	4.23029	2	3.24455	11	0.00278194
2	1	0	1	1	271.59	0.665675	0.666365	5.22508	2	3.24881	11	0.00348181
2	1	0	0	1	272.49	0.674678	0.674793	6.34769	2	3.25402	11	0.00428337
2	1	0	1	1	273.39	0.68368	0.682771	7.6017	2	3.2603	11	0.00519022
2	1	0	0	1	274.29	0.692682	0.691333	8.97868	2	3.26777	11	0.00620726
2	1	0	1	1	275.191	0.701684	0.700291	10.4826	2	3.27653	11	0.00734085
2	1	0	0	1	276.121	0.710986	0.710337	12.1627	2	3.28708	10	0.0086396
2	1	0	1	1	277.021	0.719988	0.720762	13.8769	2	3.29881	10	0.010002
2	1	0	0	1	277.921	0.72899	0.729198	15.6822	2	3.31213	10	0.0114354
2	1	0	1	1	278.821	0.737992	0.737706	17.6096	2	3.32713	10	0.0129907
2	1	0	0	1	279.722	0.746995	0.745736	19.6439	2	3.3439	10	0.0146492
2	1	0	1	1	280.622	0.755997	0.756642	21.7493	2	3.36253	10	0.0164564
2	1	0	0	1	281.522	0.764999	0.765635	24.0355	2	3.38315	10	0.0184024
2	1	0	1	1	282.422	0.774001	0.773773	26.3487	2	3.40584	10	0.0203879
2	1	0	0	1	283.322	0.783003	0.782756	28.7765	2	3.43066	10	0.022525
2	1	0	1	1	284.223	0.792005	0.792416	31.2573	2	3.4577	10	0.0247688
2	1	0	1	1	285.123	0.801007	0.800928	33.8569	2	3.48703	10	0.027117
2	1	0	0	1	286.023	0.810009	0.809539	36.5296	2	3.51872	10	0.0295721
2	1	0	1	1	286.923	0.819011	0.818203	39.2356	2	3.55283	10	0.0321027
2	1	0	0	1	287.824	0.828013	0.826148	42.1294	2	3.58946	10	0.0348052
2	1	0	1	1	288.724	0.837016	0.836439	45.0651	2	3.62871	10	0.0376942
2	1	0	0	1	289.624	0.846018	0.845793	47.9851	2	3.6706	10	0.0405855
2	1	0	1	1	290.524	0.85502	0.85552	50.9652	2	3.71516	10	0.0436018
2	1	0	0	1	291.424	0.864022	0.864902	54.0746	2	3.76247	10	0.0467692
2	1	0	1	1	292.325	0.873024	0.871381	57.2701	2	3.81261	10	0.0499041
2	1	0	0	1	293.225	0.882026	0.881504	60.4005	2	3.86559	10	0.0532433
2	1	0	1	1	294.125	0.891028	0.890905	63.6642	2	3.92147	10	0.0567187
2	1	0	0	1	295.025	0.90003	0.898735	67.0294	2	3.98033	10	0.0602417
2	1	0	1	1	295.925	0.909033	0.909248	70.3954	2	4.04217	10	0.0640069
2	1	0	0	1	296.826	0.918035	0.919405	73.8002	2	4.10713	10	0.0678523
2	1	0	1	1	297.726	0.927037	0.927813	77.3486	2	4.17518	10	0.071765
2	1	0	0	1	298.626	0.936039	0.936545	80.856	2	4.2464	10	0.0757253
2	1	0	1	1	299.526	0.945041	0.94523	84.4491	2	4.32082	10	0.0798239
2	1	0	1	1	300.426	0.954043	0.953873	88.099	2	4.3985	10	0.0840353
2	1	0	0	1	301.327	0.963045	0.961244	91.7701	2	4.47946	10	0.0882134
2	1	0	1	1	302.227	0.972047	0.972663	95.3273	2	4.56368	10	0.0927213
2	1	0	0	1	303.127	0.981049	0.982229	99.129	2	4.65124	10	0.0973674
2	1	0	1	1	304.027	0.990051	0.991153	102.881	2	4.7422	10	0.101971
2	1	0	0	1	304.928	0.999054	0.997547	106.607	2	4.8365	10	0.106346
2	1	0	1	1	305.678	0.993452	0.994129	103.746	2	4.91572	10	0.103137
2	1	0	0	1	306.578	0.98445	0.984899	99.419	2	5.00714	10	0.0979177
2	1	0	1	1	307.479	0.975448	0.975527	95.1921	2	5.09467	10	0.0928625
2	1	0	0	1	308.379	0.966446	0.966133	91.2006	2	5.17861	10	0.0881119
2	1	0	1	1	309.279	0.957444	0.957198	87.2241	2	5.2589	10	0.0834907
2	1	0	0	1	310.179	0.948442	0.947204	83.1802	2	5.33556	10	0.0787886
2	1	0	1	1	311.079	0.93944	0.939141	79.3561	2	5.40871	10	0.0745265
2	1	0	0	1	311.98	0.930438	0.930344	75.5169	2	5.47837	10	0.0702567
2	1	0	1	1	312.88	0.921435	0.921958	71.7954	2	5.54462	10	0.0661924
2	1	0	0	1	313.78	0.912433	0.912599	68.0936	2	5.60755	10	0.0621421
2	1	0	1	1	314.68	0.903431	0.903477	64.5127	2	5.66721	10	0.0582858
2	1	0	1	1	315.58	0.894429	0.893745	60.9332	2	5.72365	10	0.0544588
2	1	0	0	1	316.481	0.885427	0.88496	57.5006	2	5.77693	10	0.0508857
2	1	0	1	1	317.381	0.876425	0.874864	54.0999	2	5.82715	10	0.0473301
2	1	0	0	1	318.281	0.867423	0.866711	50.9124	2	5.87437	10	0.0441264
2	1	0	1	1	319.181	0.858421	0.859129	47.7265	2	5.91875	10	0.0410033
2	1	0	0	1	320.082	0.849419	0.848697	44.6627	2	5.96032	10	0.0379051
2	1	0	1	1	320.982	0.840416	0.840759	41.7019	2	5.99916	10	0.0350613
2	1	0	0	1	321.882	0.831414	0.830606	38.7484	2	6.03533	10	0.0321847
2	1	0	1	1	322.782	0.822412	0.820657	35.9369	2	6.06894	10	0.0294919
2	1	0	0	1	323.682	0.81341	0.813811	33.2042	2	6.10004	10	0.027022
2	1	0	1	1	324.583	0.804408	0.804782	30.5459	2	6.1287	10	0.0245828
2	1	0	0	1	325.483	0.795406	0.795862	28.0072	2	6.15504	10	0.0222899
2	1	0	1	1	326.383	0.786404	0.7875	25.5912	2	6.17913	10	0.020153
2	1	0	0	1	327.283	0.777402	0.7775	23.2426	2	6.20108	10	0.0180711
2	1	0	1	1	328.183	0.7684	0.767132	21.0208	2	6.22098	10	0.0161257
2	1	0	0	1	329.084	0.759397	0.758689	18.9161	2	6.23893	10	0.0143514
2	1	0	1	1	329.984	0.750394	0.749475	16.8869	2	6.25501	10	0.0126563
2	1	0	1	1	330.884	0.741394	0.741119	14.9902	2	6.26934	10	0.0111096
2	1	0	0	1	331.784	0.732391	0.732523	13.2094	2	6.28202	10	0.00967617
2	1	0	1	1	332.685	0.723389	0.723487	11.5338	2	6.29313	10	0.00834455
2	1	0	0	1	333.585	0.714387	0.714279	9.97069	2	6.30279	10	0.00712186
2	1	0	1	1	334.485	0.705385	0.705642	8.54108	2	6.3111	10	0.00602694
2	1	0	0	1	335.385	0.696383	0.69449	7.23286	2	6.31817	10	0.00502315
2	1	0	1	1	336.285	0.68738	0.68598	6.03123	2	6.32411	10	0.0041373
2	1	0	0	1	337.186	0.678378	0.677281	4.95495	2	6.32904	10	0.00335589
2	1	0	1	1	338.116	0.669076	0.669636	3.97403	2	6.33316	11	0.00266115
2	1	0	0	1	339.016	0.660074	0.660825	3.14992	2	6.33634	11	0.00208155
2	1	0	1	1	339.916	0.651072	0.651249	2.43588	2	6.33883	11	0.00158636
2	1	0	0	1	340.816	0.64207	0.640719	1.83879	2	6.34074	11	0.00117815
2	1	0	1	1	341.717	0.633068	0.632402	1.34846	2	6.34215	11	0.000852769
2	1	0	0	1	342.617	0.624066	0.62293	0.951461	2	6.34316	11	0.000592693
2	1	0	1	1	343.517	0.615064	0.615416	0.645491	2	6.34386	11	0.000397245
2	1	0	0	1	344.417	0.606061	0.605828	0.416206	2	6.34432	11	0.00025215
2	1	0	1	1	345.317	0.597058	0.598053	0.248317	2	6.3446	11	0.000148507
2	1	0	1	1	346.218	0.588057	0.58896	0.130799	2	6.34476	11	7.70354e-05
2	1	0	0	1	347.118	0.579055	0.578881	0.0516079	2	6.34482	11	2.98748e-05
2	1	0	1	1	348.018	0.570053	0.568925	0.00386885	2	6.34484	11	2.20108e-06
2	1	0	0	1	348.918	0.561051	0.560306	-0.028657	2	6.34481	11	-1.60567e-05
2	1	0	1	1	349.819	0.552049	0.552142	-0.0466707	2	6.34477	11	-2.57689e-05
2	1	0	0	1	350.719	0.543047	0.542857	-0.0595591	2	6.34471	11	-3.23321e-05
2	1	0	1	1	351.619	0.534045	0.534222	-0.065607	2	6.34464	11	-3.50487e-05
2	1	0	0	1	352.519	0.525042	0.525174	-0.0707094	2	6.34457	11	-3.71348e-05
2	1	0	1	1	353.419	0.51604	0.515931	-0.0721818	2	6.3445	11	-3.72408e-05
2	1	0	0	1	354.32	0.507038	0.506554	-0.0715078	2	6.34443	11	-3.62226e-05
2	1	0	1	1	355.22	0.498036	0.497554	-0.0738979	2	6.34435	11	-3.67682e-05
2	1	0	0	1	356.12	0.489034	0.488098	-0.076999	2	6.34427	11	-3.7583e-05
2	0	0	1	1	357.02	0.480032	0.479417	-0.077722	2	6.34419	11	-3.72613e-05
2	0	0	0	1	357.92	0.47103	0.471711	-0.0775683	2	6.34411	11	-3.65898e-05
2	0	0	1	1	358.821	0.462028	0.462352	-0.0803966	2	6.34403	11	-3.71716e-05
2	0	0	0	1	359.721	0.453025	0.453013	-0.0813323	2	6.34394	11	-3.68446e-05
2	0	0	1	1	360.621	0.444023	0.44197	-0.081637	2	6.34386	11	-3.60811e-05
2	0	0	1	1	361.521	0.435021	0.435546	-0.0856746	2	6.34377	11	-3.73152e-05
2	0	0	1	1	362.421	0.42602	0.425667	-0.089071	2	6.34368	11	-3.79146e-05
2	0	0	1	1	363.322	0.417017	0.418085	-0.0922115	2	6.34359	11	-3.85523e-05
2	0	0	0	1	364.222	0.408015	0.408006	-0.093037	2	6.34349	11	-3.79596e-05
2	0	0	1	1	365.122	0.399013	0.399704	-0.0950935	2	6.3434	11	-3.80092e-05
2	0	0	0	1	366.022	0.390011	0.389263	-0.0960639	2	6.3433	11	-3.73941e-05
2	0	0	1	1	366.923	0.381009	0.380356	-0.0964119	2	6.34321	11	-3.66708e-05
2	0	0	0	1	367.823	0.372007	0.371213	-0.100555	2	6.34311	11	-3.73274e-05
2	0	0	1	1	368.723	0.363004	0.36178	-0.100803	2	6.34301	11	-3.64684e-05
2	0	0	0	1	369.623	0.354002	0.354685	-0.103446	2	6.34291	11	-3.66907e-05
2	0	0	1	1	370.523	0.345	0.345783	-0.104079	2	6.3428	11	-3.59889e-05
2	0	0	0	1	371.424	0.335998	0.336837	-0.10518	2	6.3427	11	-3.54285e-05
2	1	0	1	1	372.324	0.326996	0.326205	-0.103102	2	6.34259	11	-3.36324e-05
2	1	0	0	1	373.224	0.317994	0.317116	-0.103991	2	6.34249	11	-3.29773e-05
2	1	0	1	1	374.124	0.308992	0.30726	-0.10688	2	6.34238	11	-3.28399e-05
2	1	0	0	1	375.024	0.29999	0.299341	-0.108749	2	6.34227	11	-3.25529e-05
2	1	0	1	1	375.925	0.290988	0.289516	-0.113598	2	6.34215	11	-3.28885e-05
2	1	0	1	1	376.825	0.281985	0.28265	-0.113924	2	6.34204	11	-3.22007e-05
2	1	0	1	1	377.725	0.272984	0.272826	-0.117434	2	6.34193	11	-3.20391e-05
2	1	0	1	1	378.625	0.263981	0.263782	-0.120631	2	6.34181	11	-3.18203e-05
2	1	0	0	1	379.526	0.254979	0.254461	-0.119748	2	6.34169	11	-3.04711e-05
2	1	0	1	1	380.426	0.245977	0.245508	-0.12255	2	6.34157	11	-3.00871e-05
2	1	0	0	1	381.326	0.236975	0.235756	-0.124408	2	6.34145	11	-2.933e-05
2	1	0	1	1	382.226	0.227973	0.228111	-0.127642	2	6.34132	11	-2.91165e-05
2	1	0	0	1	383.126	0.218971	0.218746	-0.129177	2	6.3412	11	-2.82569e-05
2	0	0	1	1	384.027	0.209969	0.211863	-0.132678	2	6.34107	11	-2.81096e-05
2	0	0	0	1	384.927	0.200966	0.200723	-0.134538	2	6.34094	11	-2.70049e-05
2	1	0	1	1	385.827	0.191964	0.192821	-0.134247	2	6.34081	11	-2.58857e-05
2	0	0	0	1	386.727	0.182962	0.182049	-0.135764	2	6.34067	11	-2.47157e-05
2	0	0	1	1	387.627	0.17396	0.171446	-0.139305	2	6.34054	11	-2.38832e-05
2	0	0	0	1	388.528	0.164958	0.162841	-0.13889	2	6.3404	11	-2.26169e-05
2	0	0	1	1	389.428	0.155956	0.15614	-0.143695	2	6.34026	11	-2.24365e-05
2	0	0	0	1	390.328	0.146954	0.147478	-0.147027	2	6.34012	11	-2.16832e-05
2	0	0	1	1	391.228	0.137952	0.137535	-0.148462	2	6.33997	11	-2.04187e-05
2	0	0	1	1	392.128	0.128949	0.129267	-0.148612	2	6.33983	11	-1.92106e-05
2	0	0	1	1	393.029	0.119948	0.120064	-0.152379	2	6.33968	11	-1.82952e-05
2	0	0	1	1	393.929	0.110945	0.110798	-0.153811	2	6.33953	11	-1.7042e-05
2	0	0	0	1	394.829	0.101943	0.100033	-0.158535	2	6.33938	11	-1.58587e-05
2	0	0	1	1	395.729	0.0929411	0.0929489	-0.16205	2	6.33922	11	-1.50624e-05
2	0	0	0	1	396.63	0.083939	0.0845768	-0.161911	2	6.33907	11	-1.36939e-05
2	0	0	1	1	397.53	0.0749369	0.0749754	-0.165115	2	6.33891	11	-1.23795e-05
2	0	0	0	1	398.43	0.0659347	0.0671528	-0.162381	2	6.33875	11	-1.09043e-05
2	0	0	1	1	399.33	0.0569326	0.0563348	-0.163691	2	6.33859	11	-9.2215e-06
2	0	0	0	1	400.23	0.0479305	0.0480285	-0.166951	2	6.33843	11	-8.01843e-06
2	1	0	1	1	401.131	0.0389284	0.0383804	-0.166412	2	6.33827	11	-6.38698e-06
2	1	0	0	1	402.031	0.0299263	0.0307795	-0.170251	2	6.3381	11	-5.24023e-06
2	1	0	1	1	402.931	0.0209242	0.0198936	-0.173151	2	6.33794	11	-3.4446e-06
2	1	0	0	1	403.831	0.0119221	0.0122259	-0.175885	2	6.33777	11	-2.15034e-06
2	1	0	1	1	404.731	0.00291997	0.0035621	-0.175858	2	6.3376	11	-6.26426e-07
2	0	0	1	0	405.482	0.00452034	0.00500677	0.0276661	3	6.33755	11	1.38518e-07
2	0	0	0	0	406.382	0.0135225	0.0136779	0.0577227	3	6.3376	11	7.89527e-07
2	1	0	1	0	407.283	0.0225246	0.0227957	0.0710178	3	6.33768	11	1.6189e-06
2	1	0	0	0	408.183	0.0315267	0.0307551	0.0808492	3	6.33776	11	2.48653e-06
2	1	0	1	0	409.083	0.0405288	0.0397593	0.0859559	3	6.33784	11	3.41755e-06
2	0	0	0	0	409.983	0.0495309	0.047845	0.0941419	3	6.33794	11	4.50422e-06
2	1	0	1	0	410.883	0.058533	0.0566466	0.0967607	3	6.33803	11	5.48117e-06
2	1	0	0	0	411.784	0.0675351	0.0663987	0.0982386	3	6.33813	11	6.52291e-06
2	1	0	1	0	412.684	0.0765372	0.0765962	0.100695	3	6.33823	11	7.71286e-06
2	1	0	1	0	413.584	0.08554	0.086008	0.103561	3	6.33834	11	8.90705e-06
2	1	0	1	0	414.484	0.094541	0.0949153	0.105813	3	6.33844	11	1.00433e-05
2	1	0	1	0	415.385	0.103544	0.10248	0.106368	3	6.33855	11	1.09006e-05
2	1	0	0	0	416.285	0.112546	0.111466	0.10898	3	6.33866	11	1.21476e-05
2	1	0	1	0	417.185	0.121548	0.122172	0.106034	3	6.33876	11	1.29544e-05
2	1	0	0	0	418.085	0.13055	0.130092	0.103639	3	6.33887	11	1.34826e-05
2	1	0	1	0	418.985	0.139552	0.139766	0.107113	3	6.33898	11	1.49707e-05
2	1	0	0	0	419.886	0.148554	0.147873	0.109665	3	6.33909	11	1.62164e-05
2	1	0	1	0	420.786	0.157556	0.156735	0.110584	3	6.3392	11	1.73323e-05
2	1	0	0	0	421.686	0.166558	0.167073	0.111662	3	6.33931	11	1.86557e-05
2	0	0	1	0	422.586	0.17556	0.174393	0.111805	3	6.33942	11	1.9498e-05
2	0	0	0	0	423.486	0.184563	0.182703	0.110299	3	6.33953	11	2.01519e-05
2	0	0	1	0	424.387	0.193565	0.192525	0.111698	3	6.33964	11	2.15047e-05
2	0	0	0	0	425.287	0.202567	0.202122	0.110599	3	6.33975	11	2.23544e-05
2	0	0	1	0	426.187	0.211569	0.211174	0.107511	3	6.33986	11	2.27034e-05
2	0	0	0	0	427.087	0.220571	0.221388	0.10941	3	6.33997	11	2.42222e-05
2	0	0	1	0	427.987	0.229573	0.228722	0.108917	3	6.34008	11	2.49117e-05
2	0	0	0	0	428.888	0.238575	0.23737	0.106621	3	6.34019	11	2.53085e-05
2	0	0	1	0	429.788	0.247577	0.248613	0.105464	3	6.3403	11	2.62196e-05
2	0	0	1	0	430.688	0.256579	0.256581	0.10621	3	6.3404	11	2.72515e-05
2	1	0	0	0	431.588	0.265582	0.265848	0.105772	3	6.34051	11	2.81194e-05
2	1	0	1	0	432.489	0.274584	0.275623	0.105533	3	6.34062	11	2.90874e-05
2	0	0	0	0	433.389	0.283586	0.284434	0.106041	3	6.34073	11	3.01618e-05
2	1	0	1	0	434.289	0.292588	0.293423	0.10701	3	6.34083	11	3.13992e-05
2	1	0	0	0	435.189	0.30159	0.301246	0.10901	3	6.34094	11	3.28388e-05
2	1	0	1	0	436.089	0.310592	0.308916	0.109971	3	6.34105	11	3.39717e-05
2	1	0	0	0	436.99	0.319594	0.319324	0.108514	3	6.34116	11	3.46511e-05
2	1	0	1	0	437.89	0.328596	0.327434	0.107666	3	6.34126	11	3.52535e-05
2	1	0	0	0	438.79	0.337599	0.338479	0.108172	3	6.34137	11	3.66141e-05
2	1	0	1	0	439.69	0.346601	0.347026	0.105875	3	6.34148	11	3.67413e-05
2	1	0	0	0	440.59	0.355603	0.356082	0.10905	3	6.34159	11	3.88306e-05
2	1	0	1	0	441.491	0.364605	0.364642	0.10774	3	6.3417	11	3.92867e-05
2	1	0	0	0	442.391	0.373607	0.372784	0.108959	3	6.3418	11	4.06181e-05
2	1	0	1	0	443.291	0.382609	0.381925	0.108206	3	6.34191	11	4.13267e-05
2	1	0	0	0	444.191	0.391611	0.391107	0.106866	3	6.34202	11	4.17962e-05
2	1	0	1	0	445.091	0.400614	0.401716	0.108993	3	6.34213	11	4.37844e-05
2	1	0	1	0	445.992	0.409615	0.410476	0.106705	3	6.34224	11	4.37996e-05
2	1	0	0	0	446.892	0.418617	0.417996	0.107227	3	6.34235	11	4.48203e-05
2	1	0	1	0	447.792	0.42762	0.42759	0.111345	3	6.34246	11	4.761e-05
2	1	0	0	0	448.692	0.436622	0.437119	0.112079	3	6.34257	11	4.8992e-05
2	0	0	1	0	449.593	0.445624	0.445318	0.113031	3	6.34268	11	5.03346e-05
2	0	0	0	0	450.493	0.454626	0.453253	0.113309	3	6.34279	11	5.13577e-05
2	0	0	1	0	451.393	0.463628	0.464876	0.114211	3	6.34291	11	5.3094e-05
2	0	0	0	0	452.293	0.47263	0.472968	0.115313	3	6.34302	11	5.45393e-05
2	0	0	1	0	453.193	0.481632	0.482417	0.11799	3	6.34313	11	5.69205e-05
2	0	0	0	0	454.094	0.490634	0.490458	0.122067	3	6.34325	11	5.98689e-05
2	0	0	1	0	454.994	0.499636	0.498934	0.121707	3	6.34337	11	6.07238e-05
2	0	0	0	0	455.894	0.508639	0.507664	0.123626	3	6.34349	11	6.27603e-05
2	0	0	1	0	456.794	0.517641	0.517401	0.129653	3	6.34361	11	6.70824e-05
2	0	0	0	0	457.694	0.526643	0.525927	0.133982	3	6.34374	11	7.04646e-05
2	1	0	1	0	458.595	0.535645	0.536899	0.14284	3	6.34388	11	7.66909e-05
2	0	0	0	0	459.495	0.544647	0.545123	0.157944	3	6.34403	11	8.60987e-05
2	1	0	1	0	460.395	0.553649	0.554561	0.184407	3	6.3442	11	0.000102265
2	1	0	1	0	461.295	0.562651	0.560775	0.218944	3	6.34439	11	0.000122778
2	1	0	0	0	462.196	0.571653	0.57178	0.268504	3	6.34462	11	0.000153525
2	1	0	1	0	463.096	0.580656	0.580674	0.345592	3	6.3449	11	0.000200676
2	1	0	0	0	463.996	0.589658	0.588637	0.455971	3	6.34527	11	0.000268401
2	1	0	1	0	464.896	0.59866	0.599491	0.62049	3	6.34576	11	0.000371978
2	1	0	0	0	465.796	0.607662	0.609704	0.84571	3	6.34643	11	0.000515633
2	1	0	1	0	466.697	0.616664	0.616711	1.1545	3	6.34734	11	0.000711996
2	1	0	0	0	467.597	0.625666	0.625873	1.56078	3	6.34856	11	0.000976853
2	1	0	1	0	468.497	0.634668	0.633587	2.0748	3	6.3502	11	0.00131457
2	1	0	0	0	469.397	0.64367	0.642049	2.71145	3	6.35236	11	0.00174088
2	1	0	1	0	470.297	0.652672	0.652463	3.46586	3	6.35514	11	0.00226134
2	1	0	0	0	471.198	0.661675	0.661262	4.35318	3	6.35867	11	0.0028786
2	1	0	1	0	472.098	0.670677	0.671841	5.37323	3	6.36306	11	0.00360995
2	1	0	0	0	472.998	0.679679	0.680156	6.51911	3	6.36841	11	0.00443402
2	1	0	1	0	473.898	0.688681	0.689116	7.80087	3	6.37487	11	0.0053757
2	1	0	0	0	474.798	0.697683	0.69597	9.21093	3	6.38253	11	0.00641053
2	1	0	1	0	475.729	0.706986	0.705094	10.8071	3	6.39185	10	0.00762002
2	1	0	1	0	476.629	0.715987	0.714839	12.4326	3	6.40231	10	0.00888729
2	1	0	0	0	477.529	0.724989	0.725209	14.1667	3	6.4143	10	0.0102738
2	1	0	1	0	478.429	0.733991	0.734104	16.0228	3	6.4279	10	0.0117624
2	1	0	0	0	479.33	0.742994	0.742821	17.9956	3	6.44322	10	0.0133675
2	1	0	1	0	480.23	0.751996	0.753298	20.0461	3	6.46034	10	0.0151007
2	1	0	0	0	481.13	0.760998	0.75984	22.2164	3	6.47937	10	0.0168809
2	1	0	1	0	482.03	0.77	0.767674	24.4698	3	6.50039	10	0.0187848
2	1	0	0	0	482.93	0.779002	0.779637	26.8073	3	6.52347	10	0.0208999
2	1	0	1	0	483.831	0.788004	0.787206	29.244	3	6.54872	10	0.0230211
2	1	0	0	0	484.731	0.797006	0.797449	31.7831	3	6.57621	10	0.0253454
2	1	0	1	0	485.631	0.806008	0.806478	34.4236	3	6.60602	10	0.0277619
2	1	0	0	0	486.531	0.81501	0.814493	37.1212	3	6.63822	10	0.030235
2	1	0	1	0	487.431	0.824013	0.823074	40.0575	3	6.67294	10	0.0329703
2	1	0	0	0	488.332	0.833015	0.831998	42.9525	3	6.7103	10	0.0357364
2	1	0	1	0	489.232	0.842017	0.841153	45.8479	3	6.75027	10	0.0385651
2	1	0	0	0	490.132	0.851019	0.850367	48.8278	3	6.7929	10	0.0415216
2	1	0	1	0	491.032	0.860022	0.859876	51.904	3	6.83824	10	0.044631
2	1	0	1	0	491.932	0.869023	0.870526	55.0515	3	6.88637	10	0.0479238
2	1	0	1	0	492.833	0.878024	0.878262	58.2759	3	6.93738	10	0.0511815
2	1	0	1	0	493.733	0.887027	0.886811	61.5352	3	6.99132	10	0.0545701
2	1	0	0	0	494.633	0.896029	0.893699	64.9195	3	7.04828	10	0.0580186
2	1	0	1	0	495.533	0.905032	0.903515	68.2973	3	7.10823	10	0.0617076
2	1	0	0	0	496.434	0.914034	0.913376	71.7322	3	7.17127	10	0.0655185
2	1	0	1	0	497.334	0.923036	0.922059	75.2472	3	7.2374	10	0.0693823
2	1	0	0	0	498.234	0.932038	0.93313	78.6778	3	7.30669	10	0.0734166
2	1	0	1	0	499.134	0.94104	0.941572	82.277	3	7.37916	10	0.0774697
2	1	0	0	0	500.034	0.950042	0.949915	85.8473	3	7.45487	10	0.0815477
2	1	0	1	0	500.935	0.959044	0.959012	89.5561	3	7.53382	10	0.0858854
2	1	0	0	0	501.835	0.968046	0.967985	93.6443	3	7.61624	10	0.0906463
2	1	0	1	0	502.735	0.977048	0.976065	97.4676	3	7.70223	10	0.0951347
2	1	0	0	0	503.635	0.98605	0.986272	101.351	3	7.79176	10	0.0999596
2	1	0	1	0	504.535	0.995053	0.994433	105.117	3	7.88472	10	0.104532
2	1	0	0	0	505.286	0.997453	0.998182	105.98	3	7.96451	10	0.105788
2	1	0	1	0	506.186	0.988451	0.988805	101.636	3	8.0579	10	0.100498
2	1	0	1	0	507.086	0.979449	0.979361	97.2443	3	8.14737	10	0.0952372
2	1	0	0	0	507.987	0.970447	0.969875	93.1557	3	8.23304	10	0.0903494
2	1	0	1	0	508.887	0.961445	0.960191	89.2034	3	8.31506	10	0.0856523
2	1	0	0	0	509.787	0.952443	0.951728	85.0662	3	8.39349	10	0.0809599
2	1	0	1	0	510.687	0.943441	0.944335	81.1792	3	8.46832	10	0.0766604
2	1	0	0	0	511.588	0.934439	0.934569	77.3234	3	8.53966	10	0.0722641
2	1	0	1	0	512.488	0.925436	0.924203	73.5523	3	8.60754	10	0.0679772
2	1	0	0	0	513.388	0.916434	0.915607	69.8351	3	8.67204	10	0.0639415
2	1	0	1	0	514.288	0.907432	0.906515	66.1521	3	8.73322	10	0.0599679
2	1	0	0	0	515.188	0.89843	0.896866	62.6181	3	8.79114	10	0.05616
2	1	0	1	0	516.089	0.889428	0.889318	59.0637	3	8.84589	10	0.0525264
2	1	0	0	0	516.989	0.880426	0.881539	55.6396	3	8.89752	10	0.0490485
2	1	0	1	0	517.889	0.871424	0.870941	52.4006	3	8.94613	10	0.0456379
2	1	0	0	0	518.789	0.862422	0.863338	49.1527	3	8.99182	10	0.0424354
2	1	0	1	0	519.689	0.853419	0.852738	46.0595	3	9.03465	10	0.0392766
2	1	0	0	0	520.59	0.844417	0.844488	42.9514	3	9.07471	10	0.0362719
2	1	0	1	0	521.49	0.835414	0.835343	39.9852	3	9.11203	10	0.0334014
2	1	0	1	0	522.39	0.826414	0.825457	37.2122	3	9.14678	10	0.030717
2	1	0	0	0	523.29	0.817411	0.817892	34.4037	3	9.179	10	0.0281385
2	1	0	1	0	524.191	0.808409	0.809218	31.7259	3	9.20875	10	0.0256732
2	1	0	0	0	525.091	0.799407	0.79996	29.1265	3	9.23611	10	0.0233
2	1	0	1	0	525.991	0.790405	0.79021	26.6293	3	9.26118	10	0.0210428
2	1	0	0	0	526.891	0.781403	0.779677	24.2407	3	9.28405	10	0.0188999
2	1	0	1	0	527.791	0.772401	0.770705	21.947	3	9.3048	10	0.0169147
2	1	0	0	0	528.692	0.763398	0.763367	19.7603	3	9.32355	10	0.0150844
2	1	0	1	0	529.592	0.754396	0.753927	17.6888	3	9.34039	10	0.013336
2	1	0	0	0	530.492	0.745394	0.745202	15.7264	3	9.35541	10	0.0117193
2	1	0	1	0	531.392	0.736392	0.736838	13.8899	3	9.36872	10	0.0102346
2	1	0	0	0	532.292	0.72739	0.728076	12.1663	3	9.38042	10	0.00885798
2	1	0	1	0	533.193	0.718388	0.718246	10.5665	3	9.39062	10	0.00758933
2	1	0	0	0	534.093	0.709386	0.709835	9.08297	3	9.39944	10	0.0064474
2	1	0	1	0	534.993	0.700384	0.699098	7.7068	3	9.40697	10	0.00538781
2	1	0	0	0	535.893	0.691381	0.690667	6.46052	3	9.41332	10	0.00446206
2	1	0	1	0	536.793	0.682378	0.683633	5.34442	3	9.41861	10	0.00365362
2	1	0	1	0	537.724	0.673078	0.67371	4.31013	3	9.42308	11	0.00290377
2	1	0	0	0	538.624	0.664075	0.663671	3.43928	3	9.42654	11	0.00228255
2	1	0	1	0	539.524	0.655073	0.65386	2.68742	3	9.42928	11	0.00175719
2	1	0	0	0	540.424	0.646071	0.644103	2.04664	3	9.43139	11	0.00131825
2	1	0	1	0	541.325	0.637069	0.636731	1.51414	3	9.43297	11	0.0009641
2	1	0	0	0	542.225	0.628067	0.628389	1.08698	3	9.43412	11	0.000683047
2	1	0	1	0	543.125	0.619064	0.620119	0.749452	3	9.43493	11	0.00046475
2	1	0	0	0	544.025	0.610062	0.609752	0.493075	3	9.43547	11	0.000300653
2	1	0	1	0	544.925	0.60106	0.601932	0.301973	3	9.43582	11	0.000181767
2	1	0	0	0	545.826	0.592058	0.590723	0.169326	3	9.43601	11	0.000100025
2	1	0	1	0	546.726	0.583056	0.583268	0.0780139	3	9.43611	11	4.55031e-05
2	0	0	0	0	547.626	0.574054	0.573033	0.020036	3	9.43614	11	1.14813e-05
2	0	0	1	0	548.526	0.565052	0.565137	-0.0201669	3	9.43613	11	-1.1397e-05
2	0	0	0	0	549.426	0.55605	0.556155	-0.0379787	3	9.43609	11	-2.1122e-05
2	0	0	1	0	550.327	0.547048	0.547513	-0.052367	3	9.43604	11	-2.86716e-05
2	0	0	0	0	551.227	0.538045	0.537405	-0.0586127	3	9.43598	11	-3.14987e-05
2	1	0	1	0	552.127	0.529043	0.528112	-0.0628152	3	9.43591	11	-3.31735e-05
2	1	0	1	0	553.027	0.520041	0.518517	-0.0651678	3	9.43584	11	-3.37907e-05
2	1	0	0	0	553.928	0.511039	0.510304	-0.0682495	3	9.43577	11	-3.4828e-05
2	1	0	1	0	554.828	0.502037	0.501825	-0.0713879	3	9.43569	11	-3.58243e-05
2	1	0	0	0	555.728	0.493035	0.493486	-0.0709616	3	9.43561	11	-3.50185e-05
2	1	0	1	0	556.628	0.484033	0.48414	-0.0749271	3	9.43553	11	-3.62752e-05
2	1	0	0	0	557.528	0.475031	0.475338	-0.0752748	3	9.43546	11	-3.57809e-05
2	1	0	1	0	558.429	0.466029	0.466305	-0.07609	3	9.43537	11	-3.54811e-05
2	1	0	0	0	559.329	0.457026	0.456692	-0.0791178	3	9.43529	11	-3.61324e-05
2	1	0	1	0	560.229	0.448024	0.447434	-0.0850305	3	9.43521	11	-3.80455e-05
2	1	0	0	0	561.129	0.439022	0.438406	-0.0874075	3	9.43512	11	-3.832e-05
2	1	0	1	0	562.029	0.43002	0.42972	-0.0883096	3	9.43503	11	-3.79484e-05
2	1	0	0	0	562.93	0.421018	0.422267	-0.0910627	3	9.43494	11	-3.84527e-05
2	1	0	1	0	563.83	0.412016	0.413215	-0.0910795	3	9.43485	11	-3.76354e-05
2	1	0	0	0	564.73	0.403014	0.40284	-0.09083	3	9.43476	11	-3.659e-05
2	1	0	1	0	565.63	0.394012	0.392983	-0.0934279	3	9.43467	11	-3.67156e-05
2	0	0	0	0	566.53	0.38501	0.383328	-0.0949612	3	9.43457	11	-3.64012e-05
2	0	0	1	0	567.431	0.376007	0.374751	-0.0968054	3	9.43448	11	-3.62779e-05
2	0	0	1	0	568.331	0.367005	0.367581	-0.0984812	3	9.43438	11	-3.61998e-05
2	0	0	1	0	569.231	0.358004	0.359283	-0.100718	3	9.43428	11	-3.61861e-05
2	1	0	1	0	570.131	0.349001	0.349925	-0.0992398	3	9.43418	11	-3.47265e-05
2	0	0	0	0	571.032	0.339999	0.339896	-0.0989683	3	9.43408	11	-3.3639e-05
2	0	0	1	0	571.932	0.330997	0.33014	-0.1017	3	9.43398	11	-3.35753e-05
2	0	0	0	0	572.832	0.321995	0.320952	-0.102902	3	9.43387	11	-3.30265e-05
2	0	0	1	0	573.732	0.312993	0.313909	-0.105368	3	9.43377	11	-3.30762e-05
2	0	0	0	0	574.632	0.303991	0.304601	-0.108307	3	9.43366	11	-3.29904e-05
2	0	0	1	0	575.533	0.294988	0.295807	-0.110966	3	9.43355	11	-3.28245e-05
2	0	0	0	0	576.433	0.285986	0.287431	-0.109851	3	9.43344	11	-3.15745e-05
2	0	0	1	0	577.333	0.276984	0.275111	-0.112146	3	9.43333	11	-3.08527e-05
2	0	0	0	0	578.233	0.267982	0.267472	-0.112959	3	9.43322	11	-3.02134e-05
2	0	0	1	0	579.133	0.25898	0.257954	-0.11729	3	9.4331	11	-3.02555e-05
2	0	0	0	0	580.034	0.249978	0.24896	-0.117661	3	9.43299	11	-2.9293e-05
2	0	0	1	0	580.934	0.240976	0.240185	-0.120055	3	9.43287	11	-2.88355e-05
2	0	0	0	0	581.834	0.231974	0.231834	-0.1234	3	9.43275	11	-2.86083e-05
2	0	0	1	0	582.734	0.222972	0.221485	-0.124735	3	9.43263	11	-2.76269e-05
2	0	0	1	0	583.634	0.213969	0.213734	-0.125655	3	9.4325	11	-2.68567e-05
2	0	0	1	0	584.535	0.204968	0.204525	-0.123698	3	9.43238	11	-2.52992e-05
2	0	0	1	0	585.435	0.195965	0.193739	-0.130802	3	9.43225	11	-2.53415e-05
2	0	0	0	0	586.335	0.186963	0.187001	-0.132239	3	9.43212	11	-2.47287e-05
2	0	0	1	0	587.235	0.177961	0.178328	-0.132776	3	9.43199	11	-2.36777e-05
2	1	0	0	0	588.136	0.168959	0.170132	-0.137536	3	9.43186	11	-2.33994e-05
2	0	0	1	0	589.036	0.159957	0.160855	-0.139581	3	9.43172	11	-2.24523e-05
2	1	0	0	0	589.936	0.150955	0.151104	-0.13867	3	9.43158	11	-2.09536e-05
2	1	0	1	0	590.836	0.141953	0.141312	-0.140802	3	9.43144	11	-1.9897e-05
2	1	0	0	0	591.736	0.13295	0.132671	-0.141897	3	9.4313	11	-1.88256e-05
2	1	0	1	0	592.637	0.123948	0.123427	-0.144988	3	9.43116	11	-1.78954e-05
2	1	0	0	0	593.537	0.114946	0.11493	-0.148128	3	9.43101	11	-1.70243e-05
2	1	0	1	0	594.437	0.105944	0.106121	-0.153028	3	9.43086	11	-1.62394e-05
2	1	0	0	0	595.337	0.096942	0.0960323	-0.154089	3	9.43072	11	-1.47975e-05
2	1	0	1	0	596.237	0.0879399	0.0887305	-0.155164	3	9.43056	11	-1.37678e-05
2	1	0	0	0	597.138	0.0789378	0.0796192	-0.155768	3	9.43041	11	-1.24021e-05
2	1	0	1	0	598.038	0.0699357	0.0691406	-0.160105	3	9.43026	11	-1.10698e-05
2	0	0	0	0	598.938	0.0609336	0.0597216	-0.161763	3	9.4301	11	-9.66078e-06
2	0	0	1	0	599.838	0.0519315	0.0513102	-0.161902	3	9.42995	11	-8.30723e-06
2	1	0	1	0	600.739	0.0429294	0.0436542	-0.16624	3	9.42979	11	-7.25708e-06
2	0	0	0	0	601.639	0.0339272	0.0352482	-0.166624	3	9.42963	11	-5.87318e-06
2	0	0	1	0	602.539	0.0249251	0.0247792	-0.168263	3	9.42947	11	-4.16941e-06
2	0	0	0	0	603.439	0.015923	0.0153284	-0.170207	3	9.4293	11	-2.609e-06
2	1	0	1	0	604.339	0.00692091	0.00567394	-0.170412	3	9.42914	11	-9.66911e-07
2	0	0	1	1	605.09	-0.000580853	-0.000169417	-0.16862	3	9.429	11	2.85671e-08
2	0	0	0	1	605.99	-0.00958297	-0.0112675	-0.174767	3	9.42883	11	1.96918e-06
2	0	0	1	1	606.891	-0.0185851	-0.0200256	-0.174981	3	9.42866	11	3.5041e-06
2	1	0	0	1	607.791	-0.0275872	-0.0295623	-0.17643	3	9.42849	11	5.21568e-06
2	1	0	1	1	608.691	-0.0365893	-0.0373828	-0.181295	3	9.42831	11	6.77733e-06
2	1	0	0	1	609.591	-0.0455914	-0.0462163	-0.184773	3	9.42814	11	8.53953e-06
2	0	0	1	1	610.087	-0.0506426	-0.0510392	-0.0256404	3	9.42804	11	1.30867e-06