File: Data_1/2022_01_25 Co50Ni25Fe25Nx elec3 set2_C05_03_CP_C02.mpt
EC-Lab ASCII FILE
Nb header lines : 52

Chronopotentiometry

Run on channel : 2 (SN 12477)
User :
CE vs. WE compliance from -10 V to 10 V
Electrode connection : standard
Potential control : Ewe
Ewe ctrl range : min = -2.50 V, max = 2.50 V
Safety Limits :
	Do not start on E overload
Acquisition started on : 01/25/2023 13:03:00.629
Loaded Setting File :  C:\Users\grupogalan\Documents\EC-Lab\Data\Scott\2022_01_24 Co50Ni25Fe25Nx elec1 set1.1.mps
Saved on :
	File : 2022_01_25 Co50Ni25Fe25Nx elec3 set2_C05_03_CP_C02.mpr
	Directory : C:\Users\grupogalan\Documents\EC-Lab\Data\Scott\
	Host : 169.254.104.159
Device : VSP (SN 1176)
Address : USB
EC-Lab for windows v11.46 (software)
Internet server v11.40 (firmware)
Command interpretor v11.40 (firmware)
Electrode material :
Initial state :
Electrolyte :
Comments :
Electrode surface area : 0.000 cm²
Characteristic mass : 0.001 g
Equivalent Weight : 0.000 g/eq.
Density : 0.000 g/cm3
Volume (V) : 0.001 cm³
Cycle Definition : Charge/Discharge alternance
Is                  10.000
unit Is             mA
vs.                 <None>
ts (h:m:s)          2:00:0.0000
EM (V)              pass
dQM                 20.000
unit dQM            mA.h
record              <Ewe>
dEs (mV)            0.00
dts (s)             1.0000
E range min (V)     -2.500
E range max (V)     2.500
I Range             10 mA
Bandwidth           5
goto Ns'            0
nc cycles           0

mode	ox/red	error	control changes	Ns changes	counter inc.	Ns	time/s	control/mA	<Ewe>/V	I/mA	dQ/C	(Q-Qo)/C	half cycle	Q charge/discharge/mA.h	I Range	Energy charge/W.h	Energy discharge/W.h	Capacitance charge/µF	Capacitance discharge/µF	Q discharge/mA.h	Q charge/mA.h	Capacity/mA.h	Efficiency/%	cycle number	P/W
1	1	0	0	0	0	0	675.576	10	0.678371	10.0016	0.00947735	0.00947735	0	0.0026326	11	1.78588e-06	0.000000000000000E+000	0.000000000000000E+000	0.000000000000000E+000	0.000000000000000E+000	0.0026326	0.0026326	0.0000000E+000	0.000000000000000E+000	0.00678476
1	1	0	0	0	0	0	708.576	10	0.696429	10.0013	0.339526	0.339526	0	0.0943126	11	6.58507e-05	0.000000000000000E+000	1.88013e+07	0.000000000000000E+000	0.000000000000000E+000	0.0943126	0.0943126	0.0000000E+000	0.000000000000000E+000	0.0069652
1	1	0	0	0	0	0	741.576	10	0.695168	10.0021	0.669574	0.669574	0	0.185993	11	0.000129631	0.000000000000000E+000	3.98624e+07	0.000000000000000E+000	0.000000000000000E+000	0.185993	0.185993	0.0000000E+000	0.000000000000000E+000	0.00695311
1	1	0	0	0	0	0	774.576	10	0.694553	10.001	0.999622	0.999622	0	0.277673	11	0.000193334	0.000000000000000E+000	6.17721e+07	0.000000000000000E+000	0.000000000000000E+000	0.277673	0.277673	0.0000000E+000	0.000000000000000E+000	0.00694621
1	1	0	0	0	0	0	807.576	10	0.694422	10.0017	1.32967	1.32967	0	0.369353	11	0.000257003	0.000000000000000E+000	8.28354e+07	0.000000000000000E+000	0.000000000000000E+000	0.369353	0.369353	0.0000000E+000	0.000000000000000E+000	0.00694539
1	1	0	0	0	0	0	840.576	10	0.694336	10.001	1.65972	1.65972	0	0.461033	11	0.000320659	0.000000000000000E+000	1.03954e+08	0.000000000000000E+000	0.000000000000000E+000	0.461033	0.461033	0.0000000E+000	0.000000000000000E+000	0.00694405
1	1	0	0	0	0	0	873.576	10	0.694287	10.0017	1.98977	1.98977	0	0.552713	11	0.000384311	0.000000000000000E+000	1.25016e+08	0.000000000000000E+000	0.000000000000000E+000	0.552713	0.552713	0.0000000E+000	0.000000000000000E+000	0.00694408
1	1	0	0	0	0	0	906.576	10	0.694203	10.0017	2.31981	2.31981	0	0.644393	11	0.000447957	0.000000000000000E+000	1.46522e+08	0.000000000000000E+000	0.000000000000000E+000	0.644393	0.644393	0.0000000E+000	0.000000000000000E+000	0.0069432
1	1	0	0	0	0	0	939.576	10	0.694349	10.0015	2.64986	2.64986	0	0.736073	11	0.000511614	0.000000000000000E+000	1.6584e+08	0.000000000000000E+000	0.000000000000000E+000	0.736073	0.736073	0.0000000E+000	0.000000000000000E+000	0.00694453
1	1	0	0	0	0	0	972.576	10	0.694575	10.0019	2.97991	2.97991	0	0.827752	11	0.000575281	0.000000000000000E+000	1.83891e+08	0.000000000000000E+000	0.000000000000000E+000	0.827752	0.827752	0.0000000E+000	0.000000000000000E+000	0.00694706
1	1	0	0	0	0	0	1005.58	10	0.694672	10.0022	3.30996	3.30996	0	0.919432	11	0.000638963	0.000000000000000E+000	2.03045e+08	0.000000000000000E+000	0.000000000000000E+000	0.919432	0.919432	0.0000000E+000	0.000000000000000E+000	0.00694825
1	1	0	0	0	0	0	1038.58	10	0.694943	10.0023	3.64	3.64	0	1.01111	11	0.000702659	0.000000000000000E+000	2.19645e+08	0.000000000000000E+000	0.000000000000000E+000	1.01111	1.01111	0.0000000E+000	0.000000000000000E+000	0.00695104
1	1	0	0	0	0	0	1071.58	10	0.694919	10.0009	3.97005	3.97005	0	1.10279	11	0.000766356	0.000000000000000E+000	2.39911e+08	0.000000000000000E+000	0.000000000000000E+000	1.10279	1.10279	0.0000000E+000	0.000000000000000E+000	0.00694983
1	1	0	0	0	0	0	1104.58	10	0.694921	10.0018	4.3001	4.3001	0	1.19447	11	0.000830073	0.000000000000000E+000	2.59813e+08	0.000000000000000E+000	0.000000000000000E+000	1.19447	1.19447	0.0000000E+000	0.000000000000000E+000	0.00695047
1	1	0	0	0	0	0	1137.58	10	0.695372	10.0015	4.63015	4.63015	0	1.28615	11	0.000893806	0.000000000000000E+000	2.7234e+08	0.000000000000000E+000	0.000000000000000E+000	1.28615	1.28615	0.0000000E+000	0.000000000000000E+000	0.00695476
1	1	0	0	0	0	0	1170.58	10	0.695735	10.0013	4.96019	4.96019	0	1.37783	11	0.000957574	0.000000000000000E+000	2.85656e+08	0.000000000000000E+000	0.000000000000000E+000	1.37783	1.37783	0.0000000E+000	0.000000000000000E+000	0.00695825
1	1	0	0	0	0	0	1203.58	10	0.696022	10.0015	5.29024	5.29024	0	1.46951	11	0.00102137	0.000000000000000E+000	2.99706e+08	0.000000000000000E+000	0.000000000000000E+000	1.46951	1.46951	0.0000000E+000	0.000000000000000E+000	0.00696126
1	1	0	0	0	0	0	1236.58	10	0.696332	10.0014	5.62029	5.62029	0	1.56119	11	0.0010852	0.000000000000000E+000	3.12905e+08	0.000000000000000E+000	0.000000000000000E+000	1.56119	1.56119	0.0000000E+000	0.000000000000000E+000	0.00696432
1	1	0	0	0	0	0	1269.58	10	0.696526	10.0012	5.95034	5.95034	0	1.65287	11	0.00114904	0.000000000000000E+000	3.27739e+08	0.000000000000000E+000	0.000000000000000E+000	1.65287	1.65287	0.0000000E+000	0.000000000000000E+000	0.00696608
1	1	0	0	0	0	0	1302.58	10	0.696834	10.0018	6.28038	6.28038	0	1.74455	11	0.00121292	0.000000000000000E+000	3.40157e+08	0.000000000000000E+000	0.000000000000000E+000	1.74455	1.74455	0.0000000E+000	0.000000000000000E+000	0.0069696
1	1	0	0	0	0	0	1335.58	10	0.6971	10.001	6.61043	6.61043	0	1.83623	11	0.00127681	0.000000000000000E+000	3.52951e+08	0.000000000000000E+000	0.000000000000000E+000	1.83623	1.83623	0.0000000E+000	0.000000000000000E+000	0.00697168
1	1	0	0	0	0	0	1368.58	10	0.69747	10.0012	6.94048	6.94048	0	1.92791	11	0.00134073	0.000000000000000E+000	3.63393e+08	0.000000000000000E+000	0.000000000000000E+000	1.92791	1.92791	0.0000000E+000	0.000000000000000E+000	0.00697556
1	1	0	0	0	0	0	1401.58	10	0.697838	10.0007	7.27053	7.27053	0	2.01959	11	0.00140469	0.000000000000000E+000	3.73469e+08	0.000000000000000E+000	0.000000000000000E+000	2.01959	2.01959	0.0000000E+000	0.000000000000000E+000	0.00697889
1	1	0	0	0	0	0	1434.58	10	0.698055	10.0014	7.60057	7.60057	0	2.11127	11	0.00146867	0.000000000000000E+000	3.86115e+08	0.000000000000000E+000	0.000000000000000E+000	2.11127	2.11127	0.0000000E+000	0.000000000000000E+000	0.00698155
1	1	0	0	0	0	0	1467.58	10	0.698492	10.0016	7.93062	7.93062	0	2.20295	11	0.00153269	0.000000000000000E+000	3.94132e+08	0.000000000000000E+000	0.000000000000000E+000	2.20295	2.20295	0.0000000E+000	0.000000000000000E+000	0.00698601
1	1	0	0	0	0	0	1500.58	10	0.698905	10.001	8.26067	8.26067	0	2.29463	11	0.00159675	0.000000000000000E+000	4.02277e+08	0.000000000000000E+000	0.000000000000000E+000	2.29463	2.29463	0.0000000E+000	0.000000000000000E+000	0.00698974
1	1	0	0	0	0	0	1533.58	10	0.699323	10.0017	8.59072	8.59072	0	2.38631	11	0.00166085	0.000000000000000E+000	4.10009e+08	0.000000000000000E+000	0.000000000000000E+000	2.38631	2.38631	0.0000000E+000	0.000000000000000E+000	0.00699445
1	1	0	0	0	0	0	1566.58	10	0.699553	10.0015	8.92076	8.92076	0	2.47799	11	0.00172496	0.000000000000000E+000	4.2114e+08	0.000000000000000E+000	0.000000000000000E+000	2.47799	2.47799	0.0000000E+000	0.000000000000000E+000	0.00699657
1	1	0	0	0	0	0	1599.58	10	0.700093	10.0014	9.25081	9.25081	0	2.56967	11	0.00178913	0.000000000000000E+000	4.25856e+08	0.000000000000000E+000	0.000000000000000E+000	2.56967	2.56967	0.0000000E+000	0.000000000000000E+000	0.00700189
1	1	0	0	0	0	0	1632.58	10	0.700479	10.001	9.58086	9.58086	0	2.66135	11	0.00185334	0.000000000000000E+000	4.33359e+08	0.000000000000000E+000	0.000000000000000E+000	2.66135	2.66135	0.0000000E+000	0.000000000000000E+000	0.00700548
1	1	0	0	0	0	0	1665.58	10	0.700967	10.0021	9.91091	9.91091	0	2.75303	11	0.00191759	0.000000000000000E+000	4.38604e+08	0.000000000000000E+000	0.000000000000000E+000	2.75303	2.75303	0.0000000E+000	0.000000000000000E+000	0.00701112
1	1	0	0	0	0	0	1698.58	10	0.701277	10.0013	10.241	10.241	0	2.84471	11	0.00198186	0.000000000000000E+000	4.47077e+08	0.000000000000000E+000	0.000000000000000E+000	2.84471	2.84471	0.0000000E+000	0.000000000000000E+000	0.00701368
1	1	0	0	0	0	0	1731.58	10	0.701711	10.0014	10.571	10.571	0	2.93639	11	0.00204617	0.000000000000000E+000	4.52902e+08	0.000000000000000E+000	0.000000000000000E+000	2.93639	2.93639	0.0000000E+000	0.000000000000000E+000	0.00701811
1	1	0	0	0	0	0	1764.58	10	0.702288	10.0014	10.9011	10.9011	0	3.02807	11	0.00211054	0.000000000000000E+000	4.5578e+08	0.000000000000000E+000	0.000000000000000E+000	3.02807	3.02807	0.0000000E+000	0.000000000000000E+000	0.00702388
1	1	0	0	0	0	0	1797.58	10	0.702355	10.0006	11.2311	11.2311	0	3.11975	11	0.00217493	0.000000000000000E+000	4.68272e+08	0.000000000000000E+000	0.000000000000000E+000	3.11975	3.11975	0.0000000E+000	0.000000000000000E+000	0.00702397
1	1	0	0	0	0	0	1830.58	10	0.703303	10.0019	11.5611	11.5611	0	3.21143	11	0.00223937	0.000000000000000E+000	4.63707e+08	0.000000000000000E+000	0.000000000000000E+000	3.21143	3.21143	0.0000000E+000	0.000000000000000E+000	0.00703435
1	1	0	0	0	0	0	1863.58	10	0.70375	10.002	11.8912	11.8912	0	3.30311	11	0.00230387	0.000000000000000E+000	4.68531e+08	0.000000000000000E+000	0.000000000000000E+000	3.30311	3.30311	0.0000000E+000	0.000000000000000E+000	0.00703891
1	1	0	0	0	0	0	1896.58	10	0.704193	10.001	12.2212	12.2212	0	3.39479	11	0.00236841	0.000000000000000E+000	4.73274e+08	0.000000000000000E+000	0.000000000000000E+000	3.39479	3.39479	0.0000000E+000	0.000000000000000E+000	0.00704263
1	1	0	0	0	0	0	1929.58	10	0.704227	10.001	12.5513	12.5513	0	3.48647	11	0.002433	0.000000000000000E+000	4.85421e+08	0.000000000000000E+000	0.000000000000000E+000	3.48647	3.48647	0.0000000E+000	0.000000000000000E+000	0.00704301
1	1	0	0	0	0	0	1962.58	10	0.705099	10.0013	12.8813	12.8813	0	3.57815	11	0.00249761	0.000000000000000E+000	4.8193e+08	0.000000000000000E+000	0.000000000000000E+000	3.57815	3.57815	0.0000000E+000	0.000000000000000E+000	0.00705191
1	1	0	0	0	0	0	1995.58	10	0.705582	10.0012	13.2114	13.2114	0	3.66983	11	0.00256229	0.000000000000000E+000	4.85503e+08	0.000000000000000E+000	0.000000000000000E+000	3.66983	3.66983	0.0000000E+000	0.000000000000000E+000	0.0070567
1	1	0	0	0	0	0	2028.58	10	0.706322	10.0011	13.5414	13.5414	0	3.76151	11	0.00262701	0.000000000000000E+000	4.84456e+08	0.000000000000000E+000	0.000000000000000E+000	3.76151	3.76151	0.0000000E+000	0.000000000000000E+000	0.00706401
1	1	0	0	0	0	0	2061.58	10	0.706593	10.0012	13.8715	13.8715	0	3.85319	11	0.00269176	0.000000000000000E+000	4.91512e+08	0.000000000000000E+000	0.000000000000000E+000	3.85319	3.85319	0.0000000E+000	0.000000000000000E+000	0.00706676
1	1	0	0	0	0	0	2094.58	10	0.707152	10.001	14.2015	14.2015	0	3.94487	11	0.00275657	0.000000000000000E+000	4.93432e+08	0.000000000000000E+000	0.000000000000000E+000	3.94487	3.94487	0.0000000E+000	0.000000000000000E+000	0.00707226
1	1	0	0	0	0	0	2127.58	10	0.70766	10.0013	14.5316	14.5316	0	4.03655	11	0.00282143	0.000000000000000E+000	4.96139e+08	0.000000000000000E+000	0.000000000000000E+000	4.03655	4.03655	0.0000000E+000	0.000000000000000E+000	0.00707752
1	1	0	0	0	0	0	2160.58	10	0.708324	10.0016	14.8616	14.8616	0	4.12823	11	0.00288634	0.000000000000000E+000	4.96162e+08	0.000000000000000E+000	0.000000000000000E+000	4.12823	4.12823	0.0000000E+000	0.000000000000000E+000	0.00708434
1	1	0	0	0	0	0	2193.58	10	0.708835	10.0018	15.1917	15.1917	0	4.21991	11	0.0029513	0.000000000000000E+000	4.9867e+08	0.000000000000000E+000	0.000000000000000E+000	4.21991	4.21991	0.0000000E+000	0.000000000000000E+000	0.00708963
1	1	0	0	0	0	0	2226.58	10	0.709074	10.0013	15.5217	15.5217	0	4.31159	11	0.00301628	0.000000000000000E+000	5.05529e+08	0.000000000000000E+000	0.000000000000000E+000	4.31159	4.31159	0.0000000E+000	0.000000000000000E+000	0.00709167
1	1	0	0	0	0	0	2259.58	10	0.709574	10.0013	15.8518	15.8518	0	4.40327	11	0.00308132	0.000000000000000E+000	5.08008e+08	0.000000000000000E+000	0.000000000000000E+000	4.40327	4.40327	0.0000000E+000	0.000000000000000E+000	0.00709667
1	1	0	0	0	0	0	2292.58	10	0.710245	10.0011	16.1818	16.1818	0	4.49495	11	0.00314641	0.000000000000000E+000	5.0767e+08	0.000000000000000E+000	0.000000000000000E+000	4.49495	4.49495	0.0000000E+000	0.000000000000000E+000	0.00710324
1	1	0	0	0	0	0	2325.58	10	0.710653	10.001	16.5119	16.5119	0	4.58663	11	0.00321154	0.000000000000000E+000	5.11481e+08	0.000000000000000E+000	0.000000000000000E+000	4.58663	4.58663	0.0000000E+000	0.000000000000000E+000	0.00710728
1	1	0	0	0	0	0	2358.58	10	0.711191	10.0015	16.8419	16.8419	0	4.67831	11	0.00327672	0.000000000000000E+000	5.13157e+08	0.000000000000000E+000	0.000000000000000E+000	4.67831	4.67831	0.0000000E+000	0.000000000000000E+000	0.00711297
1	1	0	0	0	0	0	2391.58	10	0.711898	10.0019	17.172	17.172	0	4.76999	11	0.00334196	0.000000000000000E+000	5.12172e+08	0.000000000000000E+000	0.000000000000000E+000	4.76999	4.76999	0.0000000E+000	0.000000000000000E+000	0.00712032
1	1	0	0	0	0	0	2424.58	10	0.71226	10.001	17.502	17.502	0	4.86167	11	0.00340724	0.000000000000000E+000	5.16437e+08	0.000000000000000E+000	0.000000000000000E+000	4.86167	4.86167	0.0000000E+000	0.000000000000000E+000	0.00712335
1	1	0	0	0	0	0	2457.58	10	0.712647	10.0007	17.832	17.832	0	4.95335	11	0.00347254	0.000000000000000E+000	5.20241e+08	0.000000000000000E+000	0.000000000000000E+000	4.95335	4.95335	0.0000000E+000	0.000000000000000E+000	0.00712695
1	1	0	0	0	0	0	2490.58	10	0.713195	10.0019	18.1621	18.1621	0	5.04503	11	0.0035379	0.000000000000000E+000	5.21531e+08	0.000000000000000E+000	0.000000000000000E+000	5.04503	5.04503	0.0000000E+000	0.000000000000000E+000	0.00713329
1	1	0	0	0	0	0	2523.58	10	0.713569	10.0021	18.4921	18.4921	0	5.13671	11	0.0036033	0.000000000000000E+000	5.25369e+08	0.000000000000000E+000	0.000000000000000E+000	5.13671	5.13671	0.0000000E+000	0.000000000000000E+000	0.00713721
1	1	0	0	0	0	0	2556.58	10	0.714098	10.0011	18.8222	18.8222	0	5.22839	11	0.00366874	0.000000000000000E+000	5.26824e+08	0.000000000000000E+000	0.000000000000000E+000	5.22839	5.22839	0.0000000E+000	0.000000000000000E+000	0.00714178
1	1	0	0	0	0	0	2589.58	10	0.714509	10.0012	19.1522	19.1522	0	5.32007	11	0.00373423	0.000000000000000E+000	5.2997e+08	0.000000000000000E+000	0.000000000000000E+000	5.32007	5.32007	0.0000000E+000	0.000000000000000E+000	0.00714597
1	1	0	0	0	0	0	2622.58	10	0.715091	10.0012	19.4823	19.4823	0	5.41175	11	0.00379977	0.000000000000000E+000	5.30559e+08	0.000000000000000E+000	0.000000000000000E+000	5.41175	5.41175	0.0000000E+000	0.000000000000000E+000	0.00715179
1	1	0	0	0	0	0	2655.58	10	0.715637	10.0012	19.8123	19.8123	0	5.50343	11	0.00386535	0.000000000000000E+000	5.31645e+08	0.000000000000000E+000	0.000000000000000E+000	5.50343	5.50343	0.0000000E+000	0.000000000000000E+000	0.00715725
1	1	0	0	0	0	0	2688.58	10	0.716025	10.0016	20.1424	20.1424	0	5.59511	11	0.00393098	0.000000000000000E+000	5.3493e+08	0.000000000000000E+000	0.000000000000000E+000	5.59511	5.59511	0.0000000E+000	0.000000000000000E+000	0.00716136
1	1	0	0	0	0	0	2721.58	10	0.716452	10.0012	20.4724	20.4724	0	5.68679	11	0.00399665	0.000000000000000E+000	5.37594e+08	0.000000000000000E+000	0.000000000000000E+000	5.68679	5.68679	0.0000000E+000	0.000000000000000E+000	0.00716541
1	1	0	0	0	0	0	2754.58	10	0.717059	10.0018	20.8025	20.8025	0	5.77847	11	0.00406237	0.000000000000000E+000	5.37694e+08	0.000000000000000E+000	0.000000000000000E+000	5.77847	5.77847	0.0000000E+000	0.000000000000000E+000	0.00717189
1	1	0	0	0	0	0	2787.58	10	0.717518	10.0019	21.1325	21.1325	0	5.87015	11	0.00412813	0.000000000000000E+000	5.39822e+08	0.000000000000000E+000	0.000000000000000E+000	5.87015	5.87015	0.0000000E+000	0.000000000000000E+000	0.00717652
1	1	0	0	0	0	0	2820.58	10	0.71803	10.0019	21.4626	21.4626	0	5.96183	11	0.00419394	0.000000000000000E+000	5.41177e+08	0.000000000000000E+000	0.000000000000000E+000	5.96183	5.96183	0.0000000E+000	0.000000000000000E+000	0.00718164
1	1	0	0	0	0	0	2853.58	10	0.718243	10.0009	21.7926	21.7926	0	6.05351	11	0.00425978	0.000000000000000E+000	5.46559e+08	0.000000000000000E+000	0.000000000000000E+000	6.05351	6.05351	0.0000000E+000	0.000000000000000E+000	0.00718305
1	1	0	0	0	0	0	2886.58	10	0.718783	10.002	22.1227	22.1227	0	6.14519	11	0.00432565	0.000000000000000E+000	5.47423e+08	0.000000000000000E+000	0.000000000000000E+000	6.14519	6.14519	0.0000000E+000	0.000000000000000E+000	0.00718927
1	1	0	0	0	0	0	2919.58	10	0.719281	10.0014	22.4527	22.4527	0	6.23687	11	0.00439157	0.000000000000000E+000	5.48827e+08	0.000000000000000E+000	0.000000000000000E+000	6.23687	6.23687	0.0000000E+000	0.000000000000000E+000	0.00719384
1	1	0	0	0	0	0	2952.58	10	0.719927	10.0014	22.7828	22.7828	0	6.32855	11	0.00445754	0.000000000000000E+000	5.48231e+08	0.000000000000000E+000	0.000000000000000E+000	6.32855	6.32855	0.0000000E+000	0.000000000000000E+000	0.0072003
1	1	0	0	0	0	0	2985.58	10	0.720252	10.0014	23.1128	23.1128	0	6.42023	11	0.00452355	0.000000000000000E+000	5.51858e+08	0.000000000000000E+000	0.000000000000000E+000	6.42023	6.42023	0.0000000E+000	0.000000000000000E+000	0.00720351
1	1	0	0	0	0	0	3018.58	10	0.720595	10.0012	23.4429	23.4429	0	6.51191	11	0.0045896	0.000000000000000E+000	5.55203e+08	0.000000000000000E+000	0.000000000000000E+000	6.51191	6.51191	0.0000000E+000	0.000000000000000E+000	0.00720679
1	1	0	0	0	0	0	3051.58	10	0.721129	10.0011	23.7729	23.7729	0	6.60359	11	0.00465569	0.000000000000000E+000	5.55982e+08	0.000000000000000E+000	0.000000000000000E+000	6.60359	6.60359	0.0000000E+000	0.000000000000000E+000	0.00721209
1	1	0	0	0	0	0	3084.58	10	0.721601	10.0015	24.103	24.103	0	6.69527	11	0.00472182	0.000000000000000E+000	5.57543e+08	0.000000000000000E+000	0.000000000000000E+000	6.69527	6.69527	0.0000000E+000	0.000000000000000E+000	0.00721709
1	1	0	0	0	0	0	3117.58	10	0.721974	10.0015	24.433	24.433	0	6.78695	11	0.00478799	0.000000000000000E+000	5.60348e+08	0.000000000000000E+000	0.000000000000000E+000	6.78695	6.78695	0.0000000E+000	0.000000000000000E+000	0.00722082
1	1	0	0	0	0	0	3150.58	10	0.722235	10.0018	24.7631	24.7631	0	6.87863	11	0.0048542	0.000000000000000E+000	5.64538e+08	0.000000000000000E+000	0.000000000000000E+000	6.87863	6.87863	0.0000000E+000	0.000000000000000E+000	0.00722366
1	1	0	0	0	0	0	3183.58	10	0.722844	10.0019	25.0931	25.0931	0	6.97031	11	0.00492045	0.000000000000000E+000	5.64221e+08	0.000000000000000E+000	0.000000000000000E+000	6.97031	6.97031	0.0000000E+000	0.000000000000000E+000	0.0072298
1	1	0	0	0	0	0	3216.58	10	0.723179	10.0012	25.4232	25.4232	0	7.06199	11	0.00498673	0.000000000000000E+000	5.6738e+08	0.000000000000000E+000	0.000000000000000E+000	7.06199	7.06199	0.0000000E+000	0.000000000000000E+000	0.00723268
1	1	0	0	0	0	0	3249.58	10	0.723505	10.0015	25.7532	25.7532	0	7.15367	11	0.00505305	0.000000000000000E+000	5.70591e+08	0.000000000000000E+000	0.000000000000000E+000	7.15367	7.15367	0.0000000E+000	0.000000000000000E+000	0.00723613
1	1	0	0	0	0	0	3282.58	10	0.723905	10.0017	26.0833	26.0833	0	7.24535	11	0.00511941	0.000000000000000E+000	5.7283e+08	0.000000000000000E+000	0.000000000000000E+000	7.24535	7.24535	0.0000000E+000	0.000000000000000E+000	0.00724027
1	1	0	0	0	0	0	3315.58	10	0.724533	10.0012	26.4133	26.4133	0	7.33703	11	0.00518581	0.000000000000000E+000	5.72178e+08	0.000000000000000E+000	0.000000000000000E+000	7.33703	7.33703	0.0000000E+000	0.000000000000000E+000	0.00724623
1	1	0	0	0	0	0	3348.58	10	0.724858	10.0011	26.7434	26.7434	0	7.42871	11	0.00525224	0.000000000000000E+000	5.75285e+08	0.000000000000000E+000	0.000000000000000E+000	7.42871	7.42871	0.0000000E+000	0.000000000000000E+000	0.00724938
1	1	0	0	0	0	0	3381.58	10	0.72533	10.0017	27.0734	27.0734	0	7.52039	11	0.00531872	0.000000000000000E+000	5.76523e+08	0.000000000000000E+000	0.000000000000000E+000	7.52039	7.52039	0.0000000E+000	0.000000000000000E+000	0.00725453
1	1	0	0	0	0	0	3414.58	10	0.725661	10.001	27.4035	27.4035	0	7.61207	11	0.00538523	0.000000000000000E+000	5.79471e+08	0.000000000000000E+000	0.000000000000000E+000	7.61207	7.61207	0.0000000E+000	0.000000000000000E+000	0.00725737
1	1	0	0	0	0	0	3447.58	10	0.726128	10.0008	27.7335	27.7335	0	7.70375	11	0.00545178	0.000000000000000E+000	5.80718e+08	0.000000000000000E+000	0.000000000000000E+000	7.70375	7.70375	0.0000000E+000	0.000000000000000E+000	0.00726186
1	1	0	0	0	0	0	3480.58	10	0.726481	10.001	28.0635	28.0635	0	7.79543	11	0.00551837	0.000000000000000E+000	5.83312e+08	0.000000000000000E+000	0.000000000000000E+000	7.79543	7.79543	0.0000000E+000	0.000000000000000E+000	0.00726557
1	1	0	0	0	0	0	3513.58	10	0.726823	10.0013	28.3936	28.3936	0	7.88711	11	0.00558499	0.000000000000000E+000	5.8601e+08	0.000000000000000E+000	0.000000000000000E+000	7.88711	7.88711	0.0000000E+000	0.000000000000000E+000	0.00726918
1	1	0	0	0	0	0	3546.58	10	0.727246	10.0012	28.7236	28.7236	0	7.97879	11	0.00565166	0.000000000000000E+000	5.87685e+08	0.000000000000000E+000	0.000000000000000E+000	7.97879	7.97879	0.0000000E+000	0.000000000000000E+000	0.00727337
1	1	0	0	0	0	0	3579.58	10	0.727551	10.0008	29.0537	29.0537	0	8.07047	11	0.00571834	0.000000000000000E+000	5.90755e+08	0.000000000000000E+000	0.000000000000000E+000	8.07047	8.07047	0.0000000E+000	0.000000000000000E+000	0.00727609
1	1	0	0	0	0	0	3612.58	10	0.727995	10.0017	29.3837	29.3837	0	8.16215	11	0.00578507	0.000000000000000E+000	5.92122e+08	0.000000000000000E+000	0.000000000000000E+000	8.16215	8.16215	0.0000000E+000	0.000000000000000E+000	0.00728118
1	1	0	0	0	0	0	3645.58	10	0.728395	10.0014	29.7138	29.7138	0	8.25383	11	0.00585183	0.000000000000000E+000	5.93991e+08	0.000000000000000E+000	0.000000000000000E+000	8.25383	8.25383	0.0000000E+000	0.000000000000000E+000	0.00728499
1	1	0	0	0	0	0	3678.58	10	0.728791	10.0016	30.0438	30.0438	0	8.34551	11	0.00591864	0.000000000000000E+000	5.9586e+08	0.000000000000000E+000	0.000000000000000E+000	8.34551	8.34551	0.0000000E+000	0.000000000000000E+000	0.00728905
1	1	0	0	0	0	0	3711.58	10	0.729361	10.0016	30.3739	30.3739	0	8.43719	11	0.00598547	0.000000000000000E+000	5.9568e+08	0.000000000000000E+000	0.000000000000000E+000	8.43719	8.43719	0.0000000E+000	0.000000000000000E+000	0.00729474
1	1	0	0	0	0	0	3744.58	10	0.72926	10.0012	30.7039	30.7039	0	8.52887	11	0.00605234	0.000000000000000E+000	6.03349e+08	0.000000000000000E+000	0.000000000000000E+000	8.52887	8.52887	0.0000000E+000	0.000000000000000E+000	0.0072935
1	1	0	0	0	0	0	3777.58	10	0.729752	10.001	31.034	31.034	0	8.62055	11	0.00611923	0.000000000000000E+000	6.03987e+08	0.000000000000000E+000	0.000000000000000E+000	8.62055	8.62055	0.0000000E+000	0.000000000000000E+000	0.00729824
1	1	0	0	0	0	0	3810.58	10	0.730205	10.0017	31.364	31.364	0	8.71223	11	0.00618616	0.000000000000000E+000	6.05079e+08	0.000000000000000E+000	0.000000000000000E+000	8.71223	8.71223	0.0000000E+000	0.000000000000000E+000	0.00730328
1	1	0	0	0	0	0	3843.58	10	0.730649	10.0015	31.6941	31.6941	0	8.80391	11	0.00625312	0.000000000000000E+000	6.0625e+08	0.000000000000000E+000	0.000000000000000E+000	8.80391	8.80391	0.0000000E+000	0.000000000000000E+000	0.00730759
1	1	0	0	0	0	0	3876.58	10	0.731021	10.001	32.0241	32.0241	0	8.89559	11	0.00632012	0.000000000000000E+000	6.08242e+08	0.000000000000000E+000	0.000000000000000E+000	8.89559	8.89559	0.0000000E+000	0.000000000000000E+000	0.00731098
1	1	0	0	0	0	0	3909.58	10	0.731345	10.0014	32.3542	32.3542	0	8.98727	11	0.00638715	0.000000000000000E+000	6.10745e+08	0.000000000000000E+000	0.000000000000000E+000	8.98727	8.98727	0.0000000E+000	0.000000000000000E+000	0.00731445
1	1	0	0	0	0	0	3942.58	10	0.731616	10.0021	32.6842	32.6842	0	9.07895	11	0.00645422	0.000000000000000E+000	6.13838e+08	0.000000000000000E+000	0.000000000000000E+000	9.07895	9.07895	0.0000000E+000	0.000000000000000E+000	0.00731767
1	1	0	0	0	0	0	3975.58	10	0.731992	10.0009	33.0143	33.0143	0	9.17063	11	0.00652131	0.000000000000000E+000	6.15691e+08	0.000000000000000E+000	0.000000000000000E+000	9.17063	9.17063	0.0000000E+000	0.000000000000000E+000	0.0073206
1	1	0	0	0	0	0	4008.58	10	0.732409	10.001	33.3443	33.3443	0	9.26231	11	0.00658844	0.000000000000000E+000	6.1705e+08	0.000000000000000E+000	0.000000000000000E+000	9.26231	9.26231	0.0000000E+000	0.000000000000000E+000	0.00732486
1	1	0	0	0	0	0	4041.58	10	0.73284	10.0016	33.6744	33.6744	0	9.35399	11	0.00665561	0.000000000000000E+000	6.18226e+08	0.000000000000000E+000	0.000000000000000E+000	9.35399	9.35399	0.0000000E+000	0.000000000000000E+000	0.00732959
1	1	0	0	0	0	0	4074.58	10	0.733068	10.0012	34.0044	34.0044	0	9.44567	11	0.0067228	0.000000000000000E+000	6.21677e+08	0.000000000000000E+000	0.000000000000000E+000	9.44567	9.44567	0.0000000E+000	0.000000000000000E+000	0.00733159
1	1	0	0	0	0	0	4107.58	10	0.733235	10.0009	34.3345	34.3345	0	9.53735	11	0.00679002	0.000000000000000E+000	6.25803e+08	0.000000000000000E+000	0.000000000000000E+000	9.53735	9.53735	0.0000000E+000	0.000000000000000E+000	0.00733303
1	1	0	0	0	0	0	4140.58	10	0.733652	10.0017	34.6645	34.6645	0	9.62903	11	0.00685727	0.000000000000000E+000	6.27052e+08	0.000000000000000E+000	0.000000000000000E+000	9.62903	9.62903	0.0000000E+000	0.000000000000000E+000	0.00733776
1	1	0	0	0	0	0	4173.58	10	0.734184	10.0009	34.9946	34.9946	0	9.72071	11	0.00692456	0.000000000000000E+000	6.26988e+08	0.000000000000000E+000	0.000000000000000E+000	9.72071	9.72071	0.0000000E+000	0.000000000000000E+000	0.00734247
1	1	0	0	0	0	0	4206.58	10	0.734592	10.0011	35.3246	35.3246	0	9.81239	11	0.00699188	0.000000000000000E+000	6.28314e+08	0.000000000000000E+000	0.000000000000000E+000	9.81239	9.81239	0.0000000E+000	0.000000000000000E+000	0.00734673
1	1	0	0	0	0	0	4239.58	10	0.734689	10.0018	35.6547	35.6547	0	9.90407	11	0.00705923	0.000000000000000E+000	6.33087e+08	0.000000000000000E+000	0.000000000000000E+000	9.90407	9.90407	0.0000000E+000	0.000000000000000E+000	0.00734822
1	1	0	0	0	0	0	4272.58	10	0.735006	10.0011	35.9847	35.9847	0	9.99575	11	0.0071266	0.000000000000000E+000	6.35376e+08	0.000000000000000E+000	0.000000000000000E+000	9.99575	9.99575	0.0000000E+000	0.000000000000000E+000	0.00735088
1	1	0	0	0	0	0	4305.58	10	0.735409	10.001	36.3148	36.3148	0	10.0874	11	0.00719401	0.000000000000000E+000	6.36673e+08	0.000000000000000E+000	0.000000000000000E+000	10.0874	10.0874	0.0000000E+000	0.000000000000000E+000	0.00735481
1	1	0	0	0	0	0	4338.58	10	0.735835	10.0008	36.6448	36.6448	0	10.1791	11	0.00726145	0.000000000000000E+000	6.37695e+08	0.000000000000000E+000	0.000000000000000E+000	10.1791	10.1791	0.0000000E+000	0.000000000000000E+000	0.00735893
1	1	0	0	0	0	0	4371.58	10	0.736169	10.0016	36.9749	36.9749	0	10.2708	11	0.00732893	0.000000000000000E+000	6.39721e+08	0.000000000000000E+000	0.000000000000000E+000	10.2708	10.2708	0.0000000E+000	0.000000000000000E+000	0.00736284
1	1	0	0	0	0	0	4404.58	10	0.736497	10.0012	37.3049	37.3049	0	10.3625	11	0.00739644	0.000000000000000E+000	6.41791e+08	0.000000000000000E+000	0.000000000000000E+000	10.3625	10.3625	0.0000000E+000	0.000000000000000E+000	0.00736588
1	1	0	0	0	0	0	4437.58	10	0.73676	10.0019	37.6349	37.6349	0	10.4542	11	0.00746398	0.000000000000000E+000	6.44553e+08	0.000000000000000E+000	0.000000000000000E+000	10.4542	10.4542	0.0000000E+000	0.000000000000000E+000	0.00736903
1	1	0	0	0	0	0	4470.58	10	0.737168	10.0016	37.965	37.965	0	10.5458	11	0.00753155	0.000000000000000E+000	6.45695e+08	0.000000000000000E+000	0.000000000000000E+000	10.5458	10.5458	0.0000000E+000	0.000000000000000E+000	0.00737287
1	1	0	0	0	0	0	4503.58	10	0.737051	10.0011	38.295	38.295	0	10.6375	11	0.00759915	0.000000000000000E+000	6.52607e+08	0.000000000000000E+000	0.000000000000000E+000	10.6375	10.6375	0.0000000E+000	0.000000000000000E+000	0.00737133
1	1	0	0	0	0	0	4536.58	10	0.737756	10.0014	38.6251	38.6251	0	10.7292	11	0.00766676	0.000000000000000E+000	6.50409e+08	0.000000000000000E+000	0.000000000000000E+000	10.7292	10.7292	0.0000000E+000	0.000000000000000E+000	0.00737857
1	1	0	0	0	0	0	4569.58	10	0.738253	10.0012	38.9551	38.9551	0	10.8209	11	0.00773442	0.000000000000000E+000	6.50531e+08	0.000000000000000E+000	0.000000000000000E+000	10.8209	10.8209	0.0000000E+000	0.000000000000000E+000	0.00738344
1	1	0	0	0	0	0	4602.58	10	0.738462	10.0011	39.2852	39.2852	0	10.9126	11	0.00780211	0.000000000000000E+000	6.53754e+08	0.000000000000000E+000	0.000000000000000E+000	10.9126	10.9126	0.0000000E+000	0.000000000000000E+000	0.00738544
1	1	0	0	0	0	0	4635.58	10	0.738879	10.0016	39.6152	39.6152	0	11.0042	11	0.00786983	0.000000000000000E+000	6.54708e+08	0.000000000000000E+000	0.000000000000000E+000	11.0042	11.0042	0.0000000E+000	0.000000000000000E+000	0.00738999
1	1	0	0	0	0	0	4668.58	10	0.739171	10.0011	39.9453	39.9453	0	11.0959	11	0.00793758	0.000000000000000E+000	6.5699e+08	0.000000000000000E+000	0.000000000000000E+000	11.0959	11.0959	0.0000000E+000	0.000000000000000E+000	0.00739253
1	1	0	0	0	0	0	4701.58	10	0.739496	10.0006	40.2753	40.2753	0	11.1876	11	0.00800537	0.000000000000000E+000	6.58894e+08	0.000000000000000E+000	0.000000000000000E+000	11.1876	11.1876	0.0000000E+000	0.000000000000000E+000	0.00739541
1	1	0	0	0	0	0	4734.58	10	0.739801	10.0025	40.6054	40.6054	0	11.2793	11	0.00807318	0.000000000000000E+000	6.61003e+08	0.000000000000000E+000	0.000000000000000E+000	11.2793	11.2793	0.0000000E+000	0.000000000000000E+000	0.00739986
1	1	0	0	0	0	0	4767.58	10	0.74016	10.0016	40.9354	40.9354	0	11.371	11	0.00814102	0.000000000000000E+000	6.62493e+08	0.000000000000000E+000	0.000000000000000E+000	11.371	11.371	0.0000000E+000	0.000000000000000E+000	0.00740276
1	1	0	0	0	0	0	4800.58	10	0.740409	10.0012	41.2655	41.2655	0	11.4626	11	0.00820889	0.000000000000000E+000	6.65159e+08	0.000000000000000E+000	0.000000000000000E+000	11.4626	11.4626	0.0000000E+000	0.000000000000000E+000	0.00740496
1	1	0	0	0	0	0	4833.58	10	0.740726	10.002	41.5955	41.5955	0	11.5543	11	0.00827678	0.000000000000000E+000	6.67067e+08	0.000000000000000E+000	0.000000000000000E+000	11.5543	11.5543	0.0000000E+000	0.000000000000000E+000	0.00740875
1	1	0	0	0	0	0	4866.58	10	0.741	10.0017	41.9256	41.9256	0	11.646	11	0.00834471	0.000000000000000E+000	6.69427e+08	0.000000000000000E+000	0.000000000000000E+000	11.646	11.646	0.0000000E+000	0.000000000000000E+000	0.00741124
1	1	0	0	0	0	0	4899.58	10	0.741292	10.0014	42.2556	42.2556	0	11.7377	11	0.00841266	0.000000000000000E+000	6.71557e+08	0.000000000000000E+000	0.000000000000000E+000	11.7377	11.7377	0.0000000E+000	0.000000000000000E+000	0.00741398
1	1	0	0	0	0	0	4932.58	10	0.741573	10.0017	42.5857	42.5857	0	11.8294	11	0.00848064	0.000000000000000E+000	6.73802e+08	0.000000000000000E+000	0.000000000000000E+000	11.8294	11.8294	0.0000000E+000	0.000000000000000E+000	0.00741698
1	1	0	0	0	0	0	4965.58	10	0.742059	10.0019	42.9157	42.9157	0	11.921	11	0.00854865	0.000000000000000E+000	6.73843e+08	0.000000000000000E+000	0.000000000000000E+000	11.921	11.921	0.0000000E+000	0.000000000000000E+000	0.00742198
1	1	0	0	0	0	0	4998.58	10	0.742349	10.0013	43.2458	43.2458	0	12.0127	11	0.00861669	0.000000000000000E+000	6.75947e+08	0.000000000000000E+000	0.000000000000000E+000	12.0127	12.0127	0.0000000E+000	0.000000000000000E+000	0.00742445
1	1	0	0	0	0	0	5031.58	10	0.742476	10.0015	43.5758	43.5758	0	12.1044	11	0.00868475	0.000000000000000E+000	6.79757e+08	0.000000000000000E+000	0.000000000000000E+000	12.1044	12.1044	0.0000000E+000	0.000000000000000E+000	0.00742586
1	1	0	0	0	0	0	5064.58	10	0.742872	10.0008	43.9059	43.9059	0	12.1961	11	0.00875285	0.000000000000000E+000	6.807e+08	0.000000000000000E+000	0.000000000000000E+000	12.1961	12.1961	0.0000000E+000	0.000000000000000E+000	0.00742931
1	1	0	0	0	0	0	5097.58	10	0.743096	10.0015	44.2359	44.2359	0	12.2878	11	0.00882096	0.000000000000000E+000	6.83438e+08	0.000000000000000E+000	0.000000000000000E+000	12.2878	12.2878	0.0000000E+000	0.000000000000000E+000	0.00743207
1	1	0	0	0	0	0	5130.58	10	0.743503	10.0017	44.566	44.566	0	12.3794	11	0.0088891	0.000000000000000E+000	6.8424e+08	0.000000000000000E+000	0.000000000000000E+000	12.3794	12.3794	0.0000000E+000	0.000000000000000E+000	0.00743633
1	1	0	0	0	0	0	5163.58	10	0.743731	10.0021	44.896	44.896	0	12.4711	11	0.00895728	0.000000000000000E+000	6.86901e+08	0.000000000000000E+000	0.000000000000000E+000	12.4711	12.4711	0.0000000E+000	0.000000000000000E+000	0.00743889
1	1	0	0	0	0	0	5196.58	10	0.744065	10.0016	45.2261	45.2261	0	12.5628	11	0.00902548	0.000000000000000E+000	6.88427e+08	0.000000000000000E+000	0.000000000000000E+000	12.5628	12.5628	0.0000000E+000	0.000000000000000E+000	0.00744186
1	1	0	0	0	0	0	5229.58	10	0.744342	10.0016	45.5561	45.5561	0	12.6545	11	0.0090937	0.000000000000000E+000	6.90547e+08	0.000000000000000E+000	0.000000000000000E+000	12.6545	12.6545	0.0000000E+000	0.000000000000000E+000	0.00744457
1	1	0	0	0	0	0	5262.58	10	0.744593	10.0012	45.8861	45.8861	0	12.7462	11	0.00916195	0.000000000000000E+000	6.92911e+08	0.000000000000000E+000	0.000000000000000E+000	12.7462	12.7462	0.0000000E+000	0.000000000000000E+000	0.0074468
1	1	0	0	0	0	0	5295.58	10	0.744945	10.0017	46.2162	46.2162	0	12.8378	11	0.00923024	0.000000000000000E+000	6.94204e+08	0.000000000000000E+000	0.000000000000000E+000	12.8378	12.8378	0.0000000E+000	0.000000000000000E+000	0.00745075
1	1	0	0	0	0	0	5328.58	10	0.745229	10.0016	46.5462	46.5462	0	12.9295	11	0.00929855	0.000000000000000E+000	6.96194e+08	0.000000000000000E+000	0.000000000000000E+000	12.9295	12.9295	0.0000000E+000	0.000000000000000E+000	0.0074535
1	1	0	0	0	0	0	5361.58	10	0.745429	10.0016	46.8763	46.8763	0	13.0212	11	0.00936689	0.000000000000000E+000	6.9904e+08	0.000000000000000E+000	0.000000000000000E+000	13.0212	13.0212	0.0000000E+000	0.000000000000000E+000	0.00745549
1	1	0	0	0	0	0	5394.58	10	0.745906	10.0017	47.2063	47.2063	0	13.1129	11	0.00943525	0.000000000000000E+000	6.98987e+08	0.000000000000000E+000	0.000000000000000E+000	13.1129	13.1129	0.0000000E+000	0.000000000000000E+000	0.00746032
1	1	0	0	0	0	0	5427.58	10	0.746258	10.0011	47.5364	47.5364	0	13.2046	11	0.00950365	0.000000000000000E+000	7.00221e+08	0.000000000000000E+000	0.000000000000000E+000	13.2046	13.2046	0.0000000E+000	0.000000000000000E+000	0.00746341
1	1	0	0	0	0	0	5460.58	10	0.746455	10.0019	47.8664	47.8664	0	13.2962	11	0.00957207	0.000000000000000E+000	7.03048e+08	0.000000000000000E+000	0.000000000000000E+000	13.2962	13.2962	0.0000000E+000	0.000000000000000E+000	0.007466
1	1	0	0	0	0	0	5493.58	10	0.746526	10.0012	48.1965	48.1965	0	13.3879	11	0.00964052	0.000000000000000E+000	7.07151e+08	0.000000000000000E+000	0.000000000000000E+000	13.3879	13.3879	0.0000000E+000	0.000000000000000E+000	0.00746614
1	1	0	0	0	0	0	5526.58	10	0.746985	10.0013	48.5265	48.5265	0	13.4796	11	0.00970898	0.000000000000000E+000	7.07236e+08	0.000000000000000E+000	0.000000000000000E+000	13.4796	13.4796	0.0000000E+000	0.000000000000000E+000	0.00747082
1	1	0	0	0	0	0	5559.58	10	0.747321	10.001	48.8566	48.8566	0	13.5713	11	0.00977748	0.000000000000000E+000	7.08577e+08	0.000000000000000E+000	0.000000000000000E+000	13.5713	13.5713	0.0000000E+000	0.000000000000000E+000	0.00747394
1	1	0	0	0	0	0	5592.58	10	0.747657	10.0012	49.1866	49.1866	0	13.663	11	0.00984601	0.000000000000000E+000	7.099e+08	0.000000000000000E+000	0.000000000000000E+000	13.663	13.663	0.0000000E+000	0.000000000000000E+000	0.0074775
1	1	0	0	0	0	0	5625.58	10	0.747954	10.0014	49.5167	49.5167	0	13.7546	11	0.00991456	0.000000000000000E+000	7.11612e+08	0.000000000000000E+000	0.000000000000000E+000	13.7546	13.7546	0.0000000E+000	0.000000000000000E+000	0.00748057
1	1	0	0	0	0	0	5658.58	10	0.74816	10.0016	49.8467	49.8467	0	13.8463	11	0.00998314	0.000000000000000E+000	7.14249e+08	0.000000000000000E+000	0.000000000000000E+000	13.8463	13.8463	0.0000000E+000	0.000000000000000E+000	0.00748281
1	1	0	0	0	0	0	5691.58	10	0.748437	10.0007	50.1768	50.1768	0	13.938	11	0.0100518	0.000000000000000E+000	7.16131e+08	0.000000000000000E+000	0.000000000000000E+000	13.938	13.938	0.0000000E+000	0.000000000000000E+000	0.00748487
1	1	0	0	0	0	0	5724.58	10	0.748765	10.0014	50.5068	50.5068	0	14.0297	11	0.0101204	0.000000000000000E+000	7.17479e+08	0.000000000000000E+000	0.000000000000000E+000	14.0297	14.0297	0.0000000E+000	0.000000000000000E+000	0.00748873
1	1	0	0	0	0	0	5757.58	10	0.748996	10.0017	50.8369	50.8369	0	14.1214	11	0.010189	0.000000000000000E+000	7.19805e+08	0.000000000000000E+000	0.000000000000000E+000	14.1214	14.1214	0.0000000E+000	0.000000000000000E+000	0.00749123
1	1	0	0	0	0	0	5790.58	10	0.749416	10.0016	51.1669	51.1669	0	14.213	11	0.0102577	0.000000000000000E+000	7.20203e+08	0.000000000000000E+000	0.000000000000000E+000	14.213	14.213	0.0000000E+000	0.000000000000000E+000	0.00749532
1	1	0	0	0	0	0	5823.58	10	0.749666	10.0011	51.497	51.497	0	14.3047	11	0.0103264	0.000000000000000E+000	7.22306e+08	0.000000000000000E+000	0.000000000000000E+000	14.3047	14.3047	0.0000000E+000	0.000000000000000E+000	0.00749749
1	1	0	0	0	0	0	5856.58	10	0.749969	10.001	51.827	51.827	0	14.3964	11	0.0103952	0.000000000000000E+000	7.23852e+08	0.000000000000000E+000	0.000000000000000E+000	14.3964	14.3964	0.0000000E+000	0.000000000000000E+000	0.00750043
1	1	0	0	0	0	0	5889.58	10	0.749979	10.0007	52.1571	52.1571	0	14.4881	11	0.0104639	0.000000000000000E+000	7.28364e+08	0.000000000000000E+000	0.000000000000000E+000	14.4881	14.4881	0.0000000E+000	0.000000000000000E+000	0.00750034
1	1	0	0	0	0	0	5922.58	10	0.75044	10.0017	52.4871	52.4871	0	14.5798	11	0.0105327	0.000000000000000E+000	7.28287e+08	0.000000000000000E+000	0.000000000000000E+000	14.5798	14.5798	0.0000000E+000	0.000000000000000E+000	0.00750566
1	1	0	0	0	0	0	5955.58	10	0.750676	10.0012	52.8171	52.8171	0	14.6714	11	0.0106015	0.000000000000000E+000	7.30468e+08	0.000000000000000E+000	0.000000000000000E+000	14.6714	14.6714	0.0000000E+000	0.000000000000000E+000	0.00750769
1	1	0	0	0	0	0	5988.58	10	0.751067	10.0012	53.1472	53.1472	0	14.7631	11	0.0106704	0.000000000000000E+000	7.31087e+08	0.000000000000000E+000	0.000000000000000E+000	14.7631	14.7631	0.0000000E+000	0.000000000000000E+000	0.00751155
1	1	0	0	0	0	0	6021.58	10	0.751241	10.001	53.4772	53.4772	0	14.8548	11	0.0107392	0.000000000000000E+000	7.33863e+08	0.000000000000000E+000	0.000000000000000E+000	14.8548	14.8548	0.0000000E+000	0.000000000000000E+000	0.00751315
1	1	0	0	0	0	0	6054.58	10	0.751505	10.0015	53.8073	53.8073	0	14.9465	11	0.0108081	0.000000000000000E+000	7.35734e+08	0.000000000000000E+000	0.000000000000000E+000	14.9465	14.9465	0.0000000E+000	0.000000000000000E+000	0.00751617
1	1	0	0	0	0	0	6087.58	10	0.751774	10.0014	54.1373	54.1373	0	15.0382	11	0.010877	0.000000000000000E+000	7.37532e+08	0.000000000000000E+000	0.000000000000000E+000	15.0382	15.0382	0.0000000E+000	0.000000000000000E+000	0.00751877
1	1	0	0	0	0	0	6120.58	10	0.752083	10.0009	54.4674	54.4674	0	15.1298	11	0.010946	0.000000000000000E+000	7.38914e+08	0.000000000000000E+000	0.000000000000000E+000	15.1298	15.1298	0.0000000E+000	0.000000000000000E+000	0.00752148
1	1	0	0	0	0	0	6153.58	10	0.752399	10.0012	54.7974	54.7974	0	15.2215	11	0.0110149	0.000000000000000E+000	7.40223e+08	0.000000000000000E+000	0.000000000000000E+000	15.2215	15.2215	0.0000000E+000	0.000000000000000E+000	0.00752492
1	1	0	0	0	0	0	6186.58	10	0.752507	10.0014	55.1275	55.1275	0	15.3132	11	0.0110839	0.000000000000000E+000	7.43596e+08	0.000000000000000E+000	0.000000000000000E+000	15.3132	15.3132	0.0000000E+000	0.000000000000000E+000	0.00752614
1	1	0	0	0	0	0	6219.58	10	0.752842	10.0013	55.4575	55.4575	0	15.4049	11	0.0111529	0.000000000000000E+000	7.44685e+08	0.000000000000000E+000	0.000000000000000E+000	15.4049	15.4049	0.0000000E+000	0.000000000000000E+000	0.0075294
1	1	0	0	0	0	0	6252.58	10	0.753202	10.0016	55.7876	55.7876	0	15.4965	11	0.011222	0.000000000000000E+000	7.4551e+08	0.000000000000000E+000	0.000000000000000E+000	15.4965	15.4965	0.0000000E+000	0.000000000000000E+000	0.00753324
1	1	0	0	0	0	0	6285.58	10	0.753322	10.0022	56.1176	56.1176	0	15.5882	11	0.011291	0.000000000000000E+000	7.48723e+08	0.000000000000000E+000	0.000000000000000E+000	15.5882	15.5882	0.0000000E+000	0.000000000000000E+000	0.00753487
1	1	0	0	0	0	0	6318.58	10	0.753762	10.001	56.4477	56.4477	0	15.6799	11	0.0113601	0.000000000000000E+000	7.48728e+08	0.000000000000000E+000	0.000000000000000E+000	15.6799	15.6799	0.0000000E+000	0.000000000000000E+000	0.00753841
1	1	0	0	0	0	0	6351.58	10	0.753834	10.0014	56.7777	56.7777	0	15.7716	11	0.0114292	0.000000000000000E+000	7.52387e+08	0.000000000000000E+000	0.000000000000000E+000	15.7716	15.7716	0.0000000E+000	0.000000000000000E+000	0.00753937
1	1	0	0	0	0	0	6384.58	10	0.75422	10.0013	57.1078	57.1078	0	15.8633	11	0.0114983	0.000000000000000E+000	7.52907e+08	0.000000000000000E+000	0.000000000000000E+000	15.8633	15.8633	0.0000000E+000	0.000000000000000E+000	0.00754318
1	1	0	0	0	0	0	6417.58	10	0.754211	10.0007	57.4378	57.4378	0	15.9549	11	0.0115675	0.000000000000000E+000	7.57347e+08	0.000000000000000E+000	0.000000000000000E+000	15.9549	15.9549	0.0000000E+000	0.000000000000000E+000	0.00754266
1	1	0	0	0	0	0	6450.58	10	0.754652	10.0015	57.7679	57.7679	0	16.0466	11	0.0116367	0.000000000000000E+000	7.57295e+08	0.000000000000000E+000	0.000000000000000E+000	16.0466	16.0466	0.0000000E+000	0.000000000000000E+000	0.00754765
1	1	0	0	0	0	0	6483.58	10	0.754877	10.0016	58.0979	58.0979	0	16.1383	11	0.0117059	0.000000000000000E+000	7.59388e+08	0.000000000000000E+000	0.000000000000000E+000	16.1383	16.1383	0.0000000E+000	0.000000000000000E+000	0.00754999
1	1	0	0	0	0	0	6516.58	10	0.755186	10.001	58.428	58.428	0	16.23	11	0.0117751	0.000000000000000E+000	7.60626e+08	0.000000000000000E+000	0.000000000000000E+000	16.23	16.23	0.0000000E+000	0.000000000000000E+000	0.00755265
1	1	0	0	0	0	0	6549.58	10	0.755434	10.0006	58.758	58.758	0	16.3217	11	0.0118443	0.000000000000000E+000	7.6246e+08	0.000000000000000E+000	0.000000000000000E+000	16.3217	16.3217	0.0000000E+000	0.000000000000000E+000	0.0075548
1	1	0	0	0	0	0	6582.58	10	0.755628	10.0016	59.0881	59.0881	0	16.4133	11	0.0119136	0.000000000000000E+000	7.64816e+08	0.000000000000000E+000	0.000000000000000E+000	16.4133	16.4133	0.0000000E+000	0.000000000000000E+000	0.00755751
1	1	0	0	0	0	0	6615.58	10	0.755755	10.001	59.4181	59.4181	0	16.505	11	0.0119829	0.000000000000000E+000	7.67827e+08	0.000000000000000E+000	0.000000000000000E+000	16.505	16.505	0.0000000E+000	0.000000000000000E+000	0.0075583
1	1	0	0	0	0	0	6648.58	10	0.756118	10.0012	59.7482	59.7482	0	16.5967	11	0.0120522	0.000000000000000E+000	7.68488e+08	0.000000000000000E+000	0.000000000000000E+000	16.5967	16.5967	0.0000000E+000	0.000000000000000E+000	0.00756207
1	1	0	0	0	0	0	6681.58	10	0.756399	10.0019	60.0782	60.0782	0	16.6884	11	0.0121215	0.000000000000000E+000	7.69948e+08	0.000000000000000E+000	0.000000000000000E+000	16.6884	16.6884	0.0000000E+000	0.000000000000000E+000	0.00756541
1	1	0	0	0	0	0	6714.58	10	0.756498	10.0016	60.4082	60.4082	0	16.7801	11	0.0121909	0.000000000000000E+000	7.73206e+08	0.000000000000000E+000	0.000000000000000E+000	16.7801	16.7801	0.0000000E+000	0.000000000000000E+000	0.00756615
1	1	0	0	0	0	0	6747.58	10	0.756837	10.0009	60.7383	60.7383	0	16.8717	11	0.0122602	0.000000000000000E+000	7.74066e+08	0.000000000000000E+000	0.000000000000000E+000	16.8717	16.8717	0.0000000E+000	0.000000000000000E+000	0.00756907
1	1	0	0	0	0	0	6780.58	10	0.757138	10.0014	61.0683	61.0683	0	16.9634	11	0.0123296	0.000000000000000E+000	7.75302e+08	0.000000000000000E+000	0.000000000000000E+000	16.9634	16.9634	0.0000000E+000	0.000000000000000E+000	0.00757246
1	1	0	0	0	0	0	6813.58	10	0.757442	10.0016	61.3984	61.3984	0	17.0551	11	0.0123991	0.000000000000000E+000	7.76491e+08	0.000000000000000E+000	0.000000000000000E+000	17.0551	17.0551	0.0000000E+000	0.000000000000000E+000	0.0075756
1	1	0	0	0	0	0	6846.58	10	0.75775	10.0013	61.7284	61.7284	0	17.1468	11	0.0124685	0.000000000000000E+000	7.7764e+08	0.000000000000000E+000	0.000000000000000E+000	17.1468	17.1468	0.0000000E+000	0.000000000000000E+000	0.00757848
1	1	0	0	0	0	0	6879.58	10	0.757922	10.0012	62.0585	62.0585	0	17.2385	11	0.012538	0.000000000000000E+000	7.80106e+08	0.000000000000000E+000	0.000000000000000E+000	17.2385	17.2385	0.0000000E+000	0.000000000000000E+000	0.00758011
1	1	0	0	0	0	0	6912.58	10	0.758129	10.0016	62.3885	62.3885	0	17.3301	11	0.0126075	0.000000000000000E+000	7.82214e+08	0.000000000000000E+000	0.000000000000000E+000	17.3301	17.3301	0.0000000E+000	0.000000000000000E+000	0.00758248
1	1	0	0	0	0	0	6945.58	10	0.758493	10.0008	62.7186	62.7186	0	17.4218	11	0.012677	0.000000000000000E+000	7.82782e+08	0.000000000000000E+000	0.000000000000000E+000	17.4218	17.4218	0.0000000E+000	0.000000000000000E+000	0.00758553
1	1	0	0	0	0	0	6978.58	10	0.758674	10.0016	63.0486	63.0486	0	17.5135	11	0.0127466	0.000000000000000E+000	7.85125e+08	0.000000000000000E+000	0.000000000000000E+000	17.5135	17.5135	0.0000000E+000	0.000000000000000E+000	0.00758793
1	1	0	0	0	0	0	7011.58	10	0.758898	10.0009	63.3787	63.3787	0	17.6052	11	0.0128161	0.000000000000000E+000	7.87045e+08	0.000000000000000E+000	0.000000000000000E+000	17.6052	17.6052	0.0000000E+000	0.000000000000000E+000	0.00758968
1	1	0	0	0	0	0	7044.58	10	0.759138	10.0012	63.7087	63.7087	0	17.6969	11	0.0128857	0.000000000000000E+000	7.8879e+08	0.000000000000000E+000	0.000000000000000E+000	17.6969	17.6969	0.0000000E+000	0.000000000000000E+000	0.00759232
1	1	0	0	0	0	0	7077.58	10	0.759403	10.002	64.0388	64.0388	0	17.7885	11	0.0129553	0.000000000000000E+000	7.90288e+08	0.000000000000000E+000	0.000000000000000E+000	17.7885	17.7885	0.0000000E+000	0.000000000000000E+000	0.00759555
1	1	0	0	0	0	0	7110.58	10	0.75967	10.0015	64.3688	64.3688	0	17.8802	11	0.0130249	0.000000000000000E+000	7.91754e+08	0.000000000000000E+000	0.000000000000000E+000	17.8802	17.8802	0.0000000E+000	0.000000000000000E+000	0.00759783
1	1	0	0	0	0	0	7143.58	10	0.759836	10.0016	64.6989	64.6989	0	17.9719	11	0.0130946	0.000000000000000E+000	7.94183e+08	0.000000000000000E+000	0.000000000000000E+000	17.9719	17.9719	0.0000000E+000	0.000000000000000E+000	0.0075996
1	1	0	0	0	0	0	7176.58	10	0.760205	10.0016	65.0289	65.0289	0	18.0636	11	0.0131643	0.000000000000000E+000	7.94639e+08	0.000000000000000E+000	0.000000000000000E+000	18.0636	18.0636	0.0000000E+000	0.000000000000000E+000	0.00760323
1	1	0	0	0	0	0	7209.58	10	0.760239	10.0011	65.359	65.359	0	18.1553	11	0.013234	0.000000000000000E+000	7.98345e+08	0.000000000000000E+000	0.000000000000000E+000	18.1553	18.1553	0.0000000E+000	0.000000000000000E+000	0.00760323
1	1	0	0	0	0	0	7242.58	10	0.760573	10.0009	65.689	65.689	0	18.2469	11	0.0133037	0.000000000000000E+000	7.99116e+08	0.000000000000000E+000	0.000000000000000E+000	18.2469	18.2469	0.0000000E+000	0.000000000000000E+000	0.00760643
1	1	0	0	0	0	0	7275.58	10	0.760841	10.0014	66.0191	66.0191	0	18.3386	11	0.0133734	0.000000000000000E+000	8.00515e+08	0.000000000000000E+000	0.000000000000000E+000	18.3386	18.3386	0.0000000E+000	0.000000000000000E+000	0.00760945
1	1	0	0	0	0	0	7308.58	10	0.761126	10.0014	66.3491	66.3491	0	18.4303	11	0.0134432	0.000000000000000E+000	8.01746e+08	0.000000000000000E+000	0.000000000000000E+000	18.4303	18.4303	0.0000000E+000	0.000000000000000E+000	0.00761235
1	1	0	0	0	0	0	7341.58	10	0.76138	10.001	66.6792	66.6792	0	18.522	11	0.013513	0.000000000000000E+000	8.0327e+08	0.000000000000000E+000	0.000000000000000E+000	18.522	18.522	0.0000000E+000	0.000000000000000E+000	0.00761455
1	1	0	0	0	0	0	7374.58	10	0.761542	10.0017	67.0092	67.0092	0	18.6137	11	0.0135828	0.000000000000000E+000	8.05673e+08	0.000000000000000E+000	0.000000000000000E+000	18.6137	18.6137	0.0000000E+000	0.000000000000000E+000	0.00761675
1	1	0	0	0	0	0	7407.58	10	0.761721	10.0018	67.3392	67.3392	0	18.7053	11	0.0136526	0.000000000000000E+000	8.07906e+08	0.000000000000000E+000	0.000000000000000E+000	18.7053	18.7053	0.0000000E+000	0.000000000000000E+000	0.00761859
1	1	0	0	0	0	0	7440.58	10	0.761979	10.0014	67.6693	67.6693	0	18.797	11	0.0137225	0.000000000000000E+000	8.09362e+08	0.000000000000000E+000	0.000000000000000E+000	18.797	18.797	0.0000000E+000	0.000000000000000E+000	0.00762083
1	1	0	0	0	0	0	7473.58	10	0.762175	10.0008	67.9993	67.9993	0	18.8887	11	0.0137923	0.000000000000000E+000	8.11407e+08	0.000000000000000E+000	0.000000000000000E+000	18.8887	18.8887	0.0000000E+000	0.000000000000000E+000	0.00762235
1	1	0	0	0	0	0	7506.58	10	0.762411	10.0011	68.3294	68.3294	0	18.9804	11	0.0138622	0.000000000000000E+000	8.13053e+08	0.000000000000000E+000	0.000000000000000E+000	18.9804	18.9804	0.0000000E+000	0.000000000000000E+000	0.00762496
1	1	0	0	0	0	0	7539.58	10	0.762659	10.0016	68.6594	68.6594	0	19.0721	11	0.0139321	0.000000000000000E+000	8.14575e+08	0.000000000000000E+000	0.000000000000000E+000	19.0721	19.0721	0.0000000E+000	0.000000000000000E+000	0.00762783
1	1	0	0	0	0	0	7572.58	10	0.763073	10.0017	68.9895	68.9895	0	19.1637	11	0.0140021	0.000000000000000E+000	8.14492e+08	0.000000000000000E+000	0.000000000000000E+000	19.1637	19.1637	0.0000000E+000	0.000000000000000E+000	0.00763202
1	1	0	0	0	0	0	7605.58	10	0.763249	10.001	69.3195	69.3195	0	19.2554	11	0.014072	0.000000000000000E+000	8.16688e+08	0.000000000000000E+000	0.000000000000000E+000	19.2554	19.2554	0.0000000E+000	0.000000000000000E+000	0.00763329
1	1	0	0	0	0	0	7638.58	10	0.763397	10.0014	69.6496	69.6496	0	19.3471	11	0.014142	0.000000000000000E+000	8.19149e+08	0.000000000000000E+000	0.000000000000000E+000	19.3471	19.3471	0.0000000E+000	0.000000000000000E+000	0.00763502
1	1	0	0	0	0	0	7671.58	10	0.763687	10.0014	69.9796	69.9796	0	19.4388	11	0.014212	0.000000000000000E+000	8.20232e+08	0.000000000000000E+000	0.000000000000000E+000	19.4388	19.4388	0.0000000E+000	0.000000000000000E+000	0.00763792
1	1	0	0	0	0	0	7704.58	10	0.763742	10.001	70.3097	70.3097	0	19.5305	11	0.014282	0.000000000000000E+000	8.2357e+08	0.000000000000000E+000	0.000000000000000E+000	19.5305	19.5305	0.0000000E+000	0.000000000000000E+000	0.00763822
1	1	0	0	0	0	0	7737.58	10	0.764106	10.0006	70.6397	70.6397	0	19.6221	11	0.0143521	0.000000000000000E+000	8.23931e+08	0.000000000000000E+000	0.000000000000000E+000	19.6221	19.6221	0.0000000E+000	0.000000000000000E+000	0.00764152
1	1	0	0	0	0	0	7770.58	10	0.764337	10.0019	70.9698	70.9698	0	19.7138	11	0.0144221	0.000000000000000E+000	8.25556e+08	0.000000000000000E+000	0.000000000000000E+000	19.7138	19.7138	0.0000000E+000	0.000000000000000E+000	0.00764485
1	1	0	0	0	0	0	7803.58	10	0.764627	10.0021	71.2998	71.2998	0	19.8055	11	0.0144922	0.000000000000000E+000	8.26599e+08	0.000000000000000E+000	0.000000000000000E+000	19.8055	19.8055	0.0000000E+000	0.000000000000000E+000	0.00764785
1	1	0	0	0	0	0	7836.58	10	0.76473	10.0019	71.6299	71.6299	0	19.8972	11	0.0145623	0.000000000000000E+000	8.29438e+08	0.000000000000000E+000	0.000000000000000E+000	19.8972	19.8972	0.0000000E+000	0.000000000000000E+000	0.00764879
1	1	0	0	0	0	0	7869.58	10	0.76497	10.0007	71.9599	71.9599	0	19.9889	11	0.0146325	0.000000000000000E+000	8.30951e+08	0.000000000000000E+000	0.000000000000000E+000	19.9889	19.9889	0.0000000E+000	0.000000000000000E+000	0.00765026
1	1	0	0	0	0	0	7874.63	10	0.765018	10.0025	72.0104	72.0104	0	20.0029	11	0.0146432	0.000000000000000E+000	8.31078e+08	0.000000000000000E+000	0.000000000000000E+000	20.0029	20.0029	0.0000000E+000	0.000000000000000E+000	0.0076521