File: Data_1/2022_01_25 Co30Ni60Fe10Nx 1mg  ref309 elect1 tafel_C02.mpt
EC-Lab ASCII FILE
Nb header lines : 53

Chronopotentiometry

Run on channel : 2 (SN 12477)
User :
CE vs. WE compliance from -10 V to 10 V
Electrode connection : standard
Potential control : Ewe
Ewe ctrl range : min = -2.50 V, max = 2.50 V
Safety Limits :
	Do not start on E overload
Acquisition started on : 01/25/2023 15:36:48.991
Loaded Setting File :  C:\Users\grupogalan\Documents\EC-Lab\Data\Scott\_cyclic_pause_tafel.mps
Saved on :
	File : 2022_01_25 Co30Ni60Fe10Nx 1mg  ref309 elect1 tafel_C02.mpr
	Directory : C:\Users\grupogalan\Documents\EC-Lab\Data\Scott\
	Host : 169.254.104.159
Device : VSP (SN 1176)
Address : USB
EC-Lab for windows v11.46 (software)
Internet server v11.40 (firmware)
Command interpretor v11.40 (firmware)
Electrode material :
Initial state :
Electrolyte :
Comments :
Electrode surface area : 0.000 cm²
Characteristic mass : 0.001 g
Equivalent Weight : 0.000 g/eq.
Density : 0.000 g/cm3
Volume (V) : 0.001 cm³
Cycle Definition : Charge/Discharge alternance
Ns                  0                   1                   2                   3                   4                   5                   6                   7                   8                   9                   10                  11                  12
Is                  10.000              18.000              32.000              56.000              100.000             178.000             316.000             562.000             1.000               1.778               3.162               5.623               10.000
unit Is             µA                  µA                  µA                  µA                  µA                  µA                  µA                  µA                  mA                  mA                  mA                  mA                  mA
vs.                 <None>              <None>              <None>              <None>              <None>              <None>              <None>              <None>              <None>              <None>              <None>              <None>              <None>
ts (h:m:s)          0:03:0.0000         0:03:0.0000         0:03:0.0000         0:03:0.0000         0:03:0.0000         0:03:0.0000         0:03:0.0000         0:03:0.0000         0:03:0.0000         0:03:0.0000         0:03:0.0000         0:03:0.0000         0:03:0.0000
EM (V)              pass                pass                pass                pass                pass                pass                pass                pass                pass                pass                pass                pass                pass
dQM                 500.000             900.000             1.600               2.800               5.000               8.900               15.800              28.100              50.000              88.900              158.100             281.150             500.000
unit dQM            nA.h                nA.h                µA.h                µA.h                µA.h                µA.h                µA.h                µA.h                µA.h                µA.h                µA.h                µA.h                µA.h
record              <Ewe>               <Ewe>               <Ewe>               <Ewe>               <Ewe>               <Ewe>               <Ewe>               <Ewe>               <Ewe>               <Ewe>               <Ewe>               <Ewe>               <Ewe>
dEs (mV)            0.00                0.00                0.00                0.00                0.00                0.00                0.00                0.00                0.00                0.00                0.00                0.00                0.00
dts (s)             1.0000              1.0000              1.0000              1.0000              1.0000              1.0000              1.0000              1.0000              1.0000              1.0000              1.0000              1.0000              1.0000
E range min (V)     -2.500              -2.500              -2.500              -2.500              -2.500              -2.500              -2.500              -2.500              -2.500              -2.500              -2.500              -2.500              -2.500
E range max (V)     2.500               2.500               2.500               2.500               2.500               2.500               2.500               2.500               2.500               2.500               2.500               2.500               2.500
I Range             10 mA               10 mA               10 mA               10 mA               10 mA               10 mA               10 mA               10 mA               10 mA               10 mA               10 mA               10 mA               10 mA
Bandwidth           5                   5                   5                   5                   5                   5                   5                   5                   5                   5                   5                   5                   5
goto Ns'            0                   0                   0                   0                   0                   0                   0                   0                   0                   0                   0                   0                   0
nc cycles           0                   0                   0                   0                   0                   0                   0                   0                   0                   0                   0                   0                   0

mode	ox/red	error	control changes	Ns changes	counter inc.	Ns	time/s	control/mA	<Ewe>/V	I/mA	dQ/C	(Q-Qo)/C	half cycle	Q charge/discharge/mA.h	I Range	Energy charge/W.h	Energy discharge/W.h	Capacitance charge/µF	Capacitance discharge/µF	Q discharge/mA.h	Q charge/mA.h	Capacity/mA.h	Efficiency/%	cycle number	P/W
1	1	0	1	0	0	0	1	0.01	0.325533	0.0113894	1.12377e-05	1.12377e-05	0	3.12158e-06	11	1.01618e-09	0.000000000000000E+000	0.000000000000000E+000	0.000000000000000E+000	0.000000000000000E+000	3.12158e-06	3.12158e-06	0.0000000E+000	0.000000000000000E+000	3.70763e-06
1	1	0	1	0	0	0	13	0.01	0.343795	0.0118984	0.000153139	0.000153139	0	4.25387e-05	11	1.44307e-08	0.000000000000000E+000	8385.28	0.000000000000000E+000	0.000000000000000E+000	4.25387e-05	4.25387e-05	0.0000000E+000	0.000000000000000E+000	4.09063e-06
1	1	0	1	0	0	0	25	0.01	0.347395	0.0116439	0.000294873	0.000294873	0	8.19092e-05	11	2.80509e-08	0.000000000000000E+000	13487.8	0.000000000000000E+000	0.000000000000000E+000	8.19092e-05	8.19092e-05	0.0000000E+000	0.000000000000000E+000	4.04504e-06
1	1	0	1	0	0	0	37	0.01	0.349571	0.0118348	0.000436685	0.000436685	0	0.000121301	11	4.17855e-08	0.000000000000000E+000	18166.4	0.000000000000000E+000	0.000000000000000E+000	0.000121301	0.000121301	0.0000000E+000	0.000000000000000E+000	4.1371e-06
1	1	0	1	0	0	0	49	0.01	0.350543	0.0119621	0.000578462	0.000578462	0	0.000160684	11	5.55766e-08	0.000000000000000E+000	23128.5	0.000000000000000E+000	0.000000000000000E+000	0.000160684	0.000160684	0.0000000E+000	0.000000000000000E+000	4.19322e-06
1	1	0	1	0	0	0	61	0.01	0.350996	0.0118348	0.000720105	0.000720105	0	0.000200029	11	6.93803e-08	0.000000000000000E+000	28279.5	0.000000000000000E+000	0.000000000000000E+000	0.000200029	0.000200029	0.0000000E+000	0.000000000000000E+000	4.15398e-06
1	1	0	1	0	0	0	73	0.01	0.350699	0.0120257	0.000861862	0.000861862	0	0.000239406	11	8.31966e-08	0.000000000000000E+000	34246.7	0.000000000000000E+000	0.000000000000000E+000	0.000239406	0.000239406	0.0000000E+000	0.000000000000000E+000	4.21739e-06
1	1	0	1	0	0	0	85	0.01	0.350078	0.0119621	0.00100358	0.00100358	0	0.000278773	11	9.69901e-08	0.000000000000000E+000	40887.3	0.000000000000000E+000	0.000000000000000E+000	0.000278773	0.000278773	0.0000000E+000	0.000000000000000E+000	4.18765e-06
1	1	0	1	0	0	0	97	0.01	0.348823	0.0110713	0.00114543	0.00114543	0	0.000318175	11	1.10758e-07	0.000000000000000E+000	49180.6	0.000000000000000E+000	0.000000000000000E+000	0.000318175	0.000318175	0.0000000E+000	0.000000000000000E+000	3.86193e-06
1	1	0	1	0	0	0	109	0.01	0.346969	0.0111349	0.00128722	0.00128722	0	0.00035756	11	1.24459e-07	0.000000000000000E+000	60046.7	0.000000000000000E+000	0.000000000000000E+000	0.00035756	0.00035756	0.0000000E+000	0.000000000000000E+000	3.86348e-06
1	1	0	1	0	0	0	121	0.01	0.344706	0.0118984	0.00142886	0.00142886	0	0.000396905	11	1.38063e-07	0.000000000000000E+000	74523.6	0.000000000000000E+000	0.000000000000000E+000	0.000396905	0.000396905	0.0000000E+000	0.000000000000000E+000	4.10146e-06
1	1	0	1	0	0	0	133	0.01	0.341896	0.0107532	0.00157061	0.00157061	0	0.000436281	11	1.51578e-07	0.000000000000000E+000	95985.3	0.000000000000000E+000	0.000000000000000E+000	0.000436281	0.000436281	0.0000000E+000	0.000000000000000E+000	3.67646e-06
1	1	0	1	0	0	0	145	0.01	0.338915	0.0114531	0.00171218	0.00171218	0	0.000475606	11	1.6496e-07	0.000000000000000E+000	127944	0.000000000000000E+000	0.000000000000000E+000	0.000475606	0.000475606	0.0000000E+000	0.000000000000000E+000	3.88161e-06
1	1	0	1	0	0	0	157	0.01	0.335398	0.0127256	0.00185374	0.00185374	0	0.000514927	11	1.78212e-07	0.000000000000000E+000	187898	0.000000000000000E+000	0.000000000000000E+000	0.000514927	0.000514927	0.0000000E+000	0.000000000000000E+000	4.26813e-06
1	1	0	1	0	0	0	169	0.01	0.331771	0.0118984	0.00199537	0.00199537	0	0.000554269	11	1.91331e-07	0.000000000000000E+000	319850	0.000000000000000E+000	0.000000000000000E+000	0.000554269	0.000554269	0.0000000E+000	0.000000000000000E+000	3.94756e-06
1	1	0	1	0	0	0	180.05	0.01	0.328843	0.0110713	0.00212581	0.00212581	0	0.000590502	11	2.03291e-07	0.000000000000000E+000	642141	0.000000000000000E+000	0.000000000000000E+000	0.000590502	0.000590502	0.0000000E+000	0.000000000000000E+000	3.64072e-06
1	1	0	0	0	0	1	192.05	0.018	0.347689	0.0187063	0.00023026	0.00235607	0	0.000654463	11	2.25308e-07	0.000000000000000E+000	106340	0.000000000000000E+000	0.000000000000000E+000	0.000654463	0.000654463	0.0000000E+000	0.000000000000000E+000	6.50398e-06
1	1	0	0	0	0	1	204.05	0.018	0.349458	0.0195335	0.000460573	0.00258638	0	0.000718439	11	2.47627e-07	0.000000000000000E+000	108103	0.000000000000000E+000	0.000000000000000E+000	0.000718439	0.000718439	0.0000000E+000	0.000000000000000E+000	6.82611e-06
1	1	0	0	0	0	1	216.05	0.018	0.349632	0.019788	0.000690776	0.00281658	0	0.000782384	11	2.69984e-07	0.000000000000000E+000	116873	0.000000000000000E+000	0.000000000000000E+000	0.000782384	0.000782384	0.0000000E+000	0.000000000000000E+000	6.9185e-06
1	1	0	0	0	0	1	228.05	0.018	0.349337	0.0195971	0.000921445	0.00304725	0	0.000846459	11	2.92377e-07	0.000000000000000E+000	128014	0.000000000000000E+000	0.000000000000000E+000	0.000846459	0.000846459	0.0000000E+000	0.000000000000000E+000	6.84598e-06
1	1	0	0	0	0	1	240.05	0.018	0.348696	0.0190244	0.00115204	0.00327784	0	0.000910512	11	3.1474e-07	0.000000000000000E+000	141512	0.000000000000000E+000	0.000000000000000E+000	0.000910512	0.000910512	0.0000000E+000	0.000000000000000E+000	6.63374e-06
1	1	0	0	0	0	1	252.05	0.018	0.347616	0.0189608	0.00138245	0.00350826	0	0.000974515	11	3.37023e-07	0.000000000000000E+000	158862	0.000000000000000E+000	0.000000000000000E+000	0.000974515	0.000974515	0.0000000E+000	0.000000000000000E+000	6.59109e-06
1	1	0	0	0	0	1	264.05	0.018	0.346008	0.0183246	0.00161288	0.00373869	0	0.00103852	11	3.59218e-07	0.000000000000000E+000	182592	0.000000000000000E+000	0.000000000000000E+000	0.00103852	0.00103852	0.0000000E+000	0.000000000000000E+000	6.34045e-06
1	1	0	0	0	0	1	276.05	0.018	0.344566	0.0185791	0.00184329	0.00396909	0	0.00110253	11	3.81316e-07	0.000000000000000E+000	208531	0.000000000000000E+000	0.000000000000000E+000	0.00110253	0.00110253	0.0000000E+000	0.000000000000000E+000	6.40172e-06
1	1	0	0	0	0	1	288.05	0.018	0.342845	0.019279	0.00207363	0.00419943	0	0.00116651	11	4.03303e-07	0.000000000000000E+000	242566	0.000000000000000E+000	0.000000000000000E+000	0.00116651	0.00116651	0.0000000E+000	0.000000000000000E+000	6.60969e-06
1	1	0	0	0	0	1	300.05	0.018	0.340982	0.0194698	0.00230388	0.00442969	0	0.00123047	11	4.25167e-07	0.000000000000000E+000	286713	0.000000000000000E+000	0.000000000000000E+000	0.00123047	0.00123047	0.0000000E+000	0.000000000000000E+000	6.63887e-06
1	1	0	0	0	0	1	312.05	0.018	0.339151	0.019279	0.00253423	0.00466003	0	0.00129445	11	4.46922e-07	0.000000000000000E+000	342183	0.000000000000000E+000	0.000000000000000E+000	0.00129445	0.00129445	0.0000000E+000	0.000000000000000E+000	6.53848e-06
1	1	0	0	0	0	1	324.05	0.018	0.337354	0.01877	0.00276451	0.00489031	0	0.00135842	11	4.68554e-07	0.000000000000000E+000	413671	0.000000000000000E+000	0.000000000000000E+000	0.00135842	0.00135842	0.0000000E+000	0.000000000000000E+000	6.33212e-06
1	1	0	0	0	0	1	336.05	0.018	0.334983	0.0197243	0.00299488	0.00512069	0	0.00142241	11	4.90048e-07	0.000000000000000E+000	541816	0.000000000000000E+000	0.000000000000000E+000	0.00142241	0.00142241	0.0000000E+000	0.000000000000000E+000	6.60732e-06
1	1	0	0	0	0	1	348.05	0.018	0.332958	0.0195335	0.00322534	0.00535115	0	0.00148643	11	5.11425e-07	0.000000000000000E+000	720606	0.000000000000000E+000	0.000000000000000E+000	0.00148643	0.00148643	0.0000000E+000	0.000000000000000E+000	6.50383e-06
1	1	0	0	0	0	1	360.05	0.018	0.330751	0.0194698	0.00345583	0.00558163	0	0.00155045	11	5.32663e-07	0.000000000000000E+000	1.06968e+06	0.000000000000000E+000	0.000000000000000E+000	0.00155045	0.00155045	0.0000000E+000	0.000000000000000E+000	6.43966e-06
1	1	0	1	0	0	2	371.05	0.032	0.363139	0.0335946	0.000367082	0.00594872	0	0.00165242	11	5.69154e-07	0.000000000000000E+000	158184	0.000000000000000E+000	0.000000000000000E+000	0.00165242	0.00165242	0.0000000E+000	0.000000000000000E+000	1.21995e-05
1	1	0	1	0	0	2	383.05	0.032	0.367565	0.0337219	0.000767633	0.00634927	0	0.00176369	11	6.0984e-07	0.000000000000000E+000	151057	0.000000000000000E+000	0.000000000000000E+000	0.00176369	0.00176369	0.0000000E+000	0.000000000000000E+000	1.2395e-05
1	1	0	1	0	0	2	395.05	0.032	0.370488	0.0341036	0.00116814	0.00674977	0	0.00187494	11	6.50915e-07	0.000000000000000E+000	150143	0.000000000000000E+000	0.000000000000000E+000	0.00187494	0.00187494	0.0000000E+000	0.000000000000000E+000	1.2635e-05
1	1	0	1	0	0	2	407.05	0.032	0.373078	0.0331492	0.00156865	0.00715029	0	0.00198619	11	6.92303e-07	0.000000000000000E+000	150388	0.000000000000000E+000	0.000000000000000E+000	0.00198619	0.00198619	0.0000000E+000	0.000000000000000E+000	1.23673e-05
1	1	0	1	0	0	2	419.05	0.032	0.375336	0.0337855	0.00196901	0.00755065	0	0.0020974	11	7.33933e-07	0.000000000000000E+000	151609	0.000000000000000E+000	0.000000000000000E+000	0.0020974	0.0020974	0.0000000E+000	0.000000000000000E+000	1.26809e-05
1	1	0	1	0	0	2	431.05	0.032	0.377068	0.0331492	0.00236935	0.00795099	0	0.00220861	11	7.75776e-07	0.000000000000000E+000	154282	0.000000000000000E+000	0.000000000000000E+000	0.00220861	0.00220861	0.0000000E+000	0.000000000000000E+000	1.24995e-05
1	1	0	1	0	0	2	443.05	0.032	0.378667	0.0339764	0.00276971	0.00835134	0	0.00231982	11	8.1781e-07	0.000000000000000E+000	157173	0.000000000000000E+000	0.000000000000000E+000	0.00231982	0.00231982	0.0000000E+000	0.000000000000000E+000	1.28657e-05
1	1	0	1	0	0	2	455.05	0.032	0.380251	0.0327675	0.00317012	0.00875176	0	0.00243104	11	8.60014e-07	0.000000000000000E+000	159943	0.000000000000000E+000	0.000000000000000E+000	0.00243104	0.00243104	0.0000000E+000	0.000000000000000E+000	1.24599e-05
1	1	0	1	0	0	2	467.05	0.032	0.381355	0.0337855	0.00357054	0.00915217	0	0.00254227	11	9.02366e-07	0.000000000000000E+000	163951	0.000000000000000E+000	0.000000000000000E+000	0.00254227	0.00254227	0.0000000E+000	0.000000000000000E+000	1.28843e-05
1	1	0	1	0	0	2	479.05	0.032	0.382203	0.0341672	0.00397074	0.00955238	0	0.00265344	11	9.44811e-07	0.000000000000000E+000	168560	0.000000000000000E+000	0.000000000000000E+000	0.00265344	0.00265344	0.0000000E+000	0.000000000000000E+000	1.30588e-05
1	1	0	1	0	0	2	491.05	0.032	0.383449	0.0342945	0.00437099	0.00995263	0	0.00276462	11	9.87381e-07	0.000000000000000E+000	171844	0.000000000000000E+000	0.000000000000000E+000	0.00276462	0.00276462	0.0000000E+000	0.000000000000000E+000	1.31502e-05
1	1	0	1	0	0	2	503.05	0.032	0.384231	0.0337219	0.00477142	0.0103531	0	0.00287585	11	1.03008e-06	0.000000000000000E+000	176378	0.000000000000000E+000	0.000000000000000E+000	0.00287585	0.00287585	0.0000000E+000	0.000000000000000E+000	1.2957e-05
1	1	0	1	0	0	2	515.05	0.032	0.385287	0.0341036	0.00517183	0.0107535	0	0.00298707	11	1.07288e-06	0.000000000000000E+000	179962	0.000000000000000E+000	0.000000000000000E+000	0.00298707	0.00298707	0.0000000E+000	0.000000000000000E+000	1.31397e-05
1	1	0	1	0	0	2	527.05	0.032	0.386103	0.0333401	0.00557221	0.0111538	0	0.00309829	11	1.11579e-06	0.000000000000000E+000	184145	0.000000000000000E+000	0.000000000000000E+000	0.00309829	0.00309829	0.0000000E+000	0.000000000000000E+000	1.28727e-05
1	1	0	1	0	0	2	539.05	0.032	0.386866	0.033531	0.0059726	0.0115542	0	0.00320951	11	1.15878e-06	0.000000000000000E+000	188384	0.000000000000000E+000	0.000000000000000E+000	0.00320951	0.00320951	0.0000000E+000	0.000000000000000E+000	1.2972e-05
1	1	0	0	0	0	3	550.051	0.056	0.406395	0.0577085	0.000578037	0.0121656	0	0.00337935	11	1.2271e-06	0.000000000000000E+000	150448	0.000000000000000E+000	0.000000000000000E+000	0.00337935	0.00337935	0.0000000E+000	0.000000000000000E+000	2.34525e-05
1	1	0	0	0	0	3	562.051	0.056	0.412353	0.0583448	0.00127172	0.0128593	0	0.00357204	11	1.30605e-06	0.000000000000000E+000	148115	0.000000000000000E+000	0.000000000000000E+000	0.00357204	0.00357204	0.0000000E+000	0.000000000000000E+000	2.40586e-05
1	1	0	0	0	0	3	574.051	0.056	0.417382	0.0577722	0.00196518	0.0135528	0	0.00376466	11	1.38602e-06	0.000000000000000E+000	147555	0.000000000000000E+000	0.000000000000000E+000	0.00376466	0.00376466	0.0000000E+000	0.000000000000000E+000	2.41131e-05
1	1	0	0	0	0	3	586.051	0.056	0.422152	0.0579631	0.00265862	0.0142462	0	0.00395729	11	1.46692e-06	0.000000000000000E+000	147446	0.000000000000000E+000	0.000000000000000E+000	0.00395729	0.00395729	0.0000000E+000	0.000000000000000E+000	2.44692e-05
1	1	0	0	0	0	3	598.051	0.056	0.426802	0.0575813	0.0033519	0.0149395	0	0.00414986	11	1.5487e-06	0.000000000000000E+000	147522	0.000000000000000E+000	0.000000000000000E+000	0.00414986	0.00414986	0.0000000E+000	0.000000000000000E+000	2.45758e-05
1	1	0	0	0	0	3	610.051	0.056	0.431513	0.0575177	0.00404519	0.0156328	0	0.00434244	11	1.6314e-06	0.000000000000000E+000	147506	0.000000000000000E+000	0.000000000000000E+000	0.00434244	0.00434244	0.0000000E+000	0.000000000000000E+000	2.48196e-05
1	1	0	0	0	0	3	622.051	0.056	0.436262	0.0584084	0.00473855	0.0163262	0	0.00453505	11	1.715e-06	0.000000000000000E+000	147442	0.000000000000000E+000	0.000000000000000E+000	0.00453505	0.00453505	0.0000000E+000	0.000000000000000E+000	2.54814e-05
1	1	0	0	0	0	3	634.051	0.056	0.441038	0.0582812	0.0054318	0.0170194	0	0.00472761	11	1.7995e-06	0.000000000000000E+000	147347	0.000000000000000E+000	0.000000000000000E+000	0.00472761	0.00472761	0.0000000E+000	0.000000000000000E+000	2.57042e-05
1	1	0	0	0	0	3	646.051	0.056	0.445593	0.057454	0.00612508	0.0177127	0	0.00492019	11	1.88491e-06	0.000000000000000E+000	147531	0.000000000000000E+000	0.000000000000000E+000	0.00492019	0.00492019	0.0000000E+000	0.000000000000000E+000	2.56011e-05
1	1	0	0	0	0	3	658.051	0.056	0.45013	0.0582175	0.00681835	0.018406	0	0.00511277	11	1.97119e-06	0.000000000000000E+000	147724	0.000000000000000E+000	0.000000000000000E+000	0.00511277	0.00511277	0.0000000E+000	0.000000000000000E+000	2.62054e-05
1	1	0	0	0	0	3	670.051	0.056	0.454585	0.0576449	0.00751169	0.0190993	0	0.00530536	11	2.05838e-06	0.000000000000000E+000	147997	0.000000000000000E+000	0.000000000000000E+000	0.00530536	0.00530536	0.0000000E+000	0.000000000000000E+000	2.62045e-05
1	1	0	0	0	0	3	682.051	0.056	0.459457	0.0573904	0.00820511	0.0197927	0	0.00549798	11	2.14644e-06	0.000000000000000E+000	147790	0.000000000000000E+000	0.000000000000000E+000	0.00549798	0.00549798	0.0000000E+000	0.000000000000000E+000	2.63684e-05
1	1	0	0	0	0	3	694.051	0.056	0.463965	0.0579631	0.0088985	0.0204861	0	0.00569059	11	2.23538e-06	0.000000000000000E+000	147986	0.000000000000000E+000	0.000000000000000E+000	0.00569059	0.00569059	0.0000000E+000	0.000000000000000E+000	2.68929e-05
1	1	0	0	0	0	3	706.051	0.056	0.468266	0.0576449	0.00959199	0.0211796	0	0.00588322	11	2.32519e-06	0.000000000000000E+000	148386	0.000000000000000E+000	0.000000000000000E+000	0.00588322	0.00588322	0.0000000E+000	0.000000000000000E+000	2.69931e-05
1	1	0	0	0	0	3	718.051	0.056	0.472959	0.0580267	0.0102855	0.0218731	0	0.00607585	11	2.41591e-06	0.000000000000000E+000	148366	0.000000000000000E+000	0.000000000000000E+000	0.00607585	0.00607585	0.0000000E+000	0.000000000000000E+000	2.74442e-05
1	1	0	1	0	0	4	729.051	0.1	0.513349	0.10231	0.000914554	0.0229032	0	0.006362	11	2.55873e-06	0.000000000000000E+000	121945	0.000000000000000E+000	0.000000000000000E+000	0.006362	0.006362	0.0000000E+000	0.000000000000000E+000	5.25206e-05
1	1	0	1	0	0	4	741.051	0.1	0.53563	0.10231	0.00213398	0.0241226	0	0.00670073	11	2.73688e-06	0.000000000000000E+000	114816	0.000000000000000E+000	0.000000000000000E+000	0.00670073	0.00670073	0.0000000E+000	0.000000000000000E+000	5.48002e-05
1	1	0	1	0	0	4	753.051	0.1	0.551346	0.101355	0.00335332	0.025342	0	0.00703943	11	2.92135e-06	0.000000000000000E+000	112225	0.000000000000000E+000	0.000000000000000E+000	0.00703943	0.00703943	0.0000000E+000	0.000000000000000E+000	5.58819e-05
1	1	0	1	0	0	4	765.051	0.1	0.561026	0.101355	0.00457244	0.0265611	0	0.00737808	11	3.11001e-06	0.000000000000000E+000	112789	0.000000000000000E+000	0.000000000000000E+000	0.00737808	0.00737808	0.0000000E+000	0.000000000000000E+000	5.68631e-05
1	1	0	1	0	0	4	777.051	0.1	0.565824	0.102119	0.00579159	0.0277802	0	0.00771673	11	3.30095e-06	0.000000000000000E+000	115611	0.000000000000000E+000	0.000000000000000E+000	0.00771673	0.00771673	0.0000000E+000	0.000000000000000E+000	5.77813e-05
1	1	0	1	0	0	4	789.051	0.1	0.568994	0.100528	0.00701092	0.0289996	0	0.00805543	11	3.49316e-06	0.000000000000000E+000	119113	0.000000000000000E+000	0.000000000000000E+000	0.00805543	0.00805543	0.0000000E+000	0.000000000000000E+000	5.72e-05
1	1	0	1	0	0	4	801.051	0.1	0.570418	0.102119	0.00823031	0.0302189	0	0.00839415	11	3.6862e-06	0.000000000000000E+000	123400	0.000000000000000E+000	0.000000000000000E+000	0.00839415	0.00839415	0.0000000E+000	0.000000000000000E+000	5.82504e-05
1	1	0	1	0	0	4	813.051	0.1	0.571628	0.101546	0.00944967	0.0314383	0	0.00873286	11	3.87962e-06	0.000000000000000E+000	127749	0.000000000000000E+000	0.000000000000000E+000	0.00873286	0.00873286	0.0000000E+000	0.000000000000000E+000	5.80467e-05
1	1	0	1	0	0	4	825.051	0.1	0.572589	0.102373	0.0106692	0.0326578	0	0.00907162	11	4.07345e-06	0.000000000000000E+000	132188	0.000000000000000E+000	0.000000000000000E+000	0.00907162	0.00907162	0.0000000E+000	0.000000000000000E+000	5.86179e-05
1	1	0	1	0	0	4	837.051	0.1	0.573097	0.101228	0.0118887	0.0338773	0	0.00941036	11	4.26751e-06	0.000000000000000E+000	136842	0.000000000000000E+000	0.000000000000000E+000	0.00941036	0.00941036	0.0000000E+000	0.000000000000000E+000	5.80136e-05
1	1	0	1	0	0	4	849.051	0.1	0.57329	0.101801	0.013108	0.0350967	0	0.00974908	11	4.46167e-06	0.000000000000000E+000	141657	0.000000000000000E+000	0.000000000000000E+000	0.00974908	0.00974908	0.0000000E+000	0.000000000000000E+000	5.83614e-05
1	1	0	1	0	0	4	861.051	0.1	0.573774	0.101419	0.0143274	0.036316	0	0.0100878	11	4.65596e-06	0.000000000000000E+000	146293	0.000000000000000E+000	0.000000000000000E+000	0.0100878	0.0100878	0.0000000E+000	0.000000000000000E+000	5.81916e-05
1	1	0	1	0	0	4	873.051	0.1	0.573953	0.101546	0.0155467	0.0375354	0	0.0104265	11	4.85033e-06	0.000000000000000E+000	151096	0.000000000000000E+000	0.000000000000000E+000	0.0104265	0.0104265	0.0000000E+000	0.000000000000000E+000	5.82828e-05
1	1	0	1	0	0	4	885.051	0.1	0.574135	0.102055	0.016766	0.0387546	0	0.0107652	11	5.04477e-06	0.000000000000000E+000	155890	0.000000000000000E+000	0.000000000000000E+000	0.0107652	0.0107652	0.0000000E+000	0.000000000000000E+000	5.85935e-05
1	1	0	1	0	0	4	897.051	0.1	0.574356	0.101101	0.0179854	0.039974	0	0.0111039	11	5.23923e-06	0.000000000000000E+000	160652	0.000000000000000E+000	0.000000000000000E+000	0.0111039	0.0111039	0.0000000E+000	0.000000000000000E+000	5.80679e-05
1	1	0	0	0	0	5	908.051	0.178	0.595934	0.179423	0.00143554	0.0417144	0	0.0115873	11	5.52508e-06	0.000000000000000E+000	154268	0.000000000000000E+000	0.000000000000000E+000	0.0115873	0.0115873	0.0000000E+000	0.000000000000000E+000	0.000106925
1	1	0	0	0	0	5	920.051	0.178	0.59594	0.179742	0.00358894	0.0438678	0	0.0121855	11	5.88151e-06	0.000000000000000E+000	162229	0.000000000000000E+000	0.000000000000000E+000	0.0121855	0.0121855	0.0000000E+000	0.000000000000000E+000	0.000107115
1	1	0	0	0	0	5	932.051	0.178	0.595793	0.179932	0.00574229	0.0460211	0	0.0127836	11	6.23787e-06	0.000000000000000E+000	170284	0.000000000000000E+000	0.000000000000000E+000	0.0127836	0.0127836	0.0000000E+000	0.000000000000000E+000	0.000107203
1	1	0	0	0	0	5	944.051	0.178	0.5957	0.179932	0.00789556	0.0481744	0	0.0133818	11	6.59417e-06	0.000000000000000E+000	178313	0.000000000000000E+000	0.000000000000000E+000	0.0133818	0.0133818	0.0000000E+000	0.000000000000000E+000	0.000107186
1	1	0	0	0	0	5	956.051	0.178	0.595622	0.179551	0.0100487	0.0503275	0	0.0139799	11	6.95041e-06	0.000000000000000E+000	186337	0.000000000000000E+000	0.000000000000000E+000	0.0139799	0.0139799	0.0000000E+000	0.000000000000000E+000	0.000106944
1	1	0	0	0	0	5	968.051	0.178	0.59564	0.179678	0.012202	0.0524808	0	0.014578	11	7.30671e-06	0.000000000000000E+000	194296	0.000000000000000E+000	0.000000000000000E+000	0.014578	0.014578	0.0000000E+000	0.000000000000000E+000	0.000107023
1	1	0	0	0	0	5	980.051	0.178	0.59566	0.17936	0.0143552	0.0546341	0	0.0151761	11	7.66298e-06	0.000000000000000E+000	202253	0.000000000000000E+000	0.000000000000000E+000	0.0151761	0.0151761	0.0000000E+000	0.000000000000000E+000	0.000106838
1	1	0	0	0	0	5	992.051	0.178	0.595613	0.179742	0.0165085	0.0567873	0	0.0157743	11	8.0193e-06	0.000000000000000E+000	210260	0.000000000000000E+000	0.000000000000000E+000	0.0157743	0.0157743	0.0000000E+000	0.000000000000000E+000	0.000107057
1	1	0	0	0	0	5	1004.05	0.178	0.595874	0.179869	0.0186616	0.0589404	0	0.0163723	11	8.3756e-06	0.000000000000000E+000	218022	0.000000000000000E+000	0.000000000000000E+000	0.0163723	0.0163723	0.0000000E+000	0.000000000000000E+000	0.000107179
1	1	0	0	0	0	5	1016.05	0.178	0.595684	0.179487	0.0208146	0.0610935	0	0.0169704	11	8.73189e-06	0.000000000000000E+000	226145	0.000000000000000E+000	0.000000000000000E+000	0.0169704	0.0169704	0.0000000E+000	0.000000000000000E+000	0.000106918
1	1	0	0	0	0	5	1028.05	0.178	0.595645	0.180314	0.0229676	0.0632465	0	0.0175685	11	9.08805e-06	0.000000000000000E+000	234149	0.000000000000000E+000	0.000000000000000E+000	0.0175685	0.0175685	0.0000000E+000	0.000000000000000E+000	0.000107403
1	1	0	0	0	0	5	1040.05	0.178	0.595477	0.178914	0.025121	0.0653998	0	0.0181666	11	9.44429e-06	0.000000000000000E+000	242271	0.000000000000000E+000	0.000000000000000E+000	0.0181666	0.0181666	0.0000000E+000	0.000000000000000E+000	0.000106539
1	1	0	0	0	0	5	1052.05	0.178	0.595703	0.179105	0.027274	0.0675528	0	0.0187647	11	9.80051e-06	0.000000000000000E+000	250038	0.000000000000000E+000	0.000000000000000E+000	0.0187647	0.0187647	0.0000000E+000	0.000000000000000E+000	0.000106694
1	1	0	0	0	0	5	1064.05	0.178	0.595681	0.178596	0.0294272	0.069706	0	0.0193628	11	1.01568e-05	0.000000000000000E+000	258029	0.000000000000000E+000	0.000000000000000E+000	0.0193628	0.0193628	0.0000000E+000	0.000000000000000E+000	0.000106386
1	1	0	0	0	0	5	1076.05	0.178	0.59568	0.179233	0.0315805	0.0718593	0	0.0199609	11	1.05131e-05	0.000000000000000E+000	266000	0.000000000000000E+000	0.000000000000000E+000	0.0199609	0.0199609	0.0000000E+000	0.000000000000000E+000	0.000106765
1	1	0	1	0	0	6	1087.05	0.316	0.617121	0.317236	0.00222302	0.0748001	0	0.0207778	11	1.10129e-05	0.000000000000000E+000	256527	0.000000000000000E+000	0.000000000000000E+000	0.0207778	0.0207778	0.0000000E+000	0.000000000000000E+000	0.000195773
1	1	0	1	0	0	6	1099.05	0.316	0.61695	0.317935	0.00603404	0.0786111	0	0.0218364	11	1.16661e-05	0.000000000000000E+000	269754	0.000000000000000E+000	0.000000000000000E+000	0.0218364	0.0218364	0.0000000E+000	0.000000000000000E+000	0.00019615
1	1	0	1	0	0	6	1111.05	0.316	0.616873	0.317172	0.00984497	0.082422	0	0.022895	11	1.23192e-05	0.000000000000000E+000	282906	0.000000000000000E+000	0.000000000000000E+000	0.022895	0.022895	0.0000000E+000	0.000000000000000E+000	0.000195655
1	1	0	1	0	0	6	1123.05	0.316	0.616789	0.317554	0.0136559	0.086233	0	0.0239536	11	1.29722e-05	0.000000000000000E+000	296072	0.000000000000000E+000	0.000000000000000E+000	0.0239536	0.0239536	0.0000000E+000	0.000000000000000E+000	0.000195864
1	1	0	1	0	0	6	1135.05	0.316	0.616749	0.317236	0.0174669	0.0900439	0	0.0250122	11	1.36251e-05	0.000000000000000E+000	309199	0.000000000000000E+000	0.000000000000000E+000	0.0250122	0.0250122	0.0000000E+000	0.000000000000000E+000	0.000195655
1	1	0	1	0	0	6	1147.05	0.316	0.61679	0.317236	0.0212778	0.0938548	0	0.0260708	11	1.42781e-05	0.000000000000000E+000	322240	0.000000000000000E+000	0.000000000000000E+000	0.0260708	0.0260708	0.0000000E+000	0.000000000000000E+000	0.000195668
1	1	0	1	0	0	6	1159.05	0.316	0.616802	0.316854	0.0250887	0.0976658	0	0.0271294	11	1.4931e-05	0.000000000000000E+000	335311	0.000000000000000E+000	0.000000000000000E+000	0.0271294	0.0271294	0.0000000E+000	0.000000000000000E+000	0.000195436
1	1	0	1	0	0	6	1171.05	0.316	0.616696	0.318763	0.0288997	0.101477	0	0.028188	11	1.55839e-05	0.000000000000000E+000	348521	0.000000000000000E+000	0.000000000000000E+000	0.028188	0.028188	0.0000000E+000	0.000000000000000E+000	0.00019658
1	1	0	1	0	0	6	1183.05	0.316	0.616777	0.317808	0.0327107	0.105288	0	0.0292466	11	1.62368e-05	0.000000000000000E+000	361510	0.000000000000000E+000	0.000000000000000E+000	0.0292466	0.0292466	0.0000000E+000	0.000000000000000E+000	0.000196017
1	1	0	1	0	0	6	1195.05	0.316	0.616807	0.317745	0.0365217	0.109099	0	0.0303052	11	1.68898e-05	0.000000000000000E+000	374557	0.000000000000000E+000	0.000000000000000E+000	0.0303052	0.0303052	0.0000000E+000	0.000000000000000E+000	0.000195987
1	1	0	1	0	0	6	1207.05	0.316	0.616871	0.317363	0.0403328	0.11291	0	0.0313639	11	1.75427e-05	0.000000000000000E+000	387556	0.000000000000000E+000	0.000000000000000E+000	0.0313639	0.0313639	0.0000000E+000	0.000000000000000E+000	0.000195772
1	1	0	1	0	0	6	1219.05	0.316	0.616857	0.317554	0.0441438	0.116721	0	0.0324225	11	1.81957e-05	0.000000000000000E+000	400655	0.000000000000000E+000	0.000000000000000E+000	0.0324225	0.0324225	0.0000000E+000	0.000000000000000E+000	0.000195885
1	1	0	1	0	0	6	1231.05	0.316	0.616917	0.317681	0.0479548	0.120532	0	0.0334811	11	1.88488e-05	0.000000000000000E+000	413653	0.000000000000000E+000	0.000000000000000E+000	0.0334811	0.0334811	0.0000000E+000	0.000000000000000E+000	0.000195983
1	1	0	1	0	0	6	1243.05	0.316	0.616883	0.316981	0.0517656	0.124343	0	0.0345396	11	1.95018e-05	0.000000000000000E+000	426780	0.000000000000000E+000	0.000000000000000E+000	0.0345396	0.0345396	0.0000000E+000	0.000000000000000E+000	0.00019554
1	1	0	1	0	0	6	1255.05	0.316	0.616944	0.318063	0.0555764	0.128153	0	0.0355982	11	2.01549e-05	0.000000000000000E+000	439769	0.000000000000000E+000	0.000000000000000E+000	0.0355982	0.0355982	0.0000000E+000	0.000000000000000E+000	0.000196227
1	1	0	0	0	0	7	1266.05	0.562	0.641297	0.563338	0.00338229	0.133124	0	0.0369788	11	2.10296e-05	0.000000000000000E+000	421592	0.000000000000000E+000	0.000000000000000E+000	0.0369788	0.0369788	0.0000000E+000	0.000000000000000E+000	0.000361267
1	1	0	0	0	0	7	1278.05	0.562	0.640992	0.563974	0.0101468	0.139888	0	0.0388578	11	2.22343e-05	0.000000000000000E+000	443442	0.000000000000000E+000	0.000000000000000E+000	0.0388578	0.0388578	0.0000000E+000	0.000000000000000E+000	0.000361503
1	1	0	0	0	0	7	1290.05	0.562	0.640932	0.564928	0.0169112	0.146653	0	0.0407368	11	2.34388e-05	0.000000000000000E+000	464975	0.000000000000000E+000	0.000000000000000E+000	0.0407368	0.0407368	0.0000000E+000	0.000000000000000E+000	0.00036208
1	1	0	0	0	0	7	1302.05	0.562	0.640943	0.563401	0.0236757	0.153417	0	0.0426158	11	2.46432e-05	0.000000000000000E+000	486404	0.000000000000000E+000	0.000000000000000E+000	0.0426158	0.0426158	0.0000000E+000	0.000000000000000E+000	0.000361108
1	1	0	0	0	0	7	1314.05	0.562	0.6409	0.562956	0.0304404	0.160182	0	0.0444949	11	2.58477e-05	0.000000000000000E+000	507921	0.000000000000000E+000	0.000000000000000E+000	0.0444949	0.0444949	0.0000000E+000	0.000000000000000E+000	0.000360798
1	1	0	0	0	0	7	1326.05	0.562	0.640946	0.563401	0.0372049	0.166946	0	0.046374	11	2.70521e-05	0.000000000000000E+000	529293	0.000000000000000E+000	0.000000000000000E+000	0.046374	0.046374	0.0000000E+000	0.000000000000000E+000	0.00036111
1	1	0	0	0	0	7	1338.05	0.562	0.641061	0.563974	0.0439697	0.173711	0	0.0482531	11	2.82566e-05	0.000000000000000E+000	550540	0.000000000000000E+000	0.000000000000000E+000	0.0482531	0.0482531	0.0000000E+000	0.000000000000000E+000	0.000361542
1	1	0	0	0	0	7	1350.05	0.562	0.64109	0.563401	0.0507342	0.180476	0	0.0501321	11	2.94611e-05	0.000000000000000E+000	571926	0.000000000000000E+000	0.000000000000000E+000	0.0501321	0.0501321	0.0000000E+000	0.000000000000000E+000	0.000361191
1	1	0	0	0	0	7	1362.05	0.562	0.641028	0.563847	0.057499	0.18724	0	0.0520112	11	3.06658e-05	0.000000000000000E+000	593480	0.000000000000000E+000	0.000000000000000E+000	0.0520112	0.0520112	0.0000000E+000	0.000000000000000E+000	0.000361442
1	1	0	0	0	0	7	1374.05	0.562	0.641213	0.563274	0.0642636	0.194005	0	0.0538903	11	3.18707e-05	0.000000000000000E+000	614561	0.000000000000000E+000	0.000000000000000E+000	0.0538903	0.0538903	0.0000000E+000	0.000000000000000E+000	0.000361179
1	1	0	0	0	0	7	1386.05	0.562	0.641203	0.563401	0.0710283	0.20077	0	0.0557693	11	3.30756e-05	0.000000000000000E+000	636009	0.000000000000000E+000	0.000000000000000E+000	0.0557693	0.0557693	0.0000000E+000	0.000000000000000E+000	0.000361255
1	1	0	0	0	0	7	1398.05	0.562	0.641333	0.56391	0.0777929	0.207534	0	0.0576484	11	3.42805e-05	0.000000000000000E+000	657169	0.000000000000000E+000	0.000000000000000E+000	0.0576484	0.0576484	0.0000000E+000	0.000000000000000E+000	0.000361654
1	1	0	0	0	0	7	1410.05	0.562	0.641419	0.563847	0.0845576	0.214299	0	0.0595275	11	3.54858e-05	0.000000000000000E+000	678405	0.000000000000000E+000	0.000000000000000E+000	0.0595275	0.0595275	0.0000000E+000	0.000000000000000E+000	0.000361662
1	1	0	0	0	0	7	1422.05	0.562	0.64154	0.563401	0.0913223	0.221064	0	0.0614066	11	3.66911e-05	0.000000000000000E+000	699553	0.000000000000000E+000	0.000000000000000E+000	0.0614066	0.0614066	0.0000000E+000	0.000000000000000E+000	0.000361444
1	1	0	0	0	0	7	1434.05	0.562	0.641719	0.563719	0.0980872	0.227829	0	0.0632857	11	3.78967e-05	0.000000000000000E+000	720552	0.000000000000000E+000	0.000000000000000E+000	0.0632857	0.0632857	0.0000000E+000	0.000000000000000E+000	0.000361749
1	1	0	1	0	0	8	1445.05	1	0.670203	1.00127	0.00500737	0.236218	0	0.0656162	11	3.94319e-05	0.000000000000000E+000	685346	0.000000000000000E+000	0.000000000000000E+000	0.0656162	0.0656162	0.0000000E+000	0.000000000000000E+000	0.000671054
1	1	0	1	0	0	8	1457.05	1	0.669812	1.00102	0.0170252	0.248236	0	0.0689545	11	4.16684e-05	0.000000000000000E+000	721030	0.000000000000000E+000	0.000000000000000E+000	0.0689545	0.0689545	0.0000000E+000	0.000000000000000E+000	0.000670492
1	1	0	1	0	0	8	1469.05	1	0.669813	1.00025	0.029043	0.260254	0	0.0722928	11	4.39043e-05	0.000000000000000E+000	755936	0.000000000000000E+000	0.000000000000000E+000	0.0722928	0.0722928	0.0000000E+000	0.000000000000000E+000	0.000669982
1	1	0	1	0	0	8	1481.05	1	0.669668	1.00178	0.0410609	0.272272	0	0.0756311	11	4.61401e-05	0.000000000000000E+000	791178	0.000000000000000E+000	0.000000000000000E+000	0.0756311	0.0756311	0.0000000E+000	0.000000000000000E+000	0.000670859
1	1	0	1	0	0	8	1493.05	1	0.669725	1.00165	0.0530788	0.28429	0	0.0789694	11	4.83759e-05	0.000000000000000E+000	825961	0.000000000000000E+000	0.000000000000000E+000	0.0789694	0.0789694	0.0000000E+000	0.000000000000000E+000	0.000670831
1	1	0	1	0	0	8	1505.05	1	0.669837	1.00203	0.0650966	0.296308	0	0.0823077	11	5.06119e-05	0.000000000000000E+000	860599	0.000000000000000E+000	0.000000000000000E+000	0.0823077	0.0823077	0.0000000E+000	0.000000000000000E+000	0.000671199
1	1	0	1	0	0	8	1517.05	1	0.669865	1.00114	0.0771144	0.308325	0	0.0856459	11	5.28482e-05	0.000000000000000E+000	895429	0.000000000000000E+000	0.000000000000000E+000	0.0856459	0.0856459	0.0000000E+000	0.000000000000000E+000	0.00067063
1	1	0	1	0	0	8	1529.05	1	0.670009	1.00184	0.0891323	0.320343	0	0.0889843	11	5.50848e-05	0.000000000000000E+000	929944	0.000000000000000E+000	0.000000000000000E+000	0.0889843	0.0889843	0.0000000E+000	0.000000000000000E+000	0.000671243
1	1	0	1	0	0	8	1541.05	1	0.670107	1.00178	0.10115	0.332361	0	0.0923226	11	5.73217e-05	0.000000000000000E+000	964555	0.000000000000000E+000	0.000000000000000E+000	0.0923226	0.0923226	0.0000000E+000	0.000000000000000E+000	0.000671299
1	1	0	1	0	0	8	1553.05	1	0.670128	1.00184	0.113168	0.344379	0	0.0956609	11	5.95588e-05	0.000000000000000E+000	999373	0.000000000000000E+000	0.000000000000000E+000	0.0956609	0.0956609	0.0000000E+000	0.000000000000000E+000	0.000671362
1	1	0	1	0	0	8	1565.05	1	0.670295	1.00254	0.125186	0.356397	0	0.0989992	11	6.17964e-05	0.000000000000000E+000	1.03375e+06	0.000000000000000E+000	0.000000000000000E+000	0.0989992	0.0989992	0.0000000E+000	0.000000000000000E+000	0.000671999
1	1	0	1	0	0	8	1577.05	1	0.6704	1.00102	0.137204	0.368415	0	0.102337	11	6.40345e-05	0.000000000000000E+000	1.06828e+06	0.000000000000000E+000	0.000000000000000E+000	0.102337	0.102337	0.0000000E+000	0.000000000000000E+000	0.000671081
1	1	0	1	0	0	8	1589.05	1	0.670654	1.00133	0.149222	0.380433	0	0.105676	11	6.6273e-05	0.000000000000000E+000	1.10232e+06	0.000000000000000E+000	0.000000000000000E+000	0.105676	0.105676	0.0000000E+000	0.000000000000000E+000	0.000671548
1	1	0	1	0	0	8	1601.05	1	0.670862	1.00152	0.16124	0.392451	0	0.109014	11	6.85119e-05	0.000000000000000E+000	1.13645e+06	0.000000000000000E+000	0.000000000000000E+000	0.109014	0.109014	0.0000000E+000	0.000000000000000E+000	0.000671885
1	1	0	1	0	0	8	1613.05	1	0.670946	1.00203	0.173257	0.404468	0	0.112352	11	7.07513e-05	0.000000000000000E+000	1.17097e+06	0.000000000000000E+000	0.000000000000000E+000	0.112352	0.112352	0.0000000E+000	0.000000000000000E+000	0.000672311
1	1	0	0	0	0	9	1624.05	1.778	0.704465	1.77966	0.00711568	0.418595	0	0.116276	11	7.34503e-05	0.000000000000000E+000	1.10467e+06	0.000000000000000E+000	0.000000000000000E+000	0.116276	0.116276	0.0000000E+000	0.000000000000000E+000	0.00125371
1	1	0	0	0	0	9	1636.05	1.778	0.703757	1.77909	0.0284634	0.439942	0	0.122206	11	7.76247e-05	0.000000000000000E+000	1.16318e+06	0.000000000000000E+000	0.000000000000000E+000	0.122206	0.122206	0.0000000E+000	0.000000000000000E+000	0.00125205
1	1	0	0	0	0	9	1648.05	1.778	0.703847	1.77902	0.049811	0.46129	0	0.128136	11	8.17983e-05	0.000000000000000E+000	1.21933e+06	0.000000000000000E+000	0.000000000000000E+000	0.128136	0.128136	0.0000000E+000	0.000000000000000E+000	0.00125216
1	1	0	0	0	0	9	1660.05	1.778	0.703827	1.77941	0.0711586	0.482637	0	0.134066	11	8.59715e-05	0.000000000000000E+000	1.27582e+06	0.000000000000000E+000	0.000000000000000E+000	0.134066	0.134066	0.0000000E+000	0.000000000000000E+000	0.00125239
1	1	0	0	0	0	9	1672.05	1.778	0.704036	1.77902	0.0925062	0.503985	0	0.139996	11	9.01453e-05	0.000000000000000E+000	1.33152e+06	0.000000000000000E+000	0.000000000000000E+000	0.139996	0.139996	0.0000000E+000	0.000000000000000E+000	0.0012525
1	1	0	0	0	0	9	1684.05	1.778	0.703911	1.77921	0.113854	0.525333	0	0.145926	11	9.43196e-05	0.000000000000000E+000	1.38838e+06	0.000000000000000E+000	0.000000000000000E+000	0.145926	0.145926	0.0000000E+000	0.000000000000000E+000	0.00125241
1	1	0	0	0	0	9	1696.05	1.778	0.703979	1.77871	0.135202	0.546681	0	0.151856	11	9.84941e-05	0.000000000000000E+000	1.44454e+06	0.000000000000000E+000	0.000000000000000E+000	0.151856	0.151856	0.0000000E+000	0.000000000000000E+000	0.00125217
1	1	0	0	0	0	9	1708.05	1.778	0.704103	1.77877	0.15655	0.568029	0	0.157786	11	0.000102669	0.000000000000000E+000	1.50046e+06	0.000000000000000E+000	0.000000000000000E+000	0.157786	0.157786	0.0000000E+000	0.000000000000000E+000	0.00125244
1	1	0	0	0	0	9	1720.05	1.778	0.70415	1.77902	0.177898	0.589377	0	0.163716	11	0.000106845	0.000000000000000E+000	1.55666e+06	0.000000000000000E+000	0.000000000000000E+000	0.163716	0.163716	0.0000000E+000	0.000000000000000E+000	0.0012527
1	1	0	0	0	0	9	1732.05	1.778	0.704403	1.77928	0.199246	0.610725	0	0.169646	11	0.000111022	0.000000000000000E+000	1.61196e+06	0.000000000000000E+000	0.000000000000000E+000	0.169646	0.169646	0.0000000E+000	0.000000000000000E+000	0.00125333
1	1	0	0	0	0	9	1744.05	1.778	0.70444	1.77934	0.220594	0.632073	0	0.175576	11	0.000115199	0.000000000000000E+000	1.66815e+06	0.000000000000000E+000	0.000000000000000E+000	0.175576	0.175576	0.0000000E+000	0.000000000000000E+000	0.00125344
1	1	0	0	0	0	9	1756.05	1.778	0.704665	1.77851	0.241942	0.65342	0	0.181506	11	0.000119378	0.000000000000000E+000	1.72346e+06	0.000000000000000E+000	0.000000000000000E+000	0.181506	0.181506	0.0000000E+000	0.000000000000000E+000	0.00125326
1	1	0	0	0	0	9	1768.05	1.778	0.704751	1.77902	0.263289	0.674768	0	0.187436	11	0.000123557	0.000000000000000E+000	1.77936e+06	0.000000000000000E+000	0.000000000000000E+000	0.187436	0.187436	0.0000000E+000	0.000000000000000E+000	0.00125377
1	1	0	0	0	0	9	1780.05	1.778	0.705132	1.77902	0.284637	0.696116	0	0.193366	11	0.000127737	0.000000000000000E+000	1.83382e+06	0.000000000000000E+000	0.000000000000000E+000	0.193366	0.193366	0.0000000E+000	0.000000000000000E+000	0.00125445
1	1	0	0	0	0	9	1792.05	1.778	0.705117	1.77934	0.305985	0.717463	0	0.199295	11	0.000131918	0.000000000000000E+000	1.89013e+06	0.000000000000000E+000	0.000000000000000E+000	0.199295	0.199295	0.0000000E+000	0.000000000000000E+000	0.00125464
1	1	0	1	0	0	10	1803.05	3.162	0.742826	3.16306	0.00948959	0.741185	0	0.205885	11	0.000136665	0.000000000000000E+000	1.77617e+06	0.000000000000000E+000	0.000000000000000E+000	0.205885	0.205885	0.0000000E+000	0.000000000000000E+000	0.0023496
1	1	0	1	0	0	10	1815.05	3.162	0.742687	3.16274	0.047449	0.779145	0	0.216429	11	0.000144498	0.000000000000000E+000	1.86776e+06	0.000000000000000E+000	0.000000000000000E+000	0.216429	0.216429	0.0000000E+000	0.000000000000000E+000	0.00234893
1	1	0	1	0	0	10	1827.05	3.162	0.742926	3.16332	0.0854083	0.817104	0	0.226973	11	0.00015233	0.000000000000000E+000	1.95763e+06	0.000000000000000E+000	0.000000000000000E+000	0.226973	0.226973	0.0000000E+000	0.000000000000000E+000	0.00235011
1	1	0	1	0	0	10	1839.05	3.162	0.743126	3.16287	0.123368	0.855063	0	0.237518	11	0.000160165	0.000000000000000E+000	2.0476e+06	0.000000000000000E+000	0.000000000000000E+000	0.237518	0.237518	0.0000000E+000	0.000000000000000E+000	0.00235041
1	1	0	1	0	0	10	1851.05	3.162	0.74326	3.16293	0.161327	0.893023	0	0.248062	11	0.000168001	0.000000000000000E+000	2.13781e+06	0.000000000000000E+000	0.000000000000000E+000	0.248062	0.248062	0.0000000E+000	0.000000000000000E+000	0.00235088
1	1	0	1	0	0	10	1863.05	3.162	0.743414	3.16338	0.199286	0.930982	0	0.258606	11	0.00017584	0.000000000000000E+000	2.22786e+06	0.000000000000000E+000	0.000000000000000E+000	0.258606	0.258606	0.0000000E+000	0.000000000000000E+000	0.0023517
1	1	0	1	0	0	10	1875.05	3.162	0.743677	3.16262	0.237246	0.968942	0	0.26915	11	0.00018368	0.000000000000000E+000	2.31724e+06	0.000000000000000E+000	0.000000000000000E+000	0.26915	0.26915	0.0000000E+000	0.000000000000000E+000	0.00235197
1	1	0	1	0	0	10	1887.05	3.162	0.743808	3.16268	0.275205	1.0069	0	0.279695	11	0.000191524	0.000000000000000E+000	2.40727e+06	0.000000000000000E+000	0.000000000000000E+000	0.279695	0.279695	0.0000000E+000	0.000000000000000E+000	0.00235243
1	1	0	1	0	0	10	1899.05	3.162	0.744103	3.16325	0.313165	1.04486	0	0.290239	11	0.000199369	0.000000000000000E+000	2.49626e+06	0.000000000000000E+000	0.000000000000000E+000	0.290239	0.290239	0.0000000E+000	0.000000000000000E+000	0.00235379
1	1	0	1	0	0	10	1911.05	3.162	0.744317	3.16325	0.351124	1.08282	0	0.300783	11	0.000207216	0.000000000000000E+000	2.58562e+06	0.000000000000000E+000	0.000000000000000E+000	0.300783	0.300783	0.0000000E+000	0.000000000000000E+000	0.00235446
1	1	0	1	0	0	10	1923.05	3.162	0.744573	3.16281	0.389084	1.12078	0	0.311328	11	0.000215065	0.000000000000000E+000	2.67463e+06	0.000000000000000E+000	0.000000000000000E+000	0.311328	0.311328	0.0000000E+000	0.000000000000000E+000	0.00235494
1	1	0	1	0	0	10	1935.05	3.162	0.744784	3.16344	0.427043	1.15874	0	0.321872	11	0.000222918	0.000000000000000E+000	2.76383e+06	0.000000000000000E+000	0.000000000000000E+000	0.321872	0.321872	0.0000000E+000	0.000000000000000E+000	0.00235608
1	1	0	1	0	0	10	1947.05	3.162	0.744882	3.16363	0.465002	1.1967	0	0.332416	11	0.000230772	0.000000000000000E+000	2.8537e+06	0.000000000000000E+000	0.000000000000000E+000	0.332416	0.332416	0.0000000E+000	0.000000000000000E+000	0.00235653
1	1	0	1	0	0	10	1959.05	3.162	0.745293	3.16325	0.502961	1.23466	0	0.34296	11	0.000238629	0.000000000000000E+000	2.94133e+06	0.000000000000000E+000	0.000000000000000E+000	0.34296	0.34296	0.0000000E+000	0.000000000000000E+000	0.00235755
1	1	0	1	0	0	10	1971.05	3.162	0.745676	3.16281	0.540921	1.27262	0	0.353505	11	0.000246489	0.000000000000000E+000	3.029e+06	0.000000000000000E+000	0.000000000000000E+000	0.353505	0.353505	0.0000000E+000	0.000000000000000E+000	0.00235843
1	1	0	0	0	0	11	1982.05	5.623	0.787665	5.62396	0.0112476	1.31233	0	0.364537	11	0.000254847	0.000000000000000E+000	2.83974e+06	0.000000000000000E+000	0.000000000000000E+000	0.364537	0.364537	0.0000000E+000	0.000000000000000E+000	0.00442979
1	1	0	0	0	0	11	1994.05	5.623	0.78843	5.62453	0.0787365	1.37982	0	0.383284	11	0.00026962	0.000000000000000E+000	2.98084e+06	0.000000000000000E+000	0.000000000000000E+000	0.383284	0.383284	0.0000000E+000	0.000000000000000E+000	0.00443455
1	1	0	0	0	0	11	2006.05	5.623	0.788623	5.62415	0.146225	1.44731	0	0.402031	11	0.000284404	0.000000000000000E+000	3.12533e+06	0.000000000000000E+000	0.000000000000000E+000	0.402031	0.402031	0.0000000E+000	0.000000000000000E+000	0.00443533
1	1	0	0	0	0	11	2018.05	5.623	0.789119	5.62427	0.213714	1.5148	0	0.420778	11	0.000299195	0.000000000000000E+000	3.26757e+06	0.000000000000000E+000	0.000000000000000E+000	0.420778	0.420778	0.0000000E+000	0.000000000000000E+000	0.00443822
1	1	0	0	0	0	11	2030.05	5.623	0.789411	5.62434	0.281203	1.58229	0	0.439525	11	0.000313995	0.000000000000000E+000	3.411e+06	0.000000000000000E+000	0.000000000000000E+000	0.439525	0.439525	0.0000000E+000	0.000000000000000E+000	0.00443991
1	1	0	0	0	0	11	2042.05	5.623	0.790414	5.62421	0.348692	1.64978	0	0.458272	11	0.000328801	0.000000000000000E+000	3.54882e+06	0.000000000000000E+000	0.000000000000000E+000	0.458272	0.458272	0.0000000E+000	0.000000000000000E+000	0.00444545
1	1	0	0	0	0	11	2054.05	5.623	0.790062	5.62389	0.416181	1.71727	0	0.477019	11	0.000343615	0.000000000000000E+000	3.69679e+06	0.000000000000000E+000	0.000000000000000E+000	0.477019	0.477019	0.0000000E+000	0.000000000000000E+000	0.00444323
1	1	0	0	0	0	11	2066.05	5.623	0.790455	5.62408	0.48367	1.78476	0	0.495766	11	0.000358433	0.000000000000000E+000	3.83883e+06	0.000000000000000E+000	0.000000000000000E+000	0.495766	0.495766	0.0000000E+000	0.000000000000000E+000	0.00444558
1	1	0	0	0	0	11	2078.05	5.623	0.79114	5.62459	0.551159	1.85225	0	0.514513	11	0.00037326	0.000000000000000E+000	3.97813e+06	0.000000000000000E+000	0.000000000000000E+000	0.514513	0.514513	0.0000000E+000	0.000000000000000E+000	0.00444984
1	1	0	0	0	0	11	2090.05	5.623	0.791391	5.62357	0.618648	1.91973	0	0.533259	11	0.000388095	0.000000000000000E+000	4.12085e+06	0.000000000000000E+000	0.000000000000000E+000	0.533259	0.533259	0.0000000E+000	0.000000000000000E+000	0.00445045
1	1	0	0	0	0	11	2102.05	5.623	0.791767	5.62421	0.686136	1.98722	0	0.552006	11	0.000402938	0.000000000000000E+000	4.26229e+06	0.000000000000000E+000	0.000000000000000E+000	0.552006	0.552006	0.0000000E+000	0.000000000000000E+000	0.00445306
1	1	0	0	0	0	11	2114.05	5.623	0.793057	5.62421	0.753625	2.05471	0	0.570753	11	0.000417787	0.000000000000000E+000	4.39487e+06	0.000000000000000E+000	0.000000000000000E+000	0.570753	0.570753	0.0000000E+000	0.000000000000000E+000	0.00446032
1	1	0	0	0	0	11	2126.05	5.623	0.79275	5.62446	0.821114	2.1222	0	0.5895	11	0.000432645	0.000000000000000E+000	4.54221e+06	0.000000000000000E+000	0.000000000000000E+000	0.5895	0.5895	0.0000000E+000	0.000000000000000E+000	0.00445879
1	1	0	0	0	0	11	2138.05	5.623	0.792935	5.62408	0.888603	2.18969	0	0.608247	11	0.000447507	0.000000000000000E+000	4.6848e+06	0.000000000000000E+000	0.000000000000000E+000	0.608247	0.608247	0.0000000E+000	0.000000000000000E+000	0.00445953
1	1	0	0	0	0	11	2150.05	5.623	0.793429	5.62389	0.956092	2.25718	0	0.626994	11	0.000462377	0.000000000000000E+000	4.8241e+06	0.000000000000000E+000	0.000000000000000E+000	0.626994	0.626994	0.0000000E+000	0.000000000000000E+000	0.00446216
1	1	0	1	1	0	12	2161.05	10	0.841661	10.0017	0.0100005	2.32342	0	0.645395	11	0.000477114	0.000000000000000E+000	4.50163e+06	0.000000000000000E+000	0.000000000000000E+000	0.645395	0.645395	0.0000000E+000	0.000000000000000E+000	0.00841803
1	1	0	1	0	0	12	2173.05	10	0.844354	10.0008	0.130017	2.44344	0	0.678733	11	0.000505227	0.000000000000000E+000	4.70959e+06	0.000000000000000E+000	0.000000000000000E+000	0.678733	0.678733	0.0000000E+000	0.000000000000000E+000	0.00844421
1	1	0	1	0	0	12	2185.05	10	0.844779	10.0014	0.250034	2.56345	0	0.712071	11	0.000533376	0.000000000000000E+000	4.93688e+06	0.000000000000000E+000	0.000000000000000E+000	0.712071	0.712071	0.0000000E+000	0.000000000000000E+000	0.00844899
1	1	0	1	0	0	12	2197.05	10	0.845397	10.0012	0.370051	2.68347	0	0.745409	11	0.000561557	0.000000000000000E+000	5.16187e+06	0.000000000000000E+000	0.000000000000000E+000	0.745409	0.745409	0.0000000E+000	0.000000000000000E+000	0.00845502
1	1	0	1	0	0	12	2209.05	10	0.846597	10.0013	0.490067	2.80349	0	0.778747	11	0.000589767	0.000000000000000E+000	5.38031e+06	0.000000000000000E+000	0.000000000000000E+000	0.778747	0.778747	0.0000000E+000	0.000000000000000E+000	0.00846707
1	1	0	1	0	0	12	2221.05	10	0.848174	10.0017	0.610084	2.9235	0	0.812085	11	0.000618014	0.000000000000000E+000	5.59371e+06	0.000000000000000E+000	0.000000000000000E+000	0.812085	0.812085	0.0000000E+000	0.000000000000000E+000	0.00848317
1	1	0	1	0	0	12	2233.05	10	0.847847	10.001	0.730101	3.04352	0	0.845423	11	0.000646271	0.000000000000000E+000	5.82699e+06	0.000000000000000E+000	0.000000000000000E+000	0.845423	0.845423	0.0000000E+000	0.000000000000000E+000	0.00847936
1	1	0	1	0	0	12	2245.05	10	0.849394	10.0017	0.850118	3.16354	0	0.878761	11	0.000674562	0.000000000000000E+000	6.03888e+06	0.000000000000000E+000	0.000000000000000E+000	0.878761	0.878761	0.0000000E+000	0.000000000000000E+000	0.00849537
1	1	0	1	0	0	12	2257.05	10	0.849585	10.0014	0.970135	3.28355	0	0.912099	11	0.000702872	0.000000000000000E+000	6.2657e+06	0.000000000000000E+000	0.000000000000000E+000	0.912099	0.912099	0.0000000E+000	0.000000000000000E+000	0.00849701
1	1	0	1	0	0	12	2269.05	10	0.850205	10.0012	1.09015	3.40357	0	0.945437	11	0.000731206	0.000000000000000E+000	6.48704e+06	0.000000000000000E+000	0.000000000000000E+000	0.945437	0.945437	0.0000000E+000	0.000000000000000E+000	0.00850311
1	1	0	1	0	0	12	2281.05	10	0.850837	10.0017	1.21017	3.52359	0	0.978775	11	0.000759571	0.000000000000000E+000	6.7077e+06	0.000000000000000E+000	0.000000000000000E+000	0.978775	0.978775	0.0000000E+000	0.000000000000000E+000	0.00850986
1	1	0	1	0	0	12	2293.05	10	0.851466	10.0009	1.33019	3.64361	0	1.01211	11	0.000787951	0.000000000000000E+000	6.92788e+06	0.000000000000000E+000	0.000000000000000E+000	1.01211	1.01211	0.0000000E+000	0.000000000000000E+000	0.00851539
1	1	0	1	0	0	12	2305.05	10	0.852319	10.0014	1.4502	3.76362	0	1.04545	11	0.000816359	0.000000000000000E+000	7.14449e+06	0.000000000000000E+000	0.000000000000000E+000	1.04545	1.04545	0.0000000E+000	0.000000000000000E+000	0.00852436
1	1	0	1	0	0	12	2317.05	10	0.853978	10.0011	1.57022	3.88364	0	1.07879	11	0.000844799	0.000000000000000E+000	7.34918e+06	0.000000000000000E+000	0.000000000000000E+000	1.07879	1.07879	0.0000000E+000	0.000000000000000E+000	0.00854073
1	1	0	1	0	0	12	2329.05	10	0.853793	10.0019	1.69024	4.00366	0	1.11213	11	0.000873254	0.000000000000000E+000	7.57895e+06	0.000000000000000E+000	0.000000000000000E+000	1.11213	1.11213	0.0000000E+000	0.000000000000000E+000	0.00853953
1	1	0	1	0	0	12	2340.05	10	0.854185	10.0019	1.80025	4.11367	0	1.14269	11	0.000899359	0.000000000000000E+000	7.78143e+06	0.000000000000000E+000	0.000000000000000E+000	1.14269	1.14269	0.0000000E+000	0.000000000000000E+000	0.00854345