File: Data_1mg/2022_01_30 CoNx 1mg ref309_C05.mpt
EC-Lab ASCII FILE
Nb header lines : 63

Potentio Electrochemical Impedance Spectroscopy

Run on channel : 5 (SN 30436)
User :
CE vs. WE compliance from -10 V to 10 V
Electrode connection : standard
Potential control : Ewe
Ewe ctrl range : min = -10.00 V, max = 10.00 V
Safety Limits :
	Do not start on E overload
Acquisition started on : 01/30/2023 10:30:37.764
Loaded Setting File :  NONE
Saved on :
	File : 2022_01_30 CoNx 1mg ref309_C05.mpr
	Directory : C:\Users\grupogalan\Documents\EC-Lab\Data\Scott\
	Host : 169.254.104.159
Device : VSP (SN 1176)
Address : USB
EC-Lab for windows v11.46 (software)
Internet server v11.40 (firmware)
Command interpretor v11.40 (firmware)
Electrode material :
Initial state :
Electrolyte :
Comments :
Electrode surface area : 0.001 cm²
Characteristic mass : 0.001 g
Equivalent Weight : 0.000 g/eq.
Density : 0.000 g/cm3
Volume (V) : 0.001 cm³
Cycle Definition : Charge/Discharge alternance
Mode                Single sine
E (V)               0.0000
vs.                 Eoc
tE (h:m:s)          0:00:0.0000
record              0
dI                  0.000
unit dI             mA
dt (s)              0.000
fi                  200.000
unit fi             kHz
ff                  100.000
unit ff             mHz
Nd                  6
Points              per decade
spacing             Logarithmic
Va (mV)             10.0
pw                  0.10
Na                  2
corr                0
E range min (V)     -10.000
E range max (V)     10.000
I Range             Auto
Bandwidth           5
nc cycles           0
goto Ns'            0
nr cycles           0
inc. cycle          0

freq/Hz	Re(Z)/Ohm	-Im(Z)/Ohm	|Z|/Ohm	Phase(Z)/deg	time/s	<Ewe>/V	<I>/mA	Cs/µF	Cp/µF	cycle number	I Range	|Ewe|/V	|I|/A	Ns	(Q-Qo)/mA.h	Re(Y)/Ohm-1	Im(Y)/Ohm-1	|Y|/Ohm-1	Phase(Y)/deg	Re(C)/nF	Im(C)/nF	|C|/nF	Phase(C)/deg	Re(M)	Im(M)	|M|	Phase(M)/deg	Re(Permittivity)	Im(Permittivity)	|Permittivity|	Phase(Permittivity)/deg	Re(Resistivity)/Ohm.cm	Im(Resistivity)/Ohm.cm	|Resistivity|/Ohm.cm	Phase(Resistivity)/deg	Re(Conductivity)/mS/cm	Im(Conductivity)/mS/cm	|Conductivity|/mS/cm	Phase(Conductivity)/deg	Tan(Delta)	Loss Angle(Delta)/deg	dq/mA.h
199998	1.38044	-1.33516	1.92048	44.0447	2.38049	-0.210703	-0.18287	-0.596022	-0.288075	1	9	0.00666856	0.00347234	0	-2.78506e-05	0.37428	-0.362003	0.520703	-44.0447	-288.075	297.845	414.366	-134.045	0.0000000E+000	0.0000000E+000	0.0000000E+000	134.045	0.0000000E+000	0.0000000E+000	0.0000000E+000	-134.045	0.0000000E+000	0.0000000E+000	0.0000000E+000	44.0447	0.0000000E+000	0.0000000E+000	0.0000000E+000	-44.0447	-1.03392	-44.0447	-2.78506e-05
135123	1.00533	-0.558752	1.15017	29.0649	2.80247	-0.21061	-0.16867	-2.10801	-0.497495	1	9	0.0100621	0.0087484	0	-5.35024e-05	0.759951	-0.422374	0.86944	-29.0649	-497.495	895.111	1024.07	-119.065	0.0000000E+000	0.0000000E+000	0.0000000E+000	119.065	0.0000000E+000	0.0000000E+000	0.0000000E+000	-119.065	0.0000000E+000	0.0000000E+000	0.0000000E+000	29.0649	0.0000000E+000	0.0000000E+000	0.0000000E+000	-29.0649	-1.79923	-29.0649	-2.56517e-05
91291.2	0.974665	-0.213686	0.997814	12.3659	3.36148	-0.210545	-0.1669	-8.15858	-0.37417	1	9	0.0100258	0.0100478	0	-9.90262e-05	0.978939	-0.214624	1.00219	-12.3659	-374.17	1706.66	1747.2	-102.366	0.0000000E+000	0.0000000E+000	0.0000000E+000	102.366	0.0000000E+000	0.0000000E+000	0.0000000E+000	-102.366	0.0000000E+000	0.0000000E+000	0.0000000E+000	12.3659	0.0000000E+000	0.0000000E+000	0.0000000E+000	-12.3659	-4.56119	-12.3659	-4.55238e-05
61674.2	0.967834	-0.0509942	0.969177	3.01607	3.92049	-0.210492	-0.162912	-50.6053	-0.140098	1	9	0.00976516	0.0100757	0	-0.000105454	1.03037	-0.0542894	1.0318	-3.01607	-140.098	2658.96	2662.65	-93.0161	0.0000000E+000	0.0000000E+000	0.0000000E+000	93.0161	0.0000000E+000	0.0000000E+000	0.0000000E+000	-93.0161	0.0000000E+000	0.0000000E+000	0.0000000E+000	3.01607	0.0000000E+000	0.0000000E+000	0.0000000E+000	-3.01607	-18.9793	-3.01607	-6.42741e-06
41669.8	0.988174	0.0444133	0.989171	-2.57342	4.34248	-0.210525	-0.167104	85.9975	0.173368	1	9	0.00997013	0.0100793	0	-0.000102799	1.00993	0.045391	1.01095	2.57342	173.368	3857.35	3861.25	-87.4266	0.0000000E+000	0.0000000E+000	0.0000000E+000	87.4266	0.0000000E+000	0.0000000E+000	0.0000000E+000	-87.4266	0.0000000E+000	0.0000000E+000	0.0000000E+000	-2.57342	0.0000000E+000	0.0000000E+000	0.0000000E+000	2.57342	22.2495	2.57342	2.65449e-06
28151	1.02025	0.162501	1.03311	-9.0498	4.90148	-0.210483	-0.164831	34.7913	0.860774	1	9	0.0103657	0.0100334	0	-0.000101355	0.955902	0.152252	0.967951	9.0498	860.774	5404.31	5472.43	-80.9502	0.0000000E+000	0.0000000E+000	0.0000000E+000	80.9502	0.0000000E+000	0.0000000E+000	0.0000000E+000	-80.9502	0.0000000E+000	0.0000000E+000	0.0000000E+000	-9.0498	0.0000000E+000	0.0000000E+000	0.0000000E+000	9.0498	6.27843	9.0498	1.44406e-06
19020.9	1.02141	0.274425	1.05763	-15.0387	5.46047	-0.21047	-0.156408	30.4905	2.0528	1	9	0.010034	0.00948728	0	-9.76889e-05	0.913129	0.245334	0.945512	15.0387	2052.8	7640.47	7911.43	-74.9613	0.0000000E+000	0.0000000E+000	0.0000000E+000	74.9613	0.0000000E+000	0.0000000E+000	0.0000000E+000	-74.9613	0.0000000E+000	0.0000000E+000	0.0000000E+000	-15.0387	0.0000000E+000	0.0000000E+000	0.0000000E+000	15.0387	3.72198	15.0387	3.66617e-06
12850.7	1.02782	0.395196	1.10118	-21.0317	5.88249	-0.210612	-0.163843	31.3386	4.03637	1	9	0.0102026	0.00926521	0	-0.000118965	0.847622	0.325911	0.90812	21.0317	4036.37	10497.7	11247	-68.9683	0.0000000E+000	0.0000000E+000	0.0000000E+000	68.9683	0.0000000E+000	0.0000000E+000	0.0000000E+000	-68.9683	0.0000000E+000	0.0000000E+000	0.0000000E+000	-21.0317	0.0000000E+000	0.0000000E+000	0.0000000E+000	21.0317	2.60078	21.0317	-2.12761e-05
8683.37	1.05917	0.585115	1.21004	-28.9176	6.18697	-0.210595	-0.187566	31.3249	7.32445	1	9	0.0101951	0.00842546	0	-0.000139471	0.723379	0.399616	0.82642	28.9176	7324.45	13258.6	15147.2	-61.0824	0.0000000E+000	0.0000000E+000	0.0000000E+000	61.0824	0.0000000E+000	0.0000000E+000	0.0000000E+000	-61.0824	0.0000000E+000	0.0000000E+000	0.0000000E+000	-28.9176	0.0000000E+000	0.0000000E+000	0.0000000E+000	28.9176	1.81018	28.9176	-2.05058e-05
5865.09	1.12848	0.837388	1.40523	-36.5773	6.60385	-0.210479	-0.205194	32.4055	11.5074	1	9	0.00981272	0.00698299	0	-0.000160311	0.571474	0.424063	0.711626	36.5773	11507.4	15507.5	19310.7	-53.4227	0.0000000E+000	0.0000000E+000	0.0000000E+000	53.4227	0.0000000E+000	0.0000000E+000	0.0000000E+000	-53.4227	0.0000000E+000	0.0000000E+000	0.0000000E+000	-36.5773	0.0000000E+000	0.0000000E+000	0.0000000E+000	36.5773	1.34762	36.5773	-2.08399e-05
3961.2	1.15111	1.15254	1.62892	-45.0355	7.06696	-0.210599	-0.163899	34.8609	17.4521	1	9	0.00903134	0.00554436	0	-0.000176802	0.433825	0.434364	0.613903	45.0355	17452.1	17430.5	24665.7	-44.9645	0.0000000E+000	0.0000000E+000	0.0000000E+000	44.9645	0.0000000E+000	0.0000000E+000	0.0000000E+000	-44.9645	0.0000000E+000	0.0000000E+000	0.0000000E+000	-45.0355	0.0000000E+000	0.0000000E+000	0.0000000E+000	45.0355	0.998761	45.0355	-1.64909e-05
2677.43	1.21405	1.71421	2.10058	-54.6928	7.74994	-0.21044	-0.17113	34.6766	23.0934	1	9	0.0101004	0.00480838	0	-0.000205565	0.275142	0.388495	0.476058	54.6928	23093.4	16355.3	28298.4	-35.3072	0.0000000E+000	0.0000000E+000	0.0000000E+000	35.3072	0.0000000E+000	0.0000000E+000	0.0000000E+000	-35.3072	0.0000000E+000	0.0000000E+000	0.0000000E+000	-54.6928	0.0000000E+000	0.0000000E+000	0.0000000E+000	54.6928	0.708227	54.6928	-2.87638e-05
1808.26	1.32568	2.3959	2.7382	-61.0437	8.21197	-0.210393	-0.166713	36.7358	28.1252	1	9	0.00976514	0.00356626	0	-0.00022408	0.17681	0.319549	0.365203	61.0437	28125.2	15562	32143.4	-28.9563	0.0000000E+000	0.0000000E+000	0.0000000E+000	28.9563	0.0000000E+000	0.0000000E+000	0.0000000E+000	-28.9563	0.0000000E+000	0.0000000E+000	0.0000000E+000	-61.0437	0.0000000E+000	0.0000000E+000	0.0000000E+000	61.0437	0.553312	61.0437	-1.85141e-05
1221.96	1.39493	3.54354	3.80822	-68.5127	8.92446	-0.210313	-0.0207665	36.7559	31.8243	1	10	0.0103143	0.00270844	0	-0.000241035	0.0961852	0.24434	0.26259	68.5127	31824.3	12527.8	34201.3	-21.4873	0.0000000E+000	0.0000000E+000	0.0000000E+000	21.4873	0.0000000E+000	0.0000000E+000	0.0000000E+000	-21.4873	0.0000000E+000	0.0000000E+000	0.0000000E+000	-68.5127	0.0000000E+000	0.0000000E+000	0.0000000E+000	68.5127	0.393654	68.5127	-1.69552e-05
825.264	1.51103	4.98203	5.20613	-73.1277	9.38569	-0.210561	-0.0207814	38.7098	35.4489	1	10	0.0097035	0.00186386	0	-0.000242916	0.0557496	0.183813	0.192081	73.1277	35448.9	10751.5	37043.5	-16.8723	0.0000000E+000	0.0000000E+000	0.0000000E+000	16.8723	0.0000000E+000	0.0000000E+000	0.0000000E+000	-16.8723	0.0000000E+000	0.0000000E+000	0.0000000E+000	-73.1277	0.0000000E+000	0.0000000E+000	0.0000000E+000	73.1277	0.303295	73.1277	-1.88123e-06
558.036	1.73056	7.37823	7.57846	-76.7999	9.84947	-0.210442	-0.0223081	38.655	36.6394	1	10	0.00970195	0.0012802	0	-0.000244251	0.0301318	0.128466	0.131953	76.7999	36639.4	8593.76	37633.7	-13.2001	0.0000000E+000	0.0000000E+000	0.0000000E+000	13.2001	0.0000000E+000	0.0000000E+000	0.0000000E+000	-13.2001	0.0000000E+000	0.0000000E+000	0.0000000E+000	-76.7999	0.0000000E+000	0.0000000E+000	0.0000000E+000	76.7999	0.23455	76.7999	-1.33465e-06
377.051	1.77439	10.6507	10.7975	-80.5415	10.3087	-0.210412	-0.0207106	39.6315	38.5612	1	10	0.00953719	0.000883276	0	-0.000246225	0.0152195	0.0913547	0.0926138	80.5415	38561.2	6424.2	39092.7	-9.45847	0.0000000E+000	0.0000000E+000	0.0000000E+000	9.45847	0.0000000E+000	0.0000000E+000	0.0000000E+000	-9.45847	0.0000000E+000	0.0000000E+000	0.0000000E+000	-80.5415	0.0000000E+000	0.0000000E+000	0.0000000E+000	80.5415	0.166597	80.5415	-1.97454e-06
254.755	2.1173	15.5862	15.7294	-82.264	10.7709	-0.210322	-0.0218216	40.0825	39.3563	1	10	0.00961407	0.000611216	0	-0.000249396	0.00855773	0.0629966	0.0635752	82.264	39356.2	5346.32	39717.7	-7.73595	0.0000000E+000	0.0000000E+000	0.0000000E+000	7.73595	0.0000000E+000	0.0000000E+000	0.0000000E+000	-7.73595	0.0000000E+000	0.0000000E+000	0.0000000E+000	-82.264	0.0000000E+000	0.0000000E+000	0.0000000E+000	82.264	0.135844	82.264	-3.17074e-06
172.037	2.75526	22.3232	22.4926	-82.9638	11.2274	-0.210586	-0.022489	41.4422	40.8203	1	10	0.00949448	0.000422116	0	-0.000251304	0.00544609	0.0441243	0.0444591	82.9638	40820.3	5038.29	41130.1	-7.03621	0.0000000E+000	0.0000000E+000	0.0000000E+000	7.03621	0.0000000E+000	0.0000000E+000	0.0000000E+000	-7.03621	0.0000000E+000	0.0000000E+000	0.0000000E+000	-82.9638	0.0000000E+000	0.0000000E+000	0.0000000E+000	82.9638	0.123426	82.9638	-1.90768e-06
116.227	4.22556	32.8647	33.1353	-82.6734	11.9336	-0.210331	-0.00265099	41.666	40.9884	1	11	0.00965113	0.000291265	0	-0.000253367	0.0038486	0.0299329	0.0301793	82.6734	40988.4	5270.05	41325.8	-7.32656	0.0000000E+000	0.0000000E+000	0.0000000E+000	7.32656	0.0000000E+000	0.0000000E+000	0.0000000E+000	-7.32656	0.0000000E+000	0.0000000E+000	0.0000000E+000	-82.6734	0.0000000E+000	0.0000000E+000	0.0000000E+000	82.6734	0.128574	82.6734	-2.06313e-06
78.5176	4.7352	48.4424	48.6733	-84.4171	12.4035	-0.210508	-0.00274308	41.8434	41.4474	1	11	0.00972338	0.000199768	0	-0.000253806	0.00199875	0.0204477	0.0205452	84.4171	41447.4	4051.45	41644.9	-5.58288	0.0000000E+000	0.0000000E+000	0.0000000E+000	5.58288	0.0000000E+000	0.0000000E+000	0.0000000E+000	-5.58288	0.0000000E+000	0.0000000E+000	0.0000000E+000	-84.4171	0.0000000E+000	0.0000000E+000	0.0000000E+000	84.4171	0.0977492	84.4171	-4.39621e-07
53.0478	5.79782	69.1676	69.4102	-85.2085	12.8801	-0.210479	-0.00283088	43.376	43.0733	1	11	0.00952145	0.000137177	0	-0.00025418	0.00120342	0.0143568	0.0144071	85.2085	43073.3	3610.53	43224.4	-4.79149	0.0000000E+000	0.0000000E+000	0.0000000E+000	4.79149	0.0000000E+000	0.0000000E+000	0.0000000E+000	-4.79149	0.0000000E+000	0.0000000E+000	0.0000000E+000	-85.2085	0.0000000E+000	0.0000000E+000	0.0000000E+000	85.2085	0.0838228	85.2085	-3.73343e-07
35.8372	8.57164	99.8413	100.209	-85.093	13.3321	-0.210371	-0.00279192	44.4812	44.1557	1	11	0.0095155	9.49569e-05	0	-0.000254594	0.000853599	0.00994261	0.00997919	85.093	44155.7	3790.88	44318.2	-4.90696	0.0000000E+000	0.0000000E+000	0.0000000E+000	4.90696	0.0000000E+000	0.0000000E+000	0.0000000E+000	-4.90696	0.0000000E+000	0.0000000E+000	0.0000000E+000	-85.093	0.0000000E+000	0.0000000E+000	0.0000000E+000	85.093	0.0858527	85.093	-4.14347e-07
24.2323	14.2139	144.931	145.626	-84.3987	13.8071	-0.210291	-0.00246384	45.3173	44.8855	1	11	0.00950616	6.52778e-05	0	-0.00025477	0.000670245	0.0068341	0.00686689	84.3987	44885.5	4402.09	45100.9	-5.6013	0.0000000E+000	0.0000000E+000	0.0000000E+000	5.6013	0.0000000E+000	0.0000000E+000	0.0000000E+000	-5.6013	0.0000000E+000	0.0000000E+000	0.0000000E+000	-84.3987	0.0000000E+000	0.0000000E+000	0.0000000E+000	84.3987	0.0980738	84.3987	-1.75976e-07
16.367	16.9391	207.435	208.125	-85.3316	14.469	-0.21044	2.63992e-05	46.8782	46.5676	1	12	0.00933761	4.48653e-05	0	-0.000255245	0.000391059	0.00478886	0.0048048	85.3316	46567.6	3802.72	46722.6	-4.66842	0.0000000E+000	0.0000000E+000	0.0000000E+000	4.66842	0.0000000E+000	0.0000000E+000	0.0000000E+000	-4.66842	0.0000000E+000	0.0000000E+000	0.0000000E+000	-85.3316	0.0000000E+000	0.0000000E+000	0.0000000E+000	85.3316	0.0816601	85.3316	-4.74683e-07
11.0502	28.9087	301.475	302.858	-84.5226	14.8927	-0.21046	-0.00042114	47.7747	47.3394	1	12	0.00930824	3.07346e-05	0	-0.000255457	0.000315174	0.0032868	0.00330187	84.5226	47339.4	4539.41	47556.5	-5.47739	0.0000000E+000	0.0000000E+000	0.0000000E+000	5.47739	0.0000000E+000	0.0000000E+000	0.0000000E+000	-5.47739	0.0000000E+000	0.0000000E+000	0.0000000E+000	-84.5226	0.0000000E+000	0.0000000E+000	0.0000000E+000	84.5226	0.0958908	84.5226	-2.12057e-07
7.46893	57.5002	438.752	442.504	-82.5337	15.2186	-0.210451	-0.000799625	48.5672	47.7471	1	12	0.0095391	2.15571e-05	0	-0.000255239	0.000293654	0.00224071	0.00225987	82.5337	47747.1	6257.44	48155.4	-7.46629	0.0000000E+000	0.0000000E+000	0.0000000E+000	7.46629	0.0000000E+000	0.0000000E+000	0.0000000E+000	-7.46629	0.0000000E+000	0.0000000E+000	0.0000000E+000	-82.5337	0.0000000E+000	0.0000000E+000	0.0000000E+000	82.5337	0.131054	82.5337	2.17288e-07
5.04683	79.0324	602.53	607.691	-82.5273	15.6819	-0.210474	-0.000590561	52.3387	51.4534	1	12	0.00937971	1.5435e-05	0	-0.000255437	0.000214013	0.0016316	0.00164557	82.5273	51453.4	6749.03	51894.2	-7.47269	0.0000000E+000	0.0000000E+000	0.0000000E+000	7.47269	0.0000000E+000	0.0000000E+000	0.0000000E+000	-7.47269	0.0000000E+000	0.0000000E+000	0.0000000E+000	-82.5273	0.0000000E+000	0.0000000E+000	0.0000000E+000	82.5273	0.131168	82.5273	-1.97605e-07
3.4086	83.2051	931.616	935.325	-84.8963	16.6812	-0.210575	-0.000288153	50.1196	49.723	1	13	0.00946546	1.012e-05	0	-0.000255442	9.51097e-05	0.00106491	0.00106915	84.8963	49723	4440.89	49920.9	-5.10369	0.0000000E+000	0.0000000E+000	0.0000000E+000	5.10369	0.0000000E+000	0.0000000E+000	0.0000000E+000	-5.10369	0.0000000E+000	0.0000000E+000	0.0000000E+000	-84.8963	0.0000000E+000	0.0000000E+000	0.0000000E+000	84.8963	0.0893126	84.8963	-4.53838e-09