File: Data_1mg/2022_01_25 Co30Ni60Fe10Nx 1mg  ref309 elect1 cv and bulk_01_CV_C02.mpt
EC-Lab ASCII FILE
Nb header lines : 57

Cyclic Voltammetry

Run on channel : 2 (SN 12477)
User :
CE vs. WE compliance from -10 V to 10 V
Electrode connection : standard
Potential control : Ewe
Ewe ctrl range : min = -2.50 V, max = 2.50 V
Safety Limits :
	Do not start on E overload
Acquisition started on : 01/25/2023 16:18:45.043
Loaded Setting File :  C:\Users\grupogalan\Documents\EC-Lab\Data\Scott\_cyclic_pause_cp2hr.mps
Saved on :
	File : 2022_01_25 Co30Ni60Fe10Nx 1mg  ref309 elect1 cv and bulk_01_CV_C02.mpr
	Directory : C:\Users\grupogalan\Documents\EC-Lab\Data\Scott\
	Host : 169.254.104.159
Device : VSP (SN 1176)
Address : USB
EC-Lab for windows v11.46 (software)
Internet server v11.40 (firmware)
Command interpretor v11.40 (firmware)
Electrode material :
Initial state :
Electrolyte :
Comments :
Electrode surface area : 0.000 cm²
Characteristic mass : 0.001 g
Equivalent Weight : 0.000 g/eq.
Density : 0.000 g/cm3
Volume (V) : 0.001 cm³
Cycle Definition : Charge/Discharge alternance
Ei (V)              0.000
vs.                 Eoc
dE/dt               10.000
dE/dt unit          mV/s
E1 (V)              1.000
vs.                 Ref
Step percent        50
N                   10
E range min (V)     -2.500
E range max (V)     2.500
I Range             Auto
I Range min         Unset
I Range max         Unset
I Range init        Unset
Bandwidth           5
E2 (V)              0.000
vs.                 Ref
nc cycles           2
Reverse Scan        1
Ef (V)              0.000
vs.                 Eoc

mode	ox/red	error	control changes	counter inc.	time/s	control/V	Ewe/V	<I>/mA	cycle number	(Q-Qo)/C	I Range	P/W
2	0	0	1	0	0.000000000000000E+000	0.346451	0.348005	-0.00517076	1	0.0000000E+000	13	-1.79945e-06
2	1	0	1	0	0.8551	0.355002	0.354632	0.00923626	1	5.24957e-06	13	3.27547e-06
2	1	0	1	0	1.7554	0.364005	0.364102	0.0149464	1	1.67255e-05	13	5.44201e-06
2	1	0	0	0	2.6556	0.373007	0.372438	0.019793	1	3.29171e-05	13	7.37164e-06
2	1	0	1	0	3.5558	0.382009	0.380825	0.0245521	1	5.34314e-05	13	9.35005e-06
2	1	0	0	0	4.456	0.391011	0.391865	0.0292521	1	7.8165e-05	13	1.14629e-05
2	1	0	1	0	5.3562	0.400013	0.400453	0.0340045	1	0.00010714	13	1.36172e-05
2	1	0	0	0	6.2564	0.409015	0.407988	0.0387995	1	0.000140521	13	1.58297e-05
2	1	0	1	0	7.1566	0.418017	0.417163	0.0439474	1	0.000178427	13	1.83332e-05
2	1	0	0	0	8.0568	0.427019	0.42679	0.0491925	1	0.000220881	13	2.09949e-05
2	1	0	1	0	8.957	0.436022	0.436204	0.0542522	1	0.000268012	13	2.3665e-05
2	1	0	0	0	9.8572	0.445024	0.443259	0.0593647	1	0.000319915	13	2.63139e-05
2	1	0	1	0	10.7574	0.454026	0.454037	0.0646998	1	0.000376578	13	2.93761e-05
2	1	0	0	0	11.6576	0.463028	0.462703	0.0696693	1	0.000437899	13	3.22361e-05
2	1	0	1	0	12.5578	0.47203	0.471003	0.0745993	1	0.000503752	13	3.51364e-05
2	1	0	0	0	13.458	0.481032	0.481852	0.0794248	1	0.000573979	13	3.8271e-05
2	1	0	1	0	14.3582	0.490034	0.490015	0.0839578	1	0.000648391	13	4.11406e-05
2	1	0	1	0	15.2585	0.499037	0.498946	0.0883097	1	0.000726814	13	4.40617e-05
2	1	0	1	0	16.1587	0.508039	0.506891	0.0925957	1	0.000809089	13	4.6936e-05
2	1	0	1	0	17.089	0.517341	0.516771	0.0970994	1	0.00089851	12	5.01782e-05
2	1	0	0	0	17.9892	0.526343	0.52609	0.101248	1	0.000988438	12	5.32656e-05
2	1	0	1	0	18.8894	0.535345	0.536953	0.105252	1	0.00108202	12	5.65154e-05
2	1	0	0	0	19.7896	0.544347	0.544529	0.109392	1	0.00117934	12	5.95671e-05
2	1	0	1	0	20.6898	0.553349	0.553308	0.113779	1	0.00128055	12	6.29548e-05
2	1	0	0	0	21.59	0.562351	0.561107	0.118786	1	0.00138593	12	6.66519e-05
2	1	0	1	0	22.4902	0.571353	0.571897	0.124495	1	0.00149613	12	7.11984e-05
2	1	0	0	0	23.3904	0.580355	0.580549	0.131799	1	0.0016122	12	7.65158e-05
2	1	0	1	0	24.2906	0.589357	0.588797	0.141762	1	0.00173594	12	8.34687e-05
2	1	0	0	0	25.1908	0.59836	0.598751	0.155063	1	0.00187009	12	9.2844e-05
2	1	0	1	0	26.091	0.607362	0.60907	0.174138	1	0.00201871	12	0.000106062
2	1	0	0	0	26.9912	0.616364	0.617125	0.199286	1	0.00218718	12	0.000122985
2	1	0	1	0	27.8914	0.625366	0.624641	0.23344	1	0.00238224	12	0.000145816
2	1	0	0	0	28.7916	0.634368	0.631229	0.276945	1	0.00261225	12	0.000174816
2	1	0	1	0	29.6918	0.64337	0.642825	0.332162	1	0.00288671	12	0.000213522
2	1	0	1	0	30.5921	0.652373	0.652166	0.399624	1	0.00321639	12	0.000260621
2	1	0	1	0	31.4923	0.661374	0.659312	0.481425	1	0.00361321	12	0.000317409
2	1	0	1	0	32.3925	0.670376	0.671679	0.57912	1	0.00409042	12	0.000388983
2	1	0	0	0	33.2928	0.679379	0.679338	0.69326	1	0.00466274	12	0.000470958
2	1	0	1	0	34.193	0.688381	0.68905	0.826121	1	0.00534636	12	0.000569239
2	1	0	0	0	35.0932	0.697383	0.697014	0.980219	1	0.0061592	12	0.000683227
2	1	0	1	0	36.0234	0.706685	0.706764	1.16412	1	0.00715681	11	0.00082276
2	1	0	0	0	36.9236	0.715687	0.714105	1.36715	1	0.00829622	11	0.00097629
2	1	0	1	0	37.8238	0.724689	0.724714	1.59693	1	0.00962973	11	0.00115732
2	1	0	0	0	38.724	0.733691	0.735354	1.85649	1	0.0111829	11	0.00136518
2	1	0	1	0	39.6242	0.742694	0.743065	2.14853	1	0.0129844	11	0.00159649
2	1	0	0	0	40.5244	0.751696	0.751569	2.47565	1	0.0150652	11	0.00186062
2	1	0	1	0	41.4246	0.760698	0.759241	2.84547	1	0.0174598	11	0.00216039
2	1	0	0	0	42.3248	0.7697	0.768376	3.25882	1	0.0202058	11	0.002504
2	1	0	1	0	43.225	0.778702	0.778458	3.71683	1	0.0233442	11	0.0028934
2	1	0	0	0	44.1252	0.787704	0.787477	4.23069	1	0.0269197	11	0.00333157
2	1	0	1	0	45.0254	0.796706	0.79812	4.79485	1	0.0309798	11	0.00382686
2	1	0	1	0	45.9257	0.805709	0.806943	5.41705	1	0.0355745	11	0.00437125
2	1	0	1	0	46.8259	0.81471	0.814555	6.0953	1	0.0407552	11	0.00496496
2	1	0	1	0	47.7262	0.823712	0.825562	6.83398	1	0.0465739	11	0.00564187
2	1	0	0	0	48.6264	0.832715	0.831976	7.62643	1	0.0530813	11	0.006345
2	1	0	1	0	49.5266	0.841717	0.839814	8.47444	1	0.0603301	11	0.00711695
2	1	0	0	0	50.4268	0.850719	0.848983	9.3827	1	0.068368	11	0.00796575
2	1	0	1	0	51.327	0.859721	0.859277	10.3352	1	0.0772442	11	0.00888076
2	1	0	0	0	52.2572	0.869023	0.869189	11.3837	1	0.087352	10	0.00989458
2	1	0	1	0	53.1574	0.878025	0.878467	12.441	1	0.0980836	10	0.010929
2	1	0	0	0	54.0576	0.887027	0.885181	13.5559	1	0.109791	10	0.0119994
2	1	0	1	0	54.9578	0.896029	0.895366	14.7087	1	0.122512	10	0.0131697
2	1	0	0	0	55.858	0.905032	0.903977	15.8869	1	0.136285	10	0.0143614
2	1	0	1	0	56.7582	0.914034	0.913465	17.1266	1	0.151148	10	0.0156445
2	1	0	0	0	57.6584	0.923036	0.921244	18.3804	1	0.167128	10	0.0169328
2	1	0	1	0	58.5586	0.932038	0.932696	19.6294	1	0.184231	10	0.0183082
2	1	0	0	0	59.4588	0.94104	0.940724	20.9298	1	0.20248	10	0.0196892
2	1	0	1	0	60.359	0.950042	0.947324	22.1797	1	0.221891	10	0.0210113
2	1	0	1	0	61.2593	0.959044	0.95809	23.4789	1	0.24244	10	0.0224949
2	1	0	0	0	62.1596	0.968046	0.967589	24.7347	1	0.264165	10	0.023933
2	1	0	1	0	63.0598	0.977048	0.975781	25.9905	1	0.287022	10	0.025361
2	1	0	0	0	63.96	0.98605	0.985321	27.1948	1	0.310965	10	0.0267956
2	1	0	1	0	64.8602	0.995053	0.995787	28.3221	1	0.335955	10	0.0282028
2	1	0	0	0	65.6108	0.997453	0.998002	28.2042	1	0.357408	10	0.0281479
2	1	0	1	0	66.511	0.988451	0.988715	25.9578	1	0.381753	10	0.0256649
2	1	0	0	0	67.4112	0.979449	0.977883	23.9826	1	0.404205	10	0.0234522
2	1	0	1	0	68.3114	0.970447	0.969803	22.186	1	0.424959	10	0.021516
2	1	0	0	0	69.2116	0.961445	0.959809	20.5675	1	0.444186	10	0.0197409
2	1	0	1	0	70.1118	0.952443	0.950432	19.0481	1	0.462	10	0.0181039
2	1	0	0	0	71.012	0.943441	0.943957	17.6822	1	0.478521	10	0.0166912
2	1	0	1	0	71.9122	0.934439	0.935914	16.4057	1	0.493839	10	0.0153544
2	1	0	1	0	72.8125	0.925436	0.924047	15.2046	1	0.508058	10	0.0140498
2	1	0	1	0	73.7127	0.916435	0.915701	14.1038	1	0.521233	10	0.0129149
2	1	0	1	0	74.613	0.907432	0.90774	13.0235	1	0.533432	10	0.011822
2	1	0	0	0	75.5132	0.89843	0.898717	12.0424	1	0.544709	10	0.0108227
2	1	0	1	0	76.4134	0.889428	0.889032	11.1189	1	0.555127	10	0.00988505
2	1	0	0	0	77.3136	0.880426	0.881414	10.2476	1	0.564732	10	0.00903235
2	1	0	1	0	78.2138	0.871424	0.869101	9.41838	1	0.573573	10	0.00818552
2	1	0	0	0	79.114	0.862422	0.861093	8.64331	1	0.581693	10	0.00744269
2	1	0	1	0	80.0142	0.853419	0.852631	7.91809	1	0.589138	10	0.0067512
2	1	0	0	0	80.9144	0.844417	0.842483	7.22501	1	0.595947	10	0.00608695
2	1	0	1	0	81.8146	0.835415	0.834847	6.58657	1	0.602161	10	0.00549878
2	1	0	0	0	82.7148	0.826413	0.827041	5.98238	1	0.607813	10	0.00494768
2	1	0	1	0	83.615	0.817411	0.816178	5.42741	1	0.61294	10	0.00442973
2	1	0	0	0	84.5152	0.808409	0.808156	4.89493	1	0.617578	10	0.00395586
2	1	0	1	0	85.4454	0.799107	0.798807	4.38334	1	0.621892	11	0.00350144
2	1	0	0	0	86.3456	0.790105	0.790209	3.9349	1	0.625631	11	0.0031094
2	1	0	1	0	87.2459	0.781102	0.781179	3.52176	1	0.628983	11	0.00275112
2	1	0	1	0	88.1461	0.7721	0.770963	3.14086	1	0.631976	11	0.00242149
2	1	0	1	0	89.0463	0.763099	0.761284	2.79407	1	0.634643	11	0.00212708
2	1	0	1	0	89.9466	0.754096	0.754026	2.47431	1	0.637011	11	0.0018657
2	1	0	0	0	90.8468	0.745094	0.743413	2.18786	1	0.639105	11	0.00162649
2	1	0	1	0	91.747	0.736092	0.735372	1.92156	1	0.640951	11	0.00141306
2	1	0	0	0	92.6472	0.72709	0.726441	1.68629	1	0.642572	11	0.00122499
2	1	0	1	0	93.5474	0.718088	0.717107	1.47109	1	0.643989	11	0.00105493
2	1	0	0	0	94.4476	0.709086	0.708375	1.27612	1	0.645223	11	0.000903974
2	1	0	1	0	95.3478	0.700083	0.700283	1.10116	1	0.646291	11	0.000771123
2	1	0	0	0	96.248	0.691081	0.690382	0.945897	1	0.647211	11	0.00065303
2	1	0	1	0	97.1482	0.682079	0.681878	0.807176	1	0.647997	11	0.000550396
2	1	0	0	0	98.0484	0.673077	0.672836	0.682162	1	0.648665	11	0.000458983
2	1	0	1	0	98.9486	0.664075	0.664051	0.573723	1	0.649228	11	0.000380981
2	1	0	0	0	99.8488	0.655073	0.655592	0.476465	1	0.649699	11	0.000312366
2	1	0	1	0	100.779	0.645771	0.645218	0.388181	1	0.650098	12	0.000250462
2	1	0	0	0	101.679	0.636769	0.63516	0.315624	1	0.650413	12	0.000200471
2	1	0	1	0	102.579	0.627766	0.626404	0.253119	1	0.650668	12	0.000158555
2	1	0	1	0	103.48	0.618765	0.617424	0.200045	1	0.65087	12	0.000123513
2	1	0	0	0	104.38	0.609762	0.60733	0.155622	1	0.651029	12	9.45138e-05
2	1	0	1	0	105.28	0.60076	0.600328	0.118121	1	0.651151	12	7.09111e-05
2	1	0	0	0	106.18	0.591758	0.591567	0.0873884	1	0.651242	12	5.16961e-05
2	1	0	1	0	107.081	0.582756	0.582648	0.0624209	1	0.651308	12	3.63694e-05
2	1	0	0	0	107.981	0.573754	0.574472	0.0419169	1	0.651354	12	2.40801e-05
2	1	0	1	0	108.881	0.564752	0.565156	0.02571	1	0.651383	12	1.45302e-05
2	1	0	0	0	109.781	0.55575	0.554525	0.0127452	1	0.651399	12	7.06753e-06
2	1	0	1	0	110.681	0.546748	0.546887	0.00235502	1	0.651405	12	1.28793e-06
2	1	0	0	0	111.582	0.537745	0.537576	-0.00625656	1	0.651402	12	-3.36338e-06
2	1	0	1	0	112.482	0.528743	0.529808	-0.0127468	1	0.651393	12	-6.75335e-06
2	0	0	0	0	113.382	0.519741	0.520599	-0.0184697	1	0.651378	12	-9.61533e-06
2	0	0	1	0	114.282	0.510739	0.510538	-0.0232177	1	0.651358	12	-1.18535e-05
2	0	0	0	0	115.182	0.501737	0.502619	-0.0271449	1	0.651335	12	-1.36435e-05
2	0	0	1	0	116.083	0.492735	0.48986	-0.0302294	1	0.651308	12	-1.48082e-05
2	0	0	0	0	116.983	0.483733	0.484194	-0.033501	1	0.651278	12	-1.6221e-05
2	0	0	1	0	117.883	0.474731	0.472685	-0.0360327	1	0.651246	12	-1.70321e-05
2	0	0	1	0	118.783	0.465728	0.465566	-0.0381463	1	0.651212	12	-1.77596e-05
2	0	0	1	0	119.683	0.456727	0.456464	-0.0405003	1	0.651176	12	-1.84869e-05
2	0	0	1	0	120.584	0.447724	0.447307	-0.0425388	1	0.651138	12	-1.90279e-05
2	0	0	0	0	121.484	0.438722	0.43726	-0.0442808	1	0.651099	12	-1.93622e-05
2	0	0	1	0	122.384	0.42972	0.427833	-0.0458971	1	0.651058	12	-1.96363e-05
2	0	0	0	0	123.284	0.420718	0.419502	-0.0478551	1	0.651015	12	-2.00753e-05
2	0	0	1	0	124.185	0.411716	0.411294	-0.0496491	1	0.650971	12	-2.04204e-05
2	0	0	0	0	125.085	0.402714	0.402941	-0.0513643	1	0.650925	12	-2.06968e-05
2	0	0	1	0	125.985	0.393712	0.395184	-0.0531455	1	0.650877	12	-2.10023e-05
2	0	0	0	0	126.885	0.38471	0.385117	-0.0552032	1	0.650828	12	-2.12597e-05
2	0	0	1	0	127.785	0.375707	0.375108	-0.0572945	1	0.650777	12	-2.14916e-05
2	0	0	0	0	128.686	0.366705	0.365949	-0.0592491	1	0.650724	12	-2.16822e-05
2	0	0	1	0	129.586	0.357703	0.357865	-0.0612692	1	0.650669	12	-2.19261e-05
2	0	0	0	0	130.486	0.348701	0.347806	-0.0633831	1	0.650612	12	-2.2045e-05
2	0	0	1	0	131.386	0.339699	0.340496	-0.0653794	1	0.650553	12	-2.22614e-05
2	0	0	0	0	132.286	0.330697	0.330968	-0.0677116	1	0.650493	12	-2.24103e-05
2	0	0	1	0	133.187	0.321695	0.319885	-0.0695242	1	0.650431	12	-2.22398e-05
2	0	0	1	0	134.087	0.312692	0.311943	-0.0710391	1	0.650367	12	-2.21602e-05
2	0	0	1	0	134.987	0.303691	0.304166	-0.0719382	1	0.650302	12	-2.18812e-05
2	0	0	1	0	135.887	0.294688	0.293751	-0.0718572	1	0.650236	12	-2.11081e-05
2	0	0	0	0	136.788	0.285686	0.284977	-0.0708079	1	0.650172	12	-2.01786e-05
2	0	0	1	0	137.688	0.276684	0.2758	-0.0688626	1	0.650108	12	-1.89923e-05
2	0	0	0	0	138.588	0.267682	0.267548	-0.0660099	1	0.650047	12	-1.76608e-05
2	0	0	1	0	139.488	0.25868	0.258585	-0.0631695	1	0.649989	12	-1.63347e-05
2	0	0	0	0	140.388	0.249678	0.249375	-0.0599304	1	0.649933	12	-1.49451e-05
2	0	0	1	0	141.289	0.240676	0.239178	-0.0568456	1	0.64988	12	-1.35962e-05
2	0	0	0	0	142.189	0.231674	0.230279	-0.0540196	1	0.64983	12	-1.24396e-05
2	0	0	1	0	143.089	0.222672	0.22394	-0.051896	1	0.649782	12	-1.16216e-05
2	0	0	0	0	143.989	0.213669	0.214255	-0.0494204	1	0.649736	12	-1.05886e-05
2	0	0	1	0	144.889	0.204667	0.202911	-0.0473596	1	0.649692	12	-9.60979e-06
2	0	0	0	0	145.79	0.195665	0.196345	-0.0455349	1	0.649649	12	-8.94057e-06
2	0	0	1	0	146.69	0.186663	0.186461	-0.0440293	1	0.649609	12	-8.20973e-06
2	0	0	0	0	147.59	0.177661	0.176385	-0.0426072	1	0.649569	12	-7.51527e-06
2	0	0	1	0	148.49	0.168659	0.168263	-0.0414865	1	0.649531	12	-6.98066e-06
2	0	0	0	0	149.39	0.159657	0.159443	-0.0402861	1	0.649494	12	-6.42333e-06
2	0	0	1	0	150.291	0.150655	0.150682	-0.0394473	1	0.649458	12	-5.944e-06
2	0	0	1	0	151.191	0.141653	0.141703	-0.0383822	1	0.649422	12	-5.43886e-06
2	0	0	0	0	152.091	0.13265	0.132626	-0.0377652	1	0.649387	12	-5.00866e-06
2	0	0	1	0	152.991	0.123648	0.122967	-0.0370173	1	0.649353	12	-4.5519e-06
2	0	0	0	0	153.892	0.114646	0.116263	-0.0362646	1	0.64932	12	-4.21623e-06
2	0	0	1	0	154.792	0.105644	0.10632	-0.0357715	1	0.649288	12	-3.80323e-06
2	0	0	0	0	155.692	0.096642	0.0969562	-0.0347504	1	0.649255	12	-3.36927e-06
2	0	0	1	0	156.592	0.0876398	0.0873517	-0.0346166	1	0.649224	12	-3.02381e-06
2	0	0	0	0	157.492	0.0786377	0.0775805	-0.0336435	1	0.649193	12	-2.61008e-06
2	0	0	1	0	158.393	0.0696356	0.0706924	-0.0332083	1	0.649162	12	-2.34757e-06
2	0	0	0	0	159.293	0.0606335	0.0603443	-0.0326965	1	0.649132	12	-1.97304e-06
2	0	0	1	0	160.193	0.0516314	0.0521186	-0.0323435	1	0.649103	12	-1.6857e-06
2	0	0	0	0	161.093	0.0426293	0.0429202	-0.0318733	1	0.649074	12	-1.36801e-06
2	0	0	1	0	161.993	0.0336272	0.0328543	-0.0314472	1	0.649045	12	-1.03318e-06
2	0	0	0	0	162.894	0.0246251	0.0243188	-0.0310702	1	0.649016	12	-7.55592e-07
2	0	0	1	0	163.794	0.0156229	0.0154355	-0.0306929	1	0.648988	12	-4.73761e-07
2	0	0	0	0	164.694	0.00662084	0.00630721	-0.0303838	1	0.64896	12	-1.91637e-07
2	0	0	0	1	165.415	0.000519406	0.000476574	-0.0299579	1	0.648938	12	-1.42772e-08
2	0	0	1	1	166.315	0.00952152	0.0105171	-0.0274979	1	0.648912	12	-2.89198e-07
2	0	0	0	1	167.215	0.0185236	0.0185402	-0.0255072	1	0.648889	12	-4.72908e-07
2	0	0	1	1	168.115	0.0275257	0.0276165	-0.0239639	1	0.648867	12	-6.61801e-07
2	0	0	0	1	169.016	0.0365279	0.0373314	-0.022681	1	0.648846	12	-8.46716e-07
2	0	0	1	1	169.916	0.04553	0.0450066	-0.0214544	1	0.648827	12	-9.6559e-07
2	0	0	0	1	170.816	0.0545321	0.0531421	-0.0201045	1	0.648808	12	-1.0684e-06
2	0	0	1	1	171.716	0.0635342	0.0632845	-0.0194309	1	0.648791	12	-1.22968e-06
2	0	0	0	1	172.616	0.0725363	0.0722155	-0.0184237	1	0.648774	12	-1.33048e-06
2	0	0	1	1	173.517	0.0815384	0.0803277	-0.0176983	1	0.648758	12	-1.42166e-06
2	0	0	1	1	174.417	0.0905414	0.09018	-0.0169452	1	0.648743	12	-1.52812e-06
2	0	0	1	1	175.317	0.0995424	0.0994677	-0.0159747	1	0.648728	12	-1.58897e-06
2	0	0	1	1	176.217	0.108545	0.10769	-0.0153636	1	0.648715	12	-1.65451e-06
2	0	0	0	1	177.118	0.117547	0.116845	-0.0147124	1	0.648701	12	-1.71907e-06
2	0	0	1	1	178.018	0.126549	0.126042	-0.0143234	1	0.648689	12	-1.80534e-06
2	0	0	0	1	178.918	0.135551	0.134792	-0.0134673	1	0.648677	12	-1.81529e-06
2	0	0	1	1	179.818	0.144553	0.144093	-0.0128749	1	0.648665	12	-1.85519e-06
2	0	0	0	1	180.718	0.153555	0.153369	-0.0123035	1	0.648654	12	-1.88698e-06
2	0	0	1	1	181.619	0.162557	0.162691	-0.0118018	1	0.648644	12	-1.92003e-06
2	0	0	0	1	182.519	0.17156	0.171249	-0.0113126	1	0.648634	12	-1.93728e-06
2	0	0	1	1	183.419	0.180562	0.180879	-0.0106386	1	0.648624	12	-1.9243e-06
2	0	0	0	1	184.319	0.189564	0.189111	-0.0103452	1	0.648615	12	-1.95639e-06
2	0	0	1	1	185.219	0.198566	0.19797	-0.00960595	1	0.648607	12	-1.90169e-06
2	0	0	0	1	186.12	0.207568	0.206942	-0.00899042	1	0.648599	12	-1.86049e-06
2	0	0	1	1	187.02	0.21657	0.217228	-0.0085263	1	0.648591	12	-1.85215e-06
2	0	0	0	1	187.92	0.225572	0.224962	-0.00797208	1	0.648584	12	-1.79341e-06
2	0	0	1	1	188.82	0.234574	0.234285	-0.00724947	1	0.648578	12	-1.69844e-06
2	0	0	0	1	189.72	0.243576	0.242194	-0.00665795	1	0.648572	12	-1.61252e-06
2	0	0	1	1	190.621	0.252578	0.25212	-0.00592147	1	0.648567	12	-1.49292e-06
2	1	0	1	1	191.521	0.261581	0.260759	-0.00512193	1	0.648562	12	-1.33559e-06
2	1	0	0	1	192.421	0.270583	0.269987	-0.00436956	1	0.648558	12	-1.17973e-06
2	1	0	1	1	193.321	0.279585	0.279153	-0.00341239	1	0.648555	12	-9.52579e-07
2	1	0	0	1	194.222	0.288587	0.288164	-0.00251843	1	0.648553	12	-7.25721e-07
2	0	0	1	1	195.122	0.297589	0.297074	-0.00140203	1	0.648551	12	-4.16508e-07
2	0	0	0	1	196.022	0.306591	0.305615	-0.00022279	1	0.648551	12	-6.80879e-08
2	0	0	1	1	196.922	0.315593	0.315628	0.00135509	1	0.648552	12	4.27705e-07
2	0	0	0	1	197.822	0.324595	0.325784	0.00288821	1	0.648554	12	9.40932e-07
2	0	0	1	1	198.723	0.333598	0.333512	0.00480353	1	0.648558	12	1.60203e-06
2	0	0	0	1	199.623	0.3426	0.341761	0.00740166	1	0.648564	12	2.5296e-06
2	1	0	1	1	200.343	0.349801	0.349058	0.00990589	2	0.648571	12	3.45773e-06
2	1	0	0	1	201.243	0.358803	0.357881	0.0135954	2	0.648582	12	4.86551e-06
2	1	0	1	1	202.143	0.367806	0.366902	0.0176379	2	0.648596	12	6.47136e-06
2	1	0	0	1	203.044	0.376808	0.377237	0.0226181	2	0.648615	12	8.53239e-06
2	1	0	1	1	203.944	0.38581	0.385594	0.0284338	2	0.648638	12	1.09639e-05
2	1	0	0	1	204.844	0.394812	0.393342	0.0348873	2	0.648667	12	1.37226e-05
2	1	0	1	1	205.744	0.403814	0.403823	0.0421869	2	0.648702	12	1.70361e-05
2	1	0	0	1	206.644	0.412816	0.412826	0.0500173	2	0.648744	12	2.06484e-05
2	1	0	1	1	207.545	0.421818	0.42165	0.0574585	2	0.648793	12	2.42274e-05
2	1	0	0	1	208.445	0.43082	0.431951	0.0639922	2	0.648848	12	2.76415e-05
2	1	0	1	1	209.345	0.439822	0.439188	0.070465	2	0.648909	12	3.09474e-05
2	1	0	1	1	210.245	0.448825	0.448352	0.0765465	2	0.648976	12	3.43198e-05
2	1	0	0	1	211.146	0.457827	0.455946	0.0824657	2	0.649048	12	3.75999e-05
2	1	0	1	1	212.046	0.466829	0.465796	0.0877206	2	0.649125	12	4.08599e-05
2	1	0	0	1	212.946	0.475831	0.475919	0.0925218	2	0.649207	12	4.40329e-05
2	1	0	1	1	213.846	0.484833	0.484227	0.0971328	2	0.649293	12	4.70344e-05
2	1	0	0	1	214.746	0.493835	0.492974	0.101654	2	0.649383	12	5.01127e-05
2	1	0	1	1	215.647	0.502837	0.502017	0.105656	2	0.649477	12	5.30413e-05
2	1	0	0	1	216.547	0.511839	0.510489	0.109299	2	0.649574	12	5.57959e-05
2	1	0	1	1	217.447	0.520841	0.519888	0.112478	2	0.649675	12	5.84761e-05
2	1	0	0	1	218.347	0.529844	0.530903	0.115467	2	0.649778	12	6.13018e-05
2	1	0	1	1	219.247	0.538846	0.538573	0.118358	2	0.649884	12	6.37442e-05
2	1	0	0	1	220.148	0.547848	0.548409	0.121162	2	0.649993	12	6.6446e-05
2	1	0	1	1	221.048	0.55685	0.556095	0.124208	2	0.650104	12	6.90713e-05
2	1	0	0	1	221.948	0.565852	0.566106	0.127465	2	0.650218	12	7.21586e-05
2	1	0	1	1	222.848	0.574854	0.57467	0.131565	2	0.650335	12	7.56067e-05
2	1	0	0	1	223.748	0.583856	0.583763	0.137388	2	0.650457	12	8.02019e-05
2	1	0	1	1	224.649	0.592859	0.5929	0.146286	2	0.650585	12	8.67327e-05
2	1	0	1	1	225.549	0.60186	0.600694	0.159096	2	0.650723	12	9.5568e-05
2	1	0	0	1	226.449	0.610863	0.610629	0.177925	2	0.650875	12	0.000108646
2	1	0	1	1	227.349	0.619865	0.619949	0.204392	2	0.651048	12	0.000126713
2	1	0	0	1	228.25	0.628867	0.628844	0.241157	2	0.651248	12	0.00015165
2	1	0	1	1	229.15	0.637869	0.637466	0.289654	2	0.651487	12	0.000184644
2	1	0	0	1	230.05	0.646871	0.647293	0.3513	2	0.651776	12	0.000227394
2	1	0	1	1	230.95	0.655873	0.655391	0.427588	2	0.652126	12	0.000280238
2	1	0	0	1	231.85	0.664875	0.664202	0.520445	2	0.652553	12	0.00034568
2	1	0	1	1	232.751	0.673877	0.673398	0.631276	2	0.653071	12	0.0004251
2	1	0	0	1	233.651	0.68288	0.682716	0.761977	2	0.653698	12	0.000520214
2	1	0	1	1	234.551	0.691882	0.691343	0.914277	2	0.654452	12	0.000632078
2	1	0	0	1	235.481	0.701184	0.701187	1.09721	2	0.655387	11	0.000769347
2	1	0	1	1	236.381	0.710186	0.709681	1.29726	2	0.656464	11	0.00092064
2	1	0	0	1	237.282	0.719188	0.717956	1.52436	2	0.657733	11	0.00109442
2	1	0	1	1	238.182	0.72819	0.728083	1.78008	2	0.65922	11	0.00129605
2	1	0	0	1	239.082	0.737192	0.737356	2.06311	2	0.66095	11	0.00152125
2	1	0	1	1	239.982	0.746195	0.746047	2.38416	2	0.662952	11	0.00177869
2	1	0	1	1	240.882	0.755196	0.754671	2.73875	2	0.665257	11	0.00206685
2	1	0	0	1	241.783	0.764199	0.763454	3.1314	2	0.667899	11	0.00239068
2	1	0	1	1	242.683	0.773201	0.772794	3.5666	2	0.670913	11	0.00275625
2	1	0	0	1	243.583	0.782203	0.782001	4.04473	2	0.674338	11	0.00316298
2	1	0	1	1	244.483	0.791205	0.790067	4.56706	2	0.678214	11	0.00360828
2	1	0	0	1	245.384	0.800207	0.800276	5.14119	2	0.682585	11	0.00411437
2	1	0	1	1	246.284	0.809209	0.80875	5.7587	2	0.687491	11	0.00465735
2	1	0	0	1	247.184	0.818211	0.817407	6.42405	2	0.692976	11	0.00525106
2	1	0	1	1	248.084	0.827213	0.826818	7.14402	2	0.699085	11	0.0059068
2	1	0	0	1	248.984	0.836215	0.836252	7.90019	2	0.705858	11	0.00660655
2	1	0	1	1	249.885	0.845218	0.84514	8.70187	2	0.713333	11	0.0073543
2	1	0	0	1	250.785	0.85422	0.853944	9.54175	2	0.721551	11	0.00814812
2	1	0	1	1	251.685	0.863222	0.86311	10.4272	2	0.730542	11	0.00899985
2	1	0	0	1	252.615	0.872524	0.871871	11.3747	2	0.740688	10	0.00991722
2	1	0	1	1	253.515	0.881526	0.88092	12.3194	2	0.751356	10	0.0108524
2	1	0	0	1	254.416	0.890528	0.890337	13.2883	2	0.762889	10	0.0118311
2	1	0	1	1	255.316	0.89953	0.898664	14.3047	2	0.775318	10	0.0128552
2	1	0	1	1	256.216	0.908532	0.908782	15.3029	2	0.78866	10	0.013907
2	1	0	0	1	257.116	0.917534	0.917443	16.3478	2	0.802918	10	0.0149982
2	1	0	1	1	258.017	0.926537	0.925841	17.4175	2	0.81811	10	0.0161259
2	1	0	0	1	258.917	0.935539	0.934886	18.4864	2	0.83427	10	0.0172827
2	1	0	1	1	259.817	0.944541	0.944586	19.5201	2	0.851383	10	0.0184384
2	1	0	0	1	260.717	0.953543	0.95248	20.5664	2	0.869447	10	0.0195891
2	1	0	1	1	261.617	0.962545	0.961556	21.6439	2	0.888442	10	0.0208118
2	1	0	0	1	262.518	0.971547	0.971569	22.6609	2	0.908387	10	0.0220166
2	1	0	1	1	263.418	0.980549	0.980613	23.674	2	0.929241	10	0.023215
2	1	0	0	1	264.318	0.989551	0.988858	24.7048	2	0.951025	10	0.0244295
2	1	0	1	1	265.218	0.998554	0.998008	25.7517	2	0.973761	10	0.0257004
2	1	0	1	1	266.019	0.993452	0.993446	24.5233	2	0.994034	10	0.0243626
2	1	0	1	1	266.919	0.984451	0.984293	22.8475	2	1.01535	10	0.0224886
2	1	0	1	1	267.819	0.975448	0.974916	21.3277	2	1.03522	10	0.0207927
2	1	0	0	1	268.72	0.966446	0.966526	19.9261	2	1.05377	10	0.0192591
2	1	0	1	1	269.62	0.957444	0.957542	18.6183	2	1.07111	10	0.0178278
2	1	0	0	1	270.52	0.948442	0.947929	17.4122	2	1.08731	10	0.0165056
2	1	0	1	1	271.42	0.93944	0.940104	16.2485	2	1.10245	10	0.0152753
2	1	0	0	1	272.32	0.930438	0.929963	15.1808	2	1.11659	10	0.0141176
2	1	0	1	1	273.221	0.921435	0.922175	14.1729	2	1.12979	10	0.0130699
2	1	0	0	1	274.121	0.912433	0.912528	13.2189	2	1.1421	10	0.0120626
2	1	0	1	1	275.021	0.903431	0.902518	12.2972	2	1.15357	10	0.0110985
2	1	0	0	1	275.921	0.894429	0.893773	11.437	2	1.16425	10	0.0102221
2	1	0	1	1	276.821	0.885427	0.885736	10.6202	2	1.17417	10	0.0094067
2	1	0	0	1	277.722	0.876425	0.876578	9.83846	2	1.18337	10	0.00862418
2	1	0	1	1	278.622	0.867423	0.867516	9.09978	2	1.1919	10	0.0078942
2	1	0	0	1	279.522	0.858421	0.858163	8.40247	2	1.19977	10	0.00721069
2	1	0	1	1	280.422	0.849419	0.849307	7.72743	2	1.20701	10	0.00656296
2	1	0	1	1	281.322	0.840416	0.83934	7.07389	2	1.21367	10	0.0059374
2	1	0	1	1	282.223	0.831415	0.831161	6.46907	2	1.21977	10	0.00537684
2	1	0	1	1	283.123	0.822412	0.822102	5.89644	2	1.22533	10	0.00484748
2	1	0	0	1	284.023	0.81341	0.812987	5.34897	2	1.23038	10	0.00434865
2	1	0	1	1	284.923	0.804408	0.804232	4.83892	2	1.23496	10	0.00389162
2	1	0	0	1	285.854	0.795106	0.795445	4.33998	2	1.23923	11	0.00345222
2	1	0	1	1	286.754	0.786104	0.785334	3.89788	2	1.24293	11	0.00306113
2	1	0	0	1	287.654	0.777102	0.776304	3.48557	2	1.24625	11	0.00270586
2	1	0	1	1	288.554	0.768099	0.767573	3.10761	2	1.24922	11	0.00238532
2	1	0	0	1	289.454	0.759097	0.758725	2.76156	2	1.25185	11	0.00209527
2	1	0	1	1	290.355	0.750095	0.749857	2.44221	2	1.25419	11	0.00183131
2	1	0	0	1	291.255	0.741093	0.741118	2.1503	2	1.25625	11	0.00159363
2	1	0	1	1	292.155	0.732091	0.731745	1.88679	2	1.25807	11	0.00138065
2	1	0	0	1	293.055	0.723089	0.723005	1.64743	2	1.25965	11	0.0011911
2	1	0	1	1	293.955	0.714087	0.713696	1.43148	2	1.26104	11	0.00102164
2	1	0	0	1	294.856	0.705085	0.704426	1.2372	2	1.26224	11	0.000871517
2	1	0	1	1	295.756	0.696083	0.695678	1.06356	2	1.26327	11	0.000739894
2	1	0	1	1	296.656	0.68708	0.687039	0.90746	2	1.26415	11	0.00062346
2	1	0	1	1	297.556	0.678079	0.677866	0.76755	2	1.2649	11	0.000520296
2	1	0	1	1	298.457	0.669076	0.668797	0.645702	2	1.26554	11	0.000431844
2	1	0	0	1	299.357	0.660074	0.660661	0.538868	2	1.26607	11	0.000356009
2	1	0	1	1	300.287	0.650772	0.650615	0.439734	2	1.26652	12	0.000286097
2	1	0	0	1	301.187	0.64177	0.641501	0.358044	2	1.26688	12	0.000229685
2	1	0	1	1	302.087	0.632768	0.632032	0.288505	2	1.26717	12	0.000182344
2	1	0	0	1	302.988	0.623766	0.623215	0.228707	2	1.2674	12	0.000142534
2	1	0	1	1	303.888	0.614764	0.614365	0.178924	2	1.26758	12	0.000109925
2	1	0	0	1	304.788	0.605761	0.605634	0.137573	2	1.26772	12	8.33187e-05
2	1	0	1	1	305.688	0.596759	0.596001	0.102804	2	1.26783	12	6.1271e-05
2	1	0	0	1	306.588	0.587757	0.587586	0.0747242	2	1.26791	12	4.39068e-05
2	1	0	1	1	307.489	0.578755	0.578648	0.0517516	2	1.26796	12	2.9946e-05
2	1	0	0	1	308.389	0.569753	0.569323	0.0335941	2	1.268	12	1.91259e-05
2	1	0	1	1	309.289	0.560751	0.560072	0.0191655	2	1.26802	12	1.07341e-05
2	1	0	0	1	310.189	0.551749	0.551857	0.00756051	2	1.26803	12	4.17232e-06
2	1	0	1	1	311.089	0.542747	0.542878	-0.00148345	2	1.26803	12	-8.05334e-07
2	0	0	1	1	311.99	0.533744	0.533114	-0.009009	2	1.26803	12	-4.80282e-06
2	0	0	1	1	312.89	0.524743	0.524289	-0.015128	2	1.26802	12	-7.93145e-06
2	0	0	1	1	313.79	0.51574	0.515854	-0.0200896	2	1.268	12	-1.03633e-05
2	0	0	0	1	314.69	0.506738	0.506819	-0.0241932	2	1.26798	12	-1.22615e-05
2	0	0	1	1	315.591	0.497736	0.497024	-0.0274245	2	1.26796	12	-1.36306e-05
2	0	0	0	1	316.491	0.488734	0.488421	-0.0305254	2	1.26793	12	-1.49093e-05
2	0	0	1	1	317.391	0.479732	0.479785	-0.033197	2	1.2679	12	-1.59274e-05
2	0	0	0	1	318.291	0.47073	0.470468	-0.0357172	2	1.26787	12	-1.68038e-05
2	0	0	1	1	319.191	0.461728	0.461713	-0.0377869	2	1.26783	12	-1.74467e-05
2	0	0	0	1	320.092	0.452725	0.453007	-0.0394146	2	1.2678	12	-1.78551e-05
2	0	0	1	1	320.992	0.443723	0.442686	-0.0414431	2	1.26776	12	-1.83463e-05
2	0	0	0	1	321.892	0.434721	0.434521	-0.0430094	2	1.26772	12	-1.86885e-05
2	0	0	1	1	322.792	0.425719	0.425182	-0.0448071	2	1.26768	12	-1.90512e-05
2	0	0	0	1	323.692	0.416717	0.416249	-0.0467104	2	1.26764	12	-1.94432e-05
2	0	0	1	1	324.593	0.407715	0.406763	-0.0484146	2	1.2676	12	-1.96933e-05
2	0	0	0	1	325.493	0.398713	0.39817	-0.0502943	2	1.26755	12	-2.00257e-05
2	0	0	1	1	326.393	0.389711	0.38946	-0.0521103	2	1.26751	12	-2.02949e-05
2	0	0	1	1	327.293	0.380708	0.380525	-0.0539644	2	1.26746	12	-2.05348e-05
2	0	0	1	1	328.193	0.371707	0.372193	-0.0558213	2	1.26741	12	-2.07763e-05
2	0	0	1	1	329.094	0.362704	0.362404	-0.0577164	2	1.26736	12	-2.09167e-05
2	0	0	0	1	329.994	0.353702	0.353185	-0.0596933	2	1.2673	12	-2.10828e-05
2	0	0	1	1	330.894	0.3447	0.343978	-0.0617737	2	1.26725	12	-2.12488e-05
2	0	0	0	1	331.794	0.335698	0.334885	-0.063486	2	1.26719	12	-2.12605e-05
2	0	0	1	1	332.695	0.326696	0.326483	-0.0648555	2	1.26713	12	-2.11742e-05
2	0	0	0	1	333.595	0.317694	0.316736	-0.0661613	2	1.26707	12	-2.09557e-05
2	0	0	1	1	334.495	0.308692	0.308647	-0.0667305	2	1.26701	12	-2.05962e-05
2	0	0	0	1	335.395	0.29969	0.299697	-0.0668688	2	1.26695	12	-2.00404e-05
2	0	0	1	1	336.295	0.290687	0.290976	-0.0658479	2	1.26689	12	-1.91602e-05
2	0	0	0	1	337.196	0.281685	0.281225	-0.0645113	2	1.26683	12	-1.81422e-05
2	0	0	1	1	338.096	0.272683	0.271227	-0.0624928	2	1.26677	12	-1.69498e-05
2	0	0	0	1	338.996	0.263681	0.263273	-0.0600651	2	1.26672	12	-1.58135e-05
2	0	0	1	1	339.896	0.254679	0.25432	-0.0575362	2	1.26667	12	-1.46326e-05
2	0	0	0	1	340.796	0.245677	0.245218	-0.0551187	2	1.26661	12	-1.35161e-05
2	0	0	1	1	341.697	0.236675	0.236816	-0.0526864	2	1.26657	12	-1.2477e-05
2	0	0	1	1	342.597	0.227672	0.227562	-0.0505574	2	1.26652	12	-1.15049e-05
2	0	0	1	1	343.497	0.218671	0.218505	-0.0487008	2	1.26647	12	-1.06414e-05
2	0	0	1	1	344.397	0.209668	0.209443	-0.0468853	2	1.26643	12	-9.8198e-06
2	0	0	0	1	345.298	0.200666	0.200438	-0.0448831	2	1.26639	12	-8.99626e-06
2	0	0	1	1	346.198	0.191664	0.191669	-0.0436742	2	1.26635	12	-8.37098e-06
2	0	0	0	1	347.098	0.182662	0.18202	-0.0422467	2	1.26631	12	-7.68973e-06
2	0	0	1	1	347.998	0.17366	0.172625	-0.0409848	2	1.26627	12	-7.075e-06
2	0	0	0	1	348.898	0.164658	0.164858	-0.0399126	2	1.26623	12	-6.5799e-06
2	0	0	1	1	349.799	0.155656	0.155433	-0.0392027	2	1.2662	12	-6.09341e-06
2	0	0	0	1	350.699	0.146654	0.146113	-0.0383609	2	1.26616	12	-5.60503e-06
2	0	0	1	1	351.599	0.137652	0.137183	-0.0377093	2	1.26613	12	-5.17308e-06
2	0	0	0	1	352.499	0.128649	0.128542	-0.036856	2	1.26609	12	-4.73753e-06
2	0	0	1	1	353.399	0.119647	0.119358	-0.0361846	2	1.26606	12	-4.31892e-06
2	0	0	0	1	354.3	0.110645	0.110326	-0.0355729	2	1.26603	12	-3.92462e-06
2	0	0	1	1	355.2	0.101643	0.100449	-0.0347215	2	1.266	12	-3.48775e-06
2	0	0	0	1	356.1	0.092641	0.0928863	-0.0342904	2	1.26596	12	-3.18511e-06
2	0	0	1	1	357	0.0836389	0.0839702	-0.0338773	2	1.26593	12	-2.84469e-06
2	0	0	0	1	357.9	0.0746368	0.0744685	-0.0331613	2	1.2659	12	-2.46947e-06
2	0	0	1	1	358.801	0.0656345	0.0650099	-0.0328588	2	1.26587	12	-2.13615e-06
2	0	0	1	1	359.701	0.0566332	0.0562722	-0.0325607	2	1.26584	12	-1.83226e-06
2	0	0	0	1	360.601	0.0476305	0.0465149	-0.032038	2	1.26581	12	-1.49024e-06
2	0	0	1	1	361.501	0.0386284	0.0384759	-0.0315906	2	1.26578	12	-1.21548e-06
2	0	0	0	1	362.402	0.0296262	0.0312367	-0.0310271	2	1.26576	12	-9.69183e-07
2	0	0	1	1	363.302	0.0206241	0.0199997	-0.0306481	2	1.26573	12	-6.12954e-07
2	0	0	0	1	364.202	0.011622	0.0108576	-0.030477	2	1.2657	12	-3.30906e-07
2	0	0	1	1	365.102	0.0026199	0.00188942	-0.0301064	2	1.26567	12	-5.68836e-08
2	0	0	0	0	365.823	0.00452034	0.00456237	-0.0286058	2	1.26565	12	-1.3051e-07
2	0	0	1	0	366.723	0.0135225	0.0132664	-0.0265262	2	1.26563	12	-3.51907e-07
2	0	0	1	0	367.623	0.0225252	0.0224894	-0.0248288	2	1.2656	12	-5.58386e-07
2	0	0	1	0	368.523	0.0315262	0.0316917	-0.0235847	2	1.26558	12	-7.4744e-07
2	0	0	1	0	369.424	0.0405288	0.040382	-0.0221178	2	1.26556	12	-8.93163e-07
2	0	0	0	0	370.324	0.0495309	0.0497766	-0.0207678	2	1.26554	12	-1.03375e-06
2	0	0	1	0	371.224	0.058533	0.0579471	-0.0198375	2	1.26553	12	-1.14952e-06
2	0	0	0	0	372.124	0.0675351	0.0669916	-0.0190605	2	1.26551	12	-1.27689e-06
2	0	0	1	0	373.025	0.0765372	0.0768943	-0.0181754	2	1.26549	12	-1.39758e-06
2	0	0	0	0	373.925	0.0855393	0.0854106	-0.0172543	2	1.26548	12	-1.4737e-06
2	0	0	1	0	374.825	0.0945415	0.094033	-0.0162936	2	1.26546	12	-1.53213e-06
2	0	0	0	0	375.725	0.103544	0.103503	-0.0157809	2	1.26545	12	-1.63336e-06
2	0	0	1	0	376.625	0.112546	0.112698	-0.0149006	2	1.26543	12	-1.67927e-06
2	0	0	0	0	377.526	0.121548	0.120873	-0.0143112	2	1.26542	12	-1.72984e-06
2	0	0	1	0	378.426	0.13055	0.130196	-0.0138687	2	1.26541	12	-1.80565e-06
2	0	0	0	0	379.326	0.139552	0.139272	-0.0131631	2	1.2654	12	-1.83325e-06
2	0	0	1	0	380.226	0.148554	0.14836	-0.0125234	2	1.26539	12	-1.85797e-06
2	0	0	0	0	381.126	0.157556	0.157608	-0.0119952	2	1.26537	12	-1.89054e-06
2	0	0	1	0	382.027	0.166558	0.166417	-0.0114068	2	1.26536	12	-1.89828e-06
2	0	0	0	0	382.927	0.17556	0.174753	-0.0109271	2	1.26535	12	-1.90955e-06
2	0	0	1	0	383.827	0.184563	0.184127	-0.0104008	2	1.26535	12	-1.91507e-06
2	0	0	1	0	384.727	0.193565	0.193489	-0.00990636	2	1.26534	12	-1.91677e-06
2	1	0	0	0	385.628	0.202567	0.202391	-0.00926398	2	1.26533	12	-1.87495e-06
2	1	0	1	0	386.528	0.211569	0.211464	-0.00852905	2	1.26532	12	-1.80359e-06
2	1	0	0	0	387.428	0.220571	0.220523	-0.00799173	2	1.26531	12	-1.76236e-06
2	1	0	1	0	388.328	0.229573	0.22846	-0.00741556	2	1.26531	12	-1.69416e-06
2	0	0	0	0	389.228	0.238575	0.238813	-0.00669097	2	1.2653	12	-1.59789e-06
2	0	0	1	0	390.129	0.247577	0.24749	-0.00602678	2	1.2653	12	-1.49157e-06
2	0	0	0	0	391.029	0.256579	0.256061	-0.00530172	2	1.26529	12	-1.35757e-06
2	0	0	1	0	391.929	0.265582	0.266034	-0.00459149	2	1.26529	12	-1.22149e-06
2	0	0	0	0	392.829	0.274584	0.275173	-0.00377071	2	1.26528	12	-1.0376e-06
2	0	0	1	0	393.729	0.283586	0.28279	-0.00278842	2	1.26528	12	-7.88538e-07
2	0	0	0	0	394.63	0.292588	0.292088	-0.00214842	2	1.26528	12	-6.27527e-07
2	1	0	1	0	395.53	0.30159	0.301532	-0.000873163	2	1.26528	12	-2.63287e-07
2	1	0	0	0	396.43	0.310592	0.309947	0.000471656	2	1.26528	12	1.46188e-07
2	1	0	1	0	397.33	0.319594	0.319154	0.00184244	2	1.26528	12	5.8802e-07
2	1	0	0	0	398.23	0.328596	0.328767	0.0036459	2	1.26528	12	1.19865e-06
2	1	0	1	0	399.131	0.337599	0.337324	0.00578025	2	1.26529	12	1.94982e-06
2	1	0	0	0	399.986	0.346151	0.345733	0.00749069	2	1.26529	12	2.58978e-06
2	1	0	1	0	400.751	0.353802	0.353785	0.0107498	3	1.2653	12	3.80312e-06
2	1	0	0	0	401.651	0.362804	0.362873	0.0143526	3	1.26531	12	5.20817e-06
2	1	0	1	0	402.551	0.371806	0.37219	0.0185282	3	1.26533	12	6.89601e-06
2	1	0	1	0	403.452	0.380808	0.380955	0.0233104	3	1.26535	12	8.88021e-06
2	1	0	0	0	404.352	0.389811	0.389736	0.0287045	3	1.26537	12	1.11872e-05
2	1	0	1	0	405.252	0.398813	0.398595	0.0351422	3	1.2654	12	1.40075e-05
2	1	0	0	0	406.152	0.407815	0.407318	0.0421277	3	1.26543	12	1.71594e-05
2	1	0	1	0	407.053	0.416817	0.416614	0.0495325	3	1.26548	12	2.06359e-05
2	1	0	0	0	407.953	0.425819	0.4241	0.0560549	3	1.26552	12	2.37729e-05
2	1	0	1	0	408.853	0.434821	0.434131	0.0621067	3	1.26558	12	2.69624e-05
2	1	0	0	0	409.753	0.443823	0.44301	0.0681024	3	1.26564	12	3.017e-05
2	1	0	1	0	410.653	0.452825	0.452984	0.0736774	3	1.2657	12	3.33747e-05
2	1	0	0	0	411.554	0.461828	0.460879	0.0790924	3	1.26577	12	3.64521e-05
2	1	0	1	0	412.454	0.47083	0.471098	0.0841911	3	1.26585	12	3.96622e-05
2	1	0	0	0	413.354	0.479832	0.480001	0.0886773	3	1.26592	12	4.25652e-05
2	1	0	1	0	414.254	0.488834	0.488603	0.0929721	3	1.26601	12	4.54264e-05
2	1	0	0	0	415.154	0.497836	0.497432	0.0970217	3	1.26609	12	4.82617e-05
2	1	0	1	0	416.055	0.506838	0.506853	0.100864	3	1.26618	12	5.11234e-05
2	1	0	0	0	416.955	0.51584	0.515562	0.104453	3	1.26628	12	5.38523e-05
2	1	0	1	0	417.855	0.524843	0.524792	0.107855	3	1.26637	12	5.66015e-05
2	1	0	1	0	418.755	0.533844	0.533284	0.110886	3	1.26647	12	5.91339e-05
2	1	0	0	0	419.656	0.542847	0.542384	0.113921	3	1.26657	12	6.17891e-05
2	1	0	1	0	420.556	0.551849	0.551855	0.11674	3	1.26668	12	6.44236e-05
2	1	0	0	0	421.456	0.560851	0.560798	0.120009	3	1.26678	12	6.73005e-05
2	1	0	1	0	422.356	0.569853	0.569613	0.12385	3	1.26689	12	7.05468e-05
2	1	0	0	0	423.256	0.578855	0.578452	0.128128	3	1.26701	12	7.41159e-05
2	1	0	1	0	424.157	0.587857	0.587111	0.134652	3	1.26713	12	7.90555e-05
2	1	0	0	0	425.057	0.596859	0.596131	0.144426	3	1.26725	12	8.60969e-05
2	1	0	1	0	425.957	0.605861	0.605168	0.158803	3	1.26739	12	9.61027e-05
2	1	0	0	0	426.857	0.614864	0.615462	0.179196	3	1.26754	12	0.000110288
2	1	0	1	0	427.757	0.623866	0.623479	0.208219	3	1.26772	12	0.00012982
2	1	0	0	0	428.658	0.632868	0.633055	0.247369	3	1.26792	12	0.000156598
2	1	0	1	0	429.558	0.64187	0.642359	0.297969	3	1.26817	12	0.000191403
2	1	0	0	0	430.458	0.650872	0.650626	0.361762	3	1.26847	12	0.000235371
2	1	0	1	0	431.358	0.659874	0.659807	0.440663	3	1.26883	12	0.000290752
2	1	0	0	0	432.258	0.668876	0.668898	0.535982	3	1.26927	12	0.000358517
2	1	0	1	0	433.159	0.677878	0.677298	0.64865	3	1.2698	12	0.000439329
2	1	0	1	0	434.059	0.68688	0.686713	0.780913	3	1.27044	12	0.000536263
2	1	0	0	0	434.959	0.695882	0.695393	0.934597	3	1.27121	12	0.000649913
2	1	0	1	0	435.889	0.705185	0.704909	1.11894	3	1.27217	11	0.000788751
2	1	0	0	0	436.79	0.714187	0.714157	1.32048	3	1.27327	11	0.00094303
2	1	0	1	0	437.69	0.723189	0.722756	1.54881	3	1.27456	11	0.00111941
2	1	0	0	0	438.59	0.732191	0.731732	1.80449	3	1.27607	11	0.00132041
2	1	0	1	0	439.49	0.741193	0.74048	2.08809	3	1.27782	11	0.00154619
2	1	0	0	0	440.39	0.750195	0.749632	2.40579	3	1.27984	11	0.00180346
2	1	0	1	0	441.291	0.759197	0.75823	2.75871	3	1.28216	11	0.00209174
2	1	0	0	0	442.191	0.7682	0.768099	3.14814	3	1.28482	11	0.00241808
2	1	0	1	0	443.091	0.777202	0.777174	3.57566	3	1.28785	11	0.00277891
2	1	0	0	0	443.991	0.786204	0.785791	4.04821	3	1.29128	11	0.00318105
2	1	0	1	0	444.891	0.795206	0.794588	4.56377	3	1.29515	11	0.00362632
2	1	0	0	0	445.792	0.804208	0.804657	5.12132	3	1.29951	11	0.00412091
2	1	0	1	0	446.692	0.81321	0.813642	5.72477	3	1.30439	11	0.00465791
2	1	0	0	0	447.592	0.822212	0.822299	6.37054	3	1.30984	11	0.00523848
2	1	0	1	0	448.492	0.831215	0.831163	7.06187	3	1.31588	11	0.00586957
2	1	0	1	0	449.392	0.840216	0.839417	7.78573	3	1.32257	11	0.00653547
2	1	0	0	0	450.293	0.849218	0.849169	8.55548	3	1.32993	11	0.00726504
2	1	0	1	0	451.193	0.858221	0.857469	9.35685	3	1.33799	11	0.00802321
2	1	0	0	0	452.093	0.867223	0.867158	10.1875	3	1.34679	11	0.00883413
2	1	0	1	0	453.023	0.876525	0.876686	11.0771	3	1.35668	10	0.00971115
2	1	0	0	0	453.924	0.885527	0.885392	11.9748	3	1.36707	10	0.0106024
2	1	0	1	0	454.824	0.894529	0.893692	12.902	3	1.37827	10	0.0115304
2	1	0	0	0	455.724	0.903531	0.903223	13.8234	3	1.3903	10	0.0124856
2	1	0	1	0	456.624	0.912533	0.912483	14.7718	3	1.40318	10	0.013479
2	1	0	0	0	457.524	0.921535	0.921872	15.7078	3	1.41691	10	0.0144806
2	1	0	1	0	458.425	0.930538	0.929986	16.6719	3	1.43149	10	0.0155046
2	1	0	0	0	459.325	0.93954	0.939212	17.6321	3	1.44693	10	0.0165603
2	1	0	1	0	460.225	0.948542	0.947669	18.6138	3	1.46327	10	0.0176397
2	1	0	0	0	461.125	0.957544	0.957026	19.5938	3	1.48047	10	0.0187518
2	1	0	1	0	462.025	0.966546	0.966542	20.5417	3	1.49854	10	0.0198544
2	1	0	0	0	462.926	0.975548	0.975515	21.4679	3	1.51745	10	0.0209423
2	1	0	1	0	463.826	0.984551	0.98493	22.4443	3	1.53722	10	0.0221061
2	1	0	1	0	464.726	0.993552	0.993288	23.3664	3	1.55784	10	0.0232096
2	1	0	0	0	465.527	0.998453	0.99824	23.7419	3	1.57684	10	0.0237001
2	1	0	1	0	466.427	0.989451	0.988609	22.0991	3	1.59743	10	0.0218474
2	1	0	0	0	467.327	0.980449	0.98034	20.6411	3	1.61665	10	0.0202353
2	1	0	1	0	468.227	0.971447	0.97133	19.31	3	1.63462	10	0.0187564
2	1	0	0	0	469.128	0.962445	0.962434	18.078	3	1.65144	10	0.0173989
2	1	0	1	0	470.028	0.953443	0.95356	16.9389	3	1.66719	10	0.0161523
2	1	0	0	0	470.928	0.944441	0.944108	15.8703	3	1.68194	10	0.0149833
2	1	0	1	0	471.828	0.935439	0.935037	14.8491	3	1.69576	10	0.0138844
2	1	0	0	0	472.728	0.926437	0.925417	13.8919	3	1.70869	10	0.0128558
2	1	0	1	0	473.629	0.917434	0.917178	12.9946	3	1.72078	10	0.0119183
2	1	0	1	0	474.529	0.908432	0.908355	12.1366	3	1.73208	10	0.0110244
2	1	0	1	0	475.429	0.899431	0.899608	11.3119	3	1.74263	10	0.0101763
2	1	0	1	0	476.329	0.890428	0.889993	10.5451	3	1.75246	10	0.0093851
2	1	0	0	0	477.23	0.881426	0.881182	9.79308	3	1.76161	10	0.00862948
2	1	0	1	0	478.13	0.872424	0.872102	9.07291	3	1.77009	10	0.0079125
2	1	0	0	0	479.03	0.863422	0.863052	8.39719	3	1.77795	10	0.00724721
2	1	0	1	0	479.93	0.85442	0.8542	7.7497	3	1.78521	10	0.0066198
2	1	0	0	0	480.83	0.845418	0.845636	7.12686	3	1.7919	10	0.00602673
2	1	0	1	0	481.731	0.836416	0.836435	6.53361	3	1.79805	10	0.00546494
2	1	0	0	0	482.631	0.827413	0.827711	5.96739	3	1.80367	10	0.00493927
2	1	0	1	0	483.531	0.818411	0.817864	5.43792	3	1.80879	10	0.00444748
2	1	0	0	0	484.431	0.809409	0.80991	4.92371	3	1.81345	10	0.00398776
2	1	0	1	0	485.361	0.800107	0.799633	4.42822	3	1.8178	11	0.00354095
2	1	0	0	0	486.262	0.791105	0.790853	3.98564	3	1.82159	11	0.00315205
2	1	0	1	0	487.162	0.782103	0.781477	3.57304	3	1.82498	11	0.00279225
2	1	0	0	0	488.062	0.773101	0.772541	3.18778	3	1.82802	11	0.00246269
2	1	0	1	0	488.962	0.764099	0.763333	2.83488	3	1.83073	11	0.00216396
2	1	0	1	0	489.862	0.755096	0.754513	2.51197	3	1.83313	11	0.00189532
2	1	0	0	0	490.763	0.746094	0.745638	2.2161	3	1.83525	11	0.00165241
2	1	0	1	0	491.663	0.737092	0.737482	1.94474	3	1.83712	11	0.00143421
2	1	0	0	0	492.563	0.72809	0.727797	1.69941	3	1.83876	11	0.00123683
2	1	0	1	0	493.463	0.719088	0.718674	1.48063	3	1.84019	11	0.00106409
2	1	0	0	0	494.364	0.710086	0.709444	1.27972	3	1.84143	11	0.000907891
2	1	0	1	0	495.264	0.701084	0.70077	1.10106	3	1.8425	11	0.00077159
2	1	0	0	0	496.164	0.692082	0.692089	0.942224	3	1.84342	11	0.000652103
2	1	0	1	0	497.064	0.68308	0.682966	0.799832	3	1.8442	11	0.000546258
2	1	0	0	0	497.964	0.674077	0.673292	0.673879	3	1.84486	11	0.000453717
2	1	0	1	0	498.865	0.665075	0.664099	0.564259	3	1.84541	11	0.000374724
2	1	0	0	0	499.765	0.656073	0.655556	0.467637	3	1.84588	11	0.000306562
2	1	0	1	0	500.695	0.646771	0.646545	0.379168	3	1.84627	12	0.000245149
2	1	0	0	0	501.595	0.637769	0.636903	0.307424	3	1.84657	12	0.000195799
2	1	0	1	0	502.495	0.628767	0.62807	0.246159	3	1.84682	12	0.000154605
2	1	0	0	0	503.396	0.619765	0.619925	0.19367	3	1.84702	12	0.000120061
2	1	0	1	0	504.296	0.610762	0.610306	0.150144	3	1.84717	12	9.16339e-05
2	1	0	1	0	505.196	0.601761	0.600793	0.114229	3	1.84729	12	6.8628e-05
2	1	0	1	0	506.096	0.592759	0.592879	0.0846607	3	1.84738	12	5.01935e-05
2	1	0	1	0	506.997	0.583756	0.584313	0.0602569	3	1.84744	12	3.52089e-05
2	1	0	0	0	507.897	0.574754	0.574732	0.0408879	3	1.84749	12	2.34996e-05
2	1	0	1	0	508.797	0.565752	0.565523	0.0253784	3	1.84751	12	1.43521e-05
2	1	0	0	0	509.697	0.55675	0.556506	0.0130546	3	1.84753	12	7.26496e-06
2	0	0	1	0	510.597	0.547748	0.547561	0.00325826	3	1.84754	12	1.7841e-06
2	0	0	0	0	511.498	0.538746	0.538484	-0.00474146	3	1.84754	12	-2.5532e-06
2	0	0	1	0	512.398	0.529743	0.529301	-0.0111612	3	1.84753	12	-5.90764e-06
2	0	0	0	0	513.298	0.520741	0.520321	-0.0164879	3	1.84751	12	-8.57901e-06
2	0	0	1	0	514.198	0.511739	0.511159	-0.0208829	3	1.8475	12	-1.06745e-05
2	0	0	0	0	515.098	0.502737	0.502304	-0.0245797	3	1.84748	12	-1.23465e-05
2	0	0	1	0	515.999	0.493735	0.493596	-0.0277439	3	1.84745	12	-1.36943e-05
2	0	0	0	0	516.899	0.484733	0.483943	-0.0302723	3	1.84742	12	-1.46501e-05
2	0	0	1	0	517.799	0.475731	0.475907	-0.03281	3	1.84739	12	-1.56145e-05
2	0	0	0	0	518.699	0.466729	0.466807	-0.0350882	3	1.84736	12	-1.63794e-05
2	0	0	1	0	519.599	0.457727	0.456903	-0.0370955	3	1.84733	12	-1.6949e-05
2	0	0	1	0	520.5	0.448724	0.448029	-0.0387888	3	1.8473	12	-1.73785e-05
2	0	0	1	0	521.4	0.439723	0.439304	-0.040558	3	1.84726	12	-1.78173e-05
2	0	0	1	0	522.3	0.43072	0.430525	-0.0421819	3	1.84722	12	-1.81604e-05
2	0	0	0	0	523.2	0.421718	0.422084	-0.0437766	3	1.84718	12	-1.84774e-05
2	0	0	1	0	524.101	0.412716	0.41248	-0.0454564	3	1.84714	12	-1.87499e-05
2	0	0	0	0	525.001	0.403714	0.404153	-0.0471954	3	1.8471	12	-1.90742e-05
2	0	0	1	0	525.901	0.394712	0.39436	-0.048851	3	1.84706	12	-1.92649e-05
2	0	0	0	0	526.801	0.38571	0.385764	-0.0505863	3	1.84701	12	-1.95144e-05
2	0	0	1	0	527.701	0.376708	0.376646	-0.0523231	3	1.84696	12	-1.97073e-05
2	0	0	0	0	528.602	0.367706	0.367689	-0.0542324	3	1.84691	12	-1.99406e-05
2	0	0	1	0	529.502	0.358703	0.359141	-0.0561465	3	1.84686	12	-2.01645e-05
2	0	0	0	0	530.402	0.349701	0.349452	-0.057953	3	1.84681	12	-2.02518e-05
2	0	0	1	0	531.302	0.340699	0.339875	-0.0598221	3	1.84676	12	-2.0332e-05
2	0	0	0	0	532.202	0.331697	0.331681	-0.061211	3	1.8467	12	-2.03025e-05
2	0	0	1	0	533.103	0.322695	0.322331	-0.062287	3	1.84665	12	-2.00771e-05
2	0	0	0	0	534.003	0.313693	0.313487	-0.0631885	3	1.84659	12	-1.98088e-05
2	0	0	1	0	534.903	0.304691	0.304543	-0.0632608	3	1.84653	12	-1.92656e-05
2	0	0	1	0	535.803	0.295688	0.296302	-0.0628261	3	1.84648	12	-1.86155e-05
2	0	0	1	0	536.703	0.286686	0.286132	-0.0621046	3	1.84642	12	-1.77701e-05
2	0	0	1	0	537.604	0.277684	0.277103	-0.0606877	3	1.84636	12	-1.68168e-05
2	0	0	0	0	538.504	0.268682	0.267695	-0.0585882	3	1.84631	12	-1.56838e-05
2	0	0	1	0	539.404	0.25968	0.259723	-0.0564501	3	1.84626	12	-1.46614e-05
2	0	0	0	0	540.304	0.250678	0.250483	-0.0543048	3	1.84621	12	-1.36024e-05
2	0	0	1	0	541.205	0.241676	0.2412	-0.052001	3	1.84616	12	-1.25426e-05
2	0	0	0	0	542.105	0.232674	0.231976	-0.0499552	3	1.84611	12	-1.15884e-05
2	0	0	1	0	543.005	0.223672	0.223501	-0.0481915	3	1.84607	12	-1.07709e-05
2	0	0	0	0	543.905	0.21467	0.214699	-0.0464056	3	1.84602	12	-9.96321e-06
2	0	0	1	0	544.805	0.205668	0.20509	-0.0449808	3	1.84598	12	-9.22509e-06
2	0	0	0	0	545.706	0.196665	0.195587	-0.0434476	3	1.84594	12	-8.49778e-06
2	0	0	1	0	546.606	0.187663	0.187715	-0.0418871	3	1.8459	12	-7.86281e-06
2	0	0	0	0	547.506	0.178661	0.177775	-0.0408521	3	1.84587	12	-7.26248e-06
2	0	0	1	0	548.406	0.169659	0.169179	-0.039823	3	1.84583	12	-6.73722e-06
2	0	0	0	0	549.306	0.160657	0.160508	-0.0390601	3	1.84579	12	-6.26944e-06
2	0	0	1	0	550.207	0.151655	0.151413	-0.0381244	3	1.84576	12	-5.77255e-06
2	0	0	0	0	551.107	0.142653	0.142944	-0.0370926	3	1.84572	12	-5.30215e-06
2	0	0	1	0	552.007	0.13365	0.134067	-0.0364561	3	1.84569	12	-4.88758e-06
2	0	0	1	0	552.907	0.124649	0.124788	-0.0359034	3	1.84566	12	-4.4803e-06
2	0	0	0	0	553.808	0.115646	0.115079	-0.035255	3	1.84563	12	-4.05712e-06
2	0	0	1	0	554.708	0.106644	0.106178	-0.0346401	3	1.84559	12	-3.67801e-06
2	0	0	0	0	555.608	0.0976422	0.0971726	-0.0339439	3	1.84556	12	-3.29842e-06
2	0	0	1	0	556.508	0.0886401	0.0888812	-0.033423	3	1.84553	12	-2.97068e-06
2	0	0	0	0	557.408	0.079638	0.0793307	-0.0328214	3	1.8455	12	-2.60374e-06
2	0	0	1	0	558.309	0.0706358	0.0703943	-0.0325548	3	1.84547	12	-2.29167e-06
2	1	0	0	0	559.209	0.0616337	0.0609202	-0.032194	3	1.84544	12	-1.96127e-06
2	0	0	1	0	560.109	0.0526316	0.0518067	-0.0318462	3	1.84541	12	-1.64985e-06
2	0	0	0	0	561.009	0.0436295	0.0428566	-0.0312667	3	1.84539	12	-1.33998e-06
2	0	0	1	0	561.909	0.0346274	0.0346299	-0.0308177	3	1.84536	12	-1.06721e-06
2	0	0	0	0	562.81	0.0256253	0.0256193	-0.0305176	3	1.84533	12	-7.8184e-07
2	0	0	1	0	563.71	0.0166232	0.0156763	-0.0302694	3	1.8453	12	-4.74513e-07
2	0	0	0	0	564.61	0.00762107	0.00697014	-0.0296982	3	1.84527	12	-2.07e-07
2	0	0	0	1	565.376	3.07233e-05	0.00201034	-0.0332217	3	1.84525	12	-6.67868e-08
2	0	0	1	1	566.231	0.00852128	0.0078834	-0.0270173	3	1.84523	12	-2.12988e-07
2	0	0	0	1	567.131	0.0175234	0.0172249	-0.0253544	3	1.8452	12	-4.36728e-07
2	0	0	1	1	568.031	0.0265255	0.0266619	-0.0238287	3	1.84518	12	-6.35319e-07
2	0	0	0	1	568.932	0.0355276	0.0353331	-0.022458	3	1.84516	12	-7.93511e-07
2	0	0	1	1	569.832	0.0445297	0.0443225	-0.0210811	3	1.84514	12	-9.34365e-07
2	0	0	0	1	570.732	0.0535318	0.0533023	-0.020127	3	1.84512	12	-1.07282e-06
2	0	0	1	1	571.632	0.0625339	0.0616744	-0.0192395	3	1.84511	12	-1.18659e-06
2	0	0	0	1	572.532	0.0715361	0.0709406	-0.0182287	3	1.84509	12	-1.29316e-06
2	0	0	1	1	573.433	0.0805382	0.0801453	-0.0173816	3	1.84507	12	-1.39306e-06
2	0	0	0	1	574.333	0.0895403	0.0894805	-0.0167885	3	1.84506	12	-1.50224e-06
2	0	0	1	1	575.233	0.0985424	0.0986268	-0.0161159	3	1.84504	12	-1.58946e-06
2	0	0	1	1	576.133	0.107545	0.107381	-0.0152306	3	1.84503	12	-1.63548e-06
2	0	0	1	1	577.033	0.116546	0.116304	-0.0145278	3	1.84502	12	-1.68965e-06
2	1	0	1	1	577.934	0.125549	0.126712	-0.0139416	3	1.84501	12	-1.76657e-06
2	0	0	0	1	578.834	0.134551	0.134611	-0.0135365	3	1.84499	12	-1.82215e-06
2	0	0	1	1	579.734	0.143553	0.143702	-0.0129305	3	1.84498	12	-1.85813e-06
2	1	0	0	1	580.634	0.152555	0.153224	-0.0121709	3	1.84497	12	-1.86488e-06
2	0	0	1	1	581.535	0.161557	0.161127	-0.0116991	3	1.84496	12	-1.88504e-06
2	0	0	0	1	582.435	0.170559	0.170101	-0.0110926	3	1.84495	12	-1.88685e-06
2	0	0	1	1	583.335	0.179561	0.179136	-0.0105348	3	1.84494	12	-1.88717e-06
2	0	0	0	1	584.235	0.188563	0.187775	-0.0100086	3	1.84493	12	-1.87936e-06
2	1	0	1	1	585.135	0.197566	0.197818	-0.00937887	3	1.84492	12	-1.85531e-06
2	0	0	0	1	586.036	0.206568	0.206782	-0.00865156	3	1.84492	12	-1.78898e-06
2	0	0	1	1	586.936	0.21557	0.215486	-0.0081518	3	1.84491	12	-1.75659e-06
2	0	0	0	1	587.836	0.224572	0.224462	-0.00783496	3	1.8449	12	-1.75865e-06
2	0	0	1	1	588.736	0.233574	0.233657	-0.00714552	3	1.8449	12	-1.6696e-06
2	1	0	0	1	589.636	0.242576	0.241813	-0.00618704	3	1.84489	12	-1.49611e-06
2	0	0	1	1	590.537	0.251578	0.251629	-0.00564858	3	1.84488	12	-1.42135e-06
2	0	0	0	1	591.437	0.26058	0.260466	-0.00494055	3	1.84488	12	-1.28685e-06
2	0	0	1	1	592.337	0.269583	0.269221	-0.0042646	3	1.84488	12	-1.14812e-06
2	1	0	1	1	593.237	0.278584	0.278227	-0.00358901	3	1.84487	12	-9.98559e-07
2	1	0	0	1	594.138	0.287587	0.287669	-0.00263816	3	1.84487	12	-7.58918e-07
2	0	0	1	1	595.038	0.296589	0.296091	-0.00161698	3	1.84487	12	-4.78774e-07
2	0	0	0	1	595.938	0.305591	0.305156	-0.000457016	3	1.84487	12	-1.39461e-07
2	0	0	1	1	596.838	0.314593	0.314681	0.000758792	3	1.84487	12	2.38777e-07
2	1	0	0	1	597.738	0.323595	0.323591	0.00216845	3	1.84487	12	7.01691e-07
2	1	0	1	1	598.639	0.332597	0.332343	0.00416125	3	1.84487	12	1.38296e-06
2	1	0	0	1	599.539	0.341599	0.341471	0.00647548	3	1.84488	12	2.21118e-06
2	1	0	0	1	599.993	0.346151	0.344778	0.00768249	3	1.84488	12	2.64875e-06