File: Data_1mg/2022_01_27 FeNx 1mg ref309_set1_01_CV_C02.mpt
EC-Lab ASCII FILE
Nb header lines : 57

Cyclic Voltammetry

Run on channel : 2 (SN 12477)
User :
CE vs. WE compliance from -10 V to 10 V
Electrode connection : standard
Potential control : Ewe
Ewe ctrl range : min = -2.50 V, max = 2.50 V
Safety Limits :
	Do not start on E overload
Acquisition started on : 01/27/2023 13:25:48.279
Loaded Setting File :  C:\Users\grupogalan\Documents\EC-Lab\Data\Scott\_cyclic_pause_tafel.mps
Saved on :
	File : 2022_01_27 FeNx 1mg ref309_set1_01_CV_C02.mpr
	Directory : C:\Users\grupogalan\Documents\EC-Lab\Data\Scott\
	Host : 169.254.104.159
Device : VSP (SN 1176)
Address : USB
EC-Lab for windows v11.46 (software)
Internet server v11.40 (firmware)
Command interpretor v11.40 (firmware)
Electrode material :
Initial state :
Electrolyte :
Comments :
Electrode surface area : 0.000 cm²
Characteristic mass : 0.001 g
Equivalent Weight : 0.000 g/eq.
Density : 0.000 g/cm3
Volume (V) : 0.001 cm³
Cycle Definition : Charge/Discharge alternance
Ei (V)              0.000
vs.                 Eoc
dE/dt               10.000
dE/dt unit          mV/s
E1 (V)              1.000
vs.                 Ref
Step percent        50
N                   10
E range min (V)     -2.500
E range max (V)     2.500
I Range             Auto
I Range min         Unset
I Range max         Unset
I Range init        Unset
Bandwidth           5
E2 (V)              0.000
vs.                 Ref
nc cycles           2
Reverse Scan        1
Ef (V)              0.000
vs.                 Eoc

mode	ox/red	error	control changes	counter inc.	time/s	control/V	Ewe/V	<I>/mA	cycle number	(Q-Qo)/C	I Range	P/W
2	1	0	0	0	0.000000000000000E+000	-0.263092	-0.266182	0.00528933	1	0.0000000E+000	14	-1.40792e-06
2	1	0	0	0	0.9854	-0.25324	-0.25361	0.00494932	1	5.25897e-06	13	-1.25519e-06
2	1	0	1	0	1.9856	-0.243238	-0.244294	0.00671659	1	1.27511e-05	13	-1.64082e-06
2	1	0	0	0	2.9858	-0.233236	-0.232953	0.00783339	1	2.16703e-05	13	-1.82481e-06
2	1	0	1	0	3.986	-0.223233	-0.22342	0.00871777	1	3.16348e-05	13	-1.94773e-06
2	1	0	0	0	4.9862	-0.213231	-0.213958	0.0094197	1	4.24087e-05	13	-2.01542e-06
2	1	0	1	0	5.9865	-0.203228	-0.203031	0.0101444	1	5.38234e-05	13	-2.05962e-06
2	1	0	1	0	6.9868	-0.193226	-0.192903	0.0105774	1	6.58167e-05	13	-2.04041e-06
2	1	0	0	0	7.987	-0.183224	-0.183544	0.0110907	1	7.8331e-05	13	-2.03564e-06
2	1	0	1	0	8.9872	-0.173221	-0.173636	0.0115095	1	9.13327e-05	13	-1.99847e-06
2	1	0	0	0	9.9874	-0.163219	-0.162764	0.0119951	1	0.000104793	13	-1.95237e-06
2	1	0	1	0	10.9876	-0.153217	-0.153934	0.0124025	1	0.000118726	13	-1.90917e-06
2	1	0	1	0	11.9879	-0.143215	-0.144562	0.0129655	1	0.000133153	13	-1.87432e-06
2	1	0	0	0	12.9882	-0.133212	-0.133092	0.0133742	1	0.00014811	13	-1.78001e-06
2	1	0	1	0	13.9884	-0.12321	-0.123204	0.0140532	1	0.000163634	13	-1.73141e-06
2	1	0	0	0	14.9886	-0.113207	-0.113465	0.0147002	1	0.000179753	13	-1.66796e-06
2	1	0	1	0	15.9888	-0.103205	-0.103868	0.0152969	1	0.000196484	13	-1.58886e-06
2	1	0	0	0	16.989	-0.0932026	-0.0925559	0.0157666	1	0.000213826	13	-1.45929e-06
2	1	0	0	0	17.9894	-0.0832003	-0.0837807	0.0164051	1	0.000231755	13	-1.37443e-06
2	1	0	1	0	18.9896	-0.0731979	-0.0737084	0.0169934	1	0.000250248	13	-1.25255e-06
2	1	0	0	0	19.9898	-0.0631956	-0.0630378	0.0176247	1	0.000269312	13	-1.11102e-06
2	1	0	1	0	20.99	-0.0531932	-0.0540548	0.0181635	1	0.000288963	13	-9.81824e-07
2	1	0	0	0	21.9902	-0.0431909	-0.0444523	0.0187729	1	0.000309212	13	-8.345e-07
2	1	0	1	0	22.9905	-0.0331878	-0.0329666	0.0192976	1	0.000330062	13	-6.36176e-07
2	1	0	1	0	23.9908	-0.0231862	-0.0236054	0.0199691	1	0.000351498	13	-4.7138e-07
2	1	0	0	0	24.991	-0.0131838	-0.0136169	0.0206265	1	0.000373545	13	-2.80868e-07
2	1	0	1	0	25.9912	-0.00318146	-0.00368347	0.021205	1	0.00039623	13	-7.81078e-08
2	1	0	0	0	26.9914	0.00682088	0.00670179	0.021871	1	0.000419545	13	1.46575e-07
2	1	0	1	0	27.9916	0.0168232	0.0161748	0.022662	1	0.000443555	13	3.66554e-07
2	1	0	1	0	28.9919	0.0268251	0.0270656	0.0233205	1	0.000468273	13	6.31185e-07
2	1	0	0	0	29.9922	0.0368279	0.0372858	0.0239976	1	0.000493736	13	8.9477e-07
2	1	0	1	0	30.9924	0.0468303	0.0457767	0.0248841	1	0.000519969	13	1.13911e-06
2	1	0	0	0	31.9926	0.0568326	0.0562585	0.0256943	1	0.000547012	13	1.44552e-06
2	1	0	1	0	32.9928	0.066835	0.066631	0.0264915	1	0.000574881	13	1.76516e-06
2	1	0	0	0	33.993	0.0768373	0.0778489	0.0273394	1	0.000603597	13	2.12835e-06
2	1	0	0	0	34.9934	0.0868397	0.0862103	0.0282237	1	0.000633172	13	2.43317e-06
2	1	0	1	0	35.9936	0.096842	0.0963474	0.0290705	1	0.000663571	13	2.80086e-06
2	1	0	0	0	36.9938	0.106844	0.106226	0.0298977	1	0.00069476	13	3.1759e-06
2	1	0	1	0	37.994	0.116847	0.115736	0.0305634	1	0.000726697	13	3.53728e-06
2	1	0	0	0	38.9942	0.126849	0.125442	0.0312479	1	0.000759349	13	3.9198e-06
2	1	0	1	0	39.9944	0.136851	0.137407	0.0319561	1	0.000792674	13	4.39099e-06
2	1	0	1	0	40.9948	0.146854	0.146282	0.032721	1	0.000826631	13	4.78649e-06
2	1	0	0	0	41.995	0.156856	0.156011	0.0332169	1	0.000861165	13	5.18221e-06
2	1	0	1	0	42.9952	0.166858	0.166931	0.0338531	1	0.000896251	13	5.65115e-06
2	1	0	0	0	43.9954	0.176861	0.177576	0.0342871	1	0.000931858	13	6.08857e-06
2	1	0	1	0	44.9956	0.186863	0.185625	0.0348166	1	0.000967957	13	6.46283e-06
2	1	0	1	0	45.9959	0.196866	0.196349	0.0352623	1	0.00100454	13	6.92372e-06
2	1	0	0	0	46.9962	0.206868	0.207364	0.0358973	1	0.00104156	13	7.44381e-06
2	1	0	1	0	47.9964	0.21687	0.216477	0.0364005	1	0.00107903	13	7.87989e-06
2	1	0	0	0	48.9966	0.226872	0.225908	0.036778	1	0.00111696	13	8.30844e-06
2	1	0	1	0	49.9968	0.236875	0.236622	0.037341	1	0.00115535	13	8.83571e-06
2	1	0	0	0	50.997	0.246877	0.246401	0.0378202	1	0.0011942	13	9.31893e-06
2	1	0	1	0	51.9973	0.256879	0.255959	0.0383696	1	0.00123352	13	9.82103e-06
2	1	0	1	0	52.9976	0.266882	0.26753	0.0387668	1	0.00127329	13	1.03713e-05
2	1	0	0	0	53.9978	0.276884	0.276685	0.0392915	1	0.00131353	13	1.08714e-05
2	1	0	1	0	54.998	0.286887	0.286496	0.0398321	1	0.00135424	13	1.14117e-05
2	1	0	0	0	55.9982	0.296889	0.297246	0.0403938	1	0.00139543	13	1.20069e-05
2	1	0	1	0	56.9984	0.306891	0.305937	0.0409308	1	0.00143712	13	1.25223e-05
2	1	0	1	0	57.9988	0.316894	0.316033	0.0415126	1	0.00147933	13	1.31193e-05
2	1	0	0	0	58.999	0.326896	0.326249	0.0420459	1	0.00152206	13	1.37174e-05
2	1	0	1	0	59.9992	0.336898	0.337264	0.0426699	1	0.00156533	13	1.4391e-05
2	1	0	0	0	60.9994	0.346901	0.346722	0.0432288	1	0.00160916	13	1.49884e-05
2	1	0	1	0	61.9996	0.356903	0.355038	0.0438671	1	0.00165357	13	1.55745e-05
2	1	0	1	0	62.9999	0.366906	0.366111	0.0445626	1	0.00169858	13	1.63149e-05
2	1	0	0	0	64.0002	0.376908	0.375958	0.0451621	1	0.0017442	13	1.6979e-05
2	1	0	1	0	65.0004	0.38691	0.385431	0.0458418	1	0.00179044	13	1.76688e-05
2	1	0	0	0	66.0006	0.396912	0.396245	0.046526	1	0.00183732	13	1.84357e-05
2	1	0	1	0	67.0008	0.406915	0.407143	0.0472681	1	0.00188488	13	1.92449e-05
2	1	0	0	0	68.001	0.416917	0.416913	0.0479916	1	0.00193314	13	2.00084e-05
2	1	0	1	0	69.0013	0.426919	0.42596	0.0486736	1	0.00198212	13	2.0733e-05
2	1	0	1	0	70.0016	0.436922	0.436135	0.0495233	1	0.00203185	13	2.15989e-05
2	1	0	0	0	71.0018	0.446924	0.446627	0.0503676	1	0.00208237	13	2.24955e-05
2	1	0	1	0	72.002	0.456926	0.455373	0.0512155	1	0.0021337	13	2.33221e-05
2	1	0	0	0	73.0022	0.466929	0.466582	0.0521249	1	0.00218589	13	2.43205e-05
2	1	0	1	0	74.0024	0.476931	0.478355	0.0531145	1	0.00223899	13	2.54076e-05
2	1	0	1	0	75.0028	0.486933	0.486536	0.054092	1	0.00229305	13	2.63177e-05
2	1	0	0	0	76.003	0.496936	0.496324	0.0550767	1	0.00234811	13	2.73359e-05
2	1	0	1	0	77.0032	0.506938	0.507157	0.0561853	1	0.00240421	13	2.84948e-05
2	1	0	0	0	78.0034	0.516941	0.516276	0.0573529	1	0.00246142	13	2.96099e-05
2	1	0	1	0	79.0036	0.526943	0.526794	0.0585531	1	0.00251981	13	3.08454e-05
2	1	0	0	0	80.0038	0.536945	0.537383	0.0598819	1	0.00257946	13	3.21795e-05
2	1	0	0	0	81.0042	0.546948	0.547293	0.0612453	1	0.00264045	13	3.35191e-05
2	1	0	1	0	82.0044	0.55695	0.555751	0.0626764	1	0.00270285	13	3.48324e-05
2	1	0	0	0	83.0046	0.566952	0.567296	0.0642362	1	0.00276677	13	3.6441e-05
2	1	0	1	0	84.0048	0.576955	0.576873	0.0659172	1	0.00283232	13	3.80259e-05
2	1	0	0	0	85.005	0.586957	0.585949	0.0677177	1	0.00289964	13	3.96791e-05
2	1	0	1	0	86.0053	0.596959	0.59684	0.069695	1	0.00296892	13	4.15968e-05
2	1	0	1	0	87.0056	0.606962	0.606167	0.0718641	1	0.0030403	13	4.35616e-05
2	1	0	0	0	88.0058	0.616964	0.616925	0.0742061	1	0.00311398	13	4.57796e-05
2	1	0	1	0	89.006	0.626966	0.625959	0.0769125	1	0.0031902	13	4.81441e-05
2	1	0	0	0	90.0062	0.636969	0.636555	0.0799982	1	0.00326935	13	5.09232e-05
2	1	0	1	0	91.0064	0.646971	0.646791	0.0836097	1	0.00335186	13	5.4078e-05
2	1	0	1	0	92.0067	0.656973	0.656264	0.0879701	1	0.00343836	13	5.77315e-05
2	1	0	0	0	93.037	0.667276	0.667777	0.0939681	1	0.00353317	12	6.27497e-05
2	1	0	1	0	94.0372	0.677278	0.676752	0.102264	1	0.00363178	12	6.9207e-05
2	1	0	0	0	95.0374	0.68728	0.686941	0.114655	1	0.00374055	12	7.87614e-05
2	1	0	1	0	96.0376	0.697283	0.697043	0.134254	1	0.00386522	12	9.35806e-05
2	1	0	0	0	97.0378	0.707285	0.707336	0.164137	1	0.00401439	12	0.0001161
2	1	0	0	0	98.0382	0.717288	0.716235	0.206334	1	0.00419936	12	0.000147784
2	1	0	1	0	99.0384	0.72729	0.726983	0.264097	1	0.00443414	12	0.000191994
2	1	0	0	0	100.039	0.737292	0.7364	0.342676	1	0.00473676	12	0.000252346
2	1	0	1	0	101.039	0.747295	0.746186	0.448475	1	0.00513102	12	0.000334646
2	1	0	0	0	102.039	0.757297	0.757009	0.588387	1	0.00564764	12	0.000445414
2	1	0	1	0	103.039	0.767299	0.76591	0.770942	1	0.00632512	12	0.000590472
2	1	0	1	0	104.04	0.777302	0.777512	1.00361	1	0.00720981	12	0.000780319
2	1	0	0	0	105.07	0.787604	0.785707	1.30451	1	0.00839655	11	0.00102497
2	1	0	1	0	106.07	0.797606	0.798306	1.66085	1	0.00987607	11	0.00132587
2	1	0	0	0	107.07	0.807609	0.807497	2.08684	1	0.0117462	11	0.00168512
2	1	0	1	0	108.07	0.817611	0.816861	2.58413	1	0.0140783	11	0.00211087
2	1	0	1	0	109.071	0.827613	0.827127	3.15845	1	0.0169481	11	0.00261244
2	1	0	0	0	110.071	0.837616	0.838324	3.81652	1	0.0204329	11	0.00319948
2	1	0	1	0	111.071	0.847618	0.846281	4.55507	1	0.0246149	11	0.00385487
2	1	0	0	0	112.071	0.85762	0.857145	5.37978	1	0.0295797	11	0.00461125
2	1	0	1	0	113.072	0.867623	0.868335	6.29714	1	0.0354162	11	0.00546802
2	1	0	1	0	114.072	0.877626	0.877055	7.31588	1	0.0422211	11	0.00641643
2	1	0	0	0	115.072	0.887627	0.888181	8.43764	1	0.0500951	11	0.00749415
2	1	0	1	0	116.072	0.89763	0.898211	9.68046	1	0.0591504	11	0.00869509
2	1	0	0	0	117.103	0.907932	0.907049	11.1081	1	0.0698509	10	0.0100756
2	1	0	1	0	118.103	0.917935	0.917024	12.6507	1	0.0817259	10	0.011601
2	1	0	0	0	119.103	0.927937	0.928667	14.3828	1	0.0952365	10	0.0133568
2	1	0	0	0	120.103	0.937939	0.938086	16.3163	1	0.110579	10	0.0153061
2	1	0	1	0	121.104	0.947942	0.947393	18.4316	1	0.12795	10	0.017462
2	1	0	0	0	122.104	0.957944	0.958481	20.6356	1	0.147497	10	0.0197788
2	1	0	1	0	123.104	0.967946	0.968136	22.8163	1	0.169249	10	0.0220892
2	1	0	0	0	124.104	0.977949	0.977391	24.8317	1	0.193096	10	0.0242702
2	1	0	1	0	125.104	0.987951	0.987669	26.6228	1	0.218864	10	0.0262945
2	1	0	1	0	126.105	0.997953	0.998276	28.1247	1	0.246282	10	0.0280762
2	1	0	0	0	126.965	0.993452	0.993587	26.7952	1	0.270159	10	0.0266233
2	1	0	1	0	127.966	0.98345	0.982541	24.4253	1	0.295763	10	0.0239988
2	1	0	0	0	128.966	0.973448	0.972787	22.1424	1	0.319026	10	0.0215399
2	1	0	1	0	129.966	0.963445	0.962855	20.0175	1	0.340104	10	0.019274
2	1	0	1	0	130.966	0.953443	0.953492	18.0463	1	0.359118	10	0.017207
2	1	0	0	0	131.967	0.943441	0.94297	16.1901	1	0.376206	10	0.0152668
2	1	0	1	0	132.967	0.933438	0.933044	14.486	1	0.391526	10	0.0135161
2	1	0	0	0	133.967	0.923436	0.923274	12.9571	1	0.405229	10	0.0119629
2	1	0	1	0	134.967	0.913434	0.911944	11.5292	1	0.417457	10	0.010514
2	1	0	1	0	135.967	0.903432	0.902785	10.2208	1	0.428316	10	0.00922715
2	1	0	0	0	136.968	0.893429	0.893739	9.00131	1	0.437919	10	0.00804482
2	1	0	1	0	137.968	0.883427	0.882363	7.89684	1	0.446359	10	0.00696788
2	1	0	0	0	138.968	0.873424	0.874114	6.88653	1	0.453739	10	0.00601961
2	1	0	1	0	139.968	0.863422	0.863671	5.95986	1	0.460152	10	0.00514736
2	1	0	0	0	140.969	0.853419	0.853692	5.12378	1	0.465683	10	0.00437413
2	1	0	0	0	141.999	0.843117	0.842764	4.34351	1	0.470555	11	0.00366055
2	1	0	1	0	142.999	0.833115	0.833176	3.67185	1	0.474554	11	0.0030593
2	1	0	0	0	143.999	0.823112	0.823755	3.07911	1	0.47792	11	0.00253643
2	1	0	1	0	145	0.81311	0.812449	2.55458	1	0.480728	11	0.00207547
2	1	0	0	0	146	0.803108	0.802757	2.096	1	0.483047	11	0.00168258
2	1	0	1	0	147	0.793105	0.792933	1.70386	1	0.484942	11	0.00135104
2	1	0	1	0	148	0.783103	0.782689	1.3684	1	0.486471	11	0.00107103
2	1	0	0	0	149.001	0.773101	0.772094	1.08294	1	0.487691	11	0.000836133
2	1	0	1	0	150.001	0.763098	0.763611	0.845717	1	0.488651	11	0.000645798
2	1	0	0	0	151.001	0.753096	0.752608	0.652736	1	0.489396	11	0.000491254
2	1	0	1	0	152.001	0.743094	0.742602	0.494045	1	0.489965	11	0.000366879
2	1	0	1	0	153.032	0.732791	0.73286	0.363214	1	0.490403	12	0.000266185
2	1	0	0	0	154.032	0.722789	0.722494	0.265369	1	0.490714	12	0.000191727
2	1	0	1	0	155.032	0.712787	0.711601	0.189904	1	0.49094	12	0.000135136
2	1	0	0	0	156.032	0.702784	0.703197	0.133339	1	0.491099	12	9.37635e-05
2	1	0	1	0	157.032	0.692782	0.693365	0.0922674	1	0.49121	12	6.3975e-05
2	1	0	0	0	158.033	0.682779	0.681493	0.0630622	1	0.491286	12	4.29764e-05
2	1	0	0	0	159.033	0.672777	0.672087	0.0430419	1	0.491338	12	2.89279e-05
2	1	0	1	0	160.033	0.662775	0.663506	0.0302206	1	0.491374	12	2.00515e-05
2	1	0	0	0	161.033	0.652772	0.651989	0.0219695	1	0.491399	12	1.43238e-05
2	1	0	1	0	162.034	0.64277	0.642213	0.0166762	1	0.491418	12	1.07097e-05
2	0	0	0	0	163.034	0.632768	0.633192	0.0131328	1	0.491432	12	8.31556e-06
2	1	0	1	0	164.034	0.622765	0.621479	0.0108614	1	0.491443	12	6.75012e-06
2	1	0	1	0	165.034	0.612763	0.613003	0.00946225	1	0.491453	12	5.80039e-06
2	0	0	0	0	166.035	0.602761	0.603239	0.00818051	1	0.491461	12	4.93481e-06
2	0	0	1	0	167.035	0.592758	0.593477	0.00744726	1	0.491469	12	4.41978e-06
2	1	0	0	0	168.035	0.582756	0.582477	0.00690552	1	0.491475	12	4.02231e-06
2	1	0	1	0	169.035	0.572754	0.572276	0.00621725	1	0.491482	12	3.55798e-06
2	1	0	1	0	170.035	0.562752	0.563517	0.00581146	1	0.491487	12	3.27486e-06
2	1	0	0	0	171.036	0.552749	0.55249	0.00547774	1	0.491492	12	3.0264e-06
2	1	0	1	0	172.036	0.542747	0.541847	0.00506394	1	0.491497	12	2.74388e-06
2	1	0	0	0	173.036	0.532744	0.533754	0.00460903	1	0.491502	12	2.46009e-06
2	1	0	1	0	174.036	0.522742	0.522475	0.00433833	1	0.491506	12	2.26667e-06
2	0	0	0	0	175.037	0.51274	0.511394	0.00409232	1	0.49151	12	2.09279e-06
2	1	0	0	0	176.037	0.502737	0.502926	0.00378319	1	0.491513	12	1.90266e-06
2	1	0	1	0	177.037	0.492735	0.492171	0.0034225	1	0.491517	12	1.68445e-06
2	1	0	0	0	178.037	0.482733	0.482091	0.00334541	1	0.49152	12	1.61279e-06
2	1	0	1	0	179.038	0.47273	0.472803	0.00318789	1	0.491523	12	1.50724e-06
2	0	0	0	0	180.038	0.462728	0.462364	0.00287065	1	0.491526	12	1.32729e-06
2	0	0	1	0	181.038	0.452725	0.451315	0.00268967	1	0.491528	12	1.21389e-06
2	1	0	1	0	182.038	0.442723	0.44277	0.00255414	1	0.491531	12	1.1309e-06
2	1	0	0	0	183.039	0.432721	0.432965	0.00233957	1	0.491533	12	1.01295e-06
2	1	0	1	0	184.039	0.422718	0.422416	0.00218902	1	0.491535	12	9.24678e-07
2	0	0	0	0	185.039	0.412716	0.412369	0.00195188	1	0.491536	12	8.04895e-07
2	1	0	1	0	186.039	0.402714	0.402584	0.00171178	1	0.491538	12	6.89133e-07
2	1	0	1	0	187.039	0.392712	0.393663	0.00172287	1	0.49154	12	6.78228e-07
2	0	0	0	0	188.04	0.382709	0.381657	0.00161906	1	0.491541	12	6.17927e-07
2	0	0	1	0	189.04	0.372707	0.372439	0.00131704	1	0.491542	12	4.90517e-07
2	0	0	0	0	190.04	0.362704	0.36387	0.00127791	1	0.491543	12	4.64995e-07
2	0	0	1	0	191.04	0.352702	0.352806	0.0012995	1	0.491544	12	4.58472e-07
2	1	0	0	0	192.041	0.3427	0.340983	0.00101852	1	0.491545	12	3.47298e-07
2	1	0	0	0	193.041	0.332697	0.333438	0.000962314	1	0.491546	12	3.20872e-07
2	1	0	1	0	194.041	0.322695	0.322215	0.00102996	1	0.491546	12	3.3187e-07
2	1	0	0	0	195.041	0.312693	0.311427	0.000836837	1	0.491547	12	2.60614e-07
2	1	0	1	0	196.042	0.30269	0.302081	0.000621593	1	0.491547	12	1.87771e-07
2	0	0	0	0	197.042	0.292688	0.292686	0.000493671	1	0.491547	12	1.44491e-07
2	0	0	1	0	198.042	0.282686	0.28155	0.000475058	1	0.491548	12	1.33752e-07
2	1	0	1	0	199.042	0.272683	0.271475	0.000345413	1	0.491548	12	9.37713e-08
2	1	0	0	0	200.043	0.262681	0.263407	0.000279767	1	0.491547	12	7.36924e-08
2	1	0	1	0	201.043	0.252679	0.251717	0.000218935	1	0.491547	12	5.51096e-08
2	1	0	0	0	202.043	0.242676	0.241984	-8.6519e-05	1	0.491547	12	-2.09362e-08
2	0	0	1	0	203.043	0.232674	0.233174	-0.000246219	1	0.491547	12	-5.74117e-08
2	0	0	1	0	204.043	0.222671	0.222822	-0.000165527	1	0.491546	12	-3.68829e-08
2	0	0	0	0	205.044	0.212669	0.21152	-0.00040072	1	0.491545	12	-8.47601e-08
2	0	0	1	0	206.044	0.202667	0.202072	-0.000617555	1	0.491545	12	-1.24791e-07
2	0	0	0	0	207.044	0.192664	0.193067	-0.000614875	1	0.491544	12	-1.18712e-07
2	0	0	1	0	208.044	0.182662	0.181538	-0.000683217	1	0.491543	12	-1.2403e-07
2	0	0	0	0	209.045	0.17266	0.172669	-0.000964462	1	0.491542	12	-1.66532e-07
2	0	0	1	0	210.045	0.162658	0.162606	-0.00110544	1	0.49154	12	-1.79751e-07
2	0	0	1	0	211.045	0.152655	0.152422	-0.0010782	1	0.491539	12	-1.64342e-07
2	0	0	0	0	212.045	0.142653	0.141415	-0.00124962	1	0.491537	12	-1.76716e-07
2	0	0	1	0	213.046	0.13265	0.132796	-0.00150772	1	0.491536	12	-2.00219e-07
2	0	0	0	0	214.046	0.122648	0.122317	-0.00151021	1	0.491534	12	-1.84725e-07
2	0	0	1	0	215.046	0.112646	0.111948	-0.00167468	1	0.491532	12	-1.87477e-07
2	1	0	1	0	216.046	0.102643	0.10204	-0.00177269	1	0.49153	12	-1.80886e-07
2	1	0	0	0	217.047	0.092641	0.0929277	-0.00186267	1	0.491528	12	-1.73093e-07
2	1	0	1	0	218.047	0.0826387	0.0824067	-0.00205095	1	0.491525	12	-1.69012e-07
2	1	0	0	0	219.047	0.0726363	0.0725751	-0.0022737	1	0.491522	12	-1.65014e-07
2	1	0	1	0	220.047	0.062634	0.0630321	-0.0026675	1	0.49152	12	-1.68138e-07
2	0	0	1	0	221.047	0.052631	0.0523316	-0.00276732	1	0.491517	12	-1.44818e-07
2	0	0	0	0	222.048	0.0426293	0.0421332	-0.0028889	1	0.491513	12	-1.21718e-07
2	1	0	1	0	223.048	0.0326269	0.032378	-0.00329728	1	0.49151	12	-1.06759e-07
2	1	0	0	0	224.048	0.0226246	0.0218771	-0.0034025	1	0.491506	12	-7.44369e-08
2	1	0	1	0	225.048	0.0126222	0.011983	-0.00356379	1	0.491502	12	-4.27048e-08
2	1	0	0	0	226.049	0.0026199	0.0029586	-0.00397858	1	0.491498	12	-1.1771e-08
2	0	0	0	1	226.869	0.00552058	0.0046154	-0.00204316	2	0.491496	12	-9.43e-09
2	0	0	1	1	227.87	0.0155229	0.0160476	-0.000984621	2	0.491494	12	-1.58008e-08
2	0	0	0	1	228.87	0.0255253	0.025021	-4.40942e-05	2	0.491494	12	-1.10328e-09
2	0	0	1	1	229.87	0.0355269	0.0346921	0.000532257	2	0.491495	12	1.84652e-08
2	1	0	1	1	230.87	0.04553	0.0447308	0.00063168	2	0.491496	12	2.82556e-08
2	1	0	0	1	231.871	0.0555323	0.0558671	0.00121585	2	0.491497	12	6.79258e-08
2	1	0	1	1	232.871	0.0655347	0.0647292	0.00158265	2	0.491499	12	1.02443e-07
2	1	0	0	1	233.871	0.075537	0.0749829	0.00170086	2	0.4915	12	1.27536e-07
2	1	0	1	1	234.871	0.0855393	0.0861467	0.0018686	2	0.491503	12	1.60974e-07
2	1	0	1	1	235.872	0.0955417	0.0943363	0.0022167	2	0.491505	12	2.09116e-07
2	1	0	0	1	236.872	0.105544	0.105133	0.0023839	2	0.491507	12	2.50627e-07
2	1	0	1	1	237.872	0.115546	0.114638	0.00241127	2	0.49151	12	2.76424e-07
2	1	0	0	1	238.872	0.125549	0.124902	0.00264335	2	0.491513	12	3.30161e-07
2	1	0	1	1	239.872	0.135551	0.135069	0.00290698	2	0.491516	12	3.92644e-07
2	1	0	1	1	240.873	0.145554	0.145007	0.00303103	2	0.491519	12	4.39519e-07
2	1	0	0	1	241.873	0.155556	0.155882	0.00307617	2	0.491523	12	4.79519e-07
2	1	0	1	1	242.873	0.165558	0.165329	0.00331806	2	0.491526	12	5.48571e-07
2	1	0	0	1	243.873	0.17556	0.175076	0.00330789	2	0.49153	12	5.79133e-07
2	1	0	1	1	244.874	0.185563	0.185895	0.00348106	2	0.491534	12	6.47113e-07
2	0	0	0	1	245.874	0.195565	0.19571	0.0037889	2	0.491537	12	7.41526e-07
2	0	0	1	1	246.874	0.205567	0.204256	0.00372035	2	0.491541	12	7.59903e-07
2	0	0	1	1	247.874	0.21557	0.215219	0.00382228	2	0.491546	12	8.22629e-07
2	0	0	0	1	248.875	0.225572	0.225602	0.00404988	2	0.49155	12	9.13664e-07
2	0	0	1	1	249.875	0.235575	0.23437	0.0042279	2	0.491554	12	9.90894e-07
2	0	0	0	1	250.875	0.245577	0.243814	0.00427432	2	0.491559	12	1.04214e-06
2	0	0	1	1	251.875	0.255579	0.256195	0.00431723	2	0.491563	12	1.10605e-06
2	0	0	1	1	252.876	0.265582	0.265743	0.00452564	2	0.491568	12	1.20266e-06
2	0	0	0	1	253.876	0.275584	0.274867	0.00469385	2	0.491573	12	1.29019e-06
2	0	0	1	1	254.876	0.285586	0.284401	0.00480992	2	0.491578	12	1.36795e-06
2	0	0	0	1	255.876	0.295589	0.294877	0.0047894	2	0.491583	12	1.41229e-06
2	0	0	1	1	256.876	0.305591	0.305545	0.00495673	2	0.491588	12	1.5145e-06
2	0	0	1	1	257.877	0.315594	0.315393	0.00511261	2	0.491593	12	1.61248e-06
2	0	0	0	1	258.877	0.325596	0.325823	0.00516878	2	0.491598	12	1.68411e-06
2	0	0	1	1	259.877	0.335598	0.33553	0.00540505	2	0.491604	12	1.81356e-06
2	0	0	0	1	260.877	0.3456	0.344667	0.00534307	2	0.49161	12	1.84158e-06
2	0	0	1	1	261.878	0.355603	0.355794	0.00556621	2	0.491615	12	1.98043e-06
2	0	0	0	1	262.878	0.365605	0.365463	0.00574952	2	0.491621	12	2.10124e-06
2	0	0	1	1	263.878	0.375607	0.37457	0.0058986	2	0.491627	12	2.20944e-06
2	0	0	1	1	264.878	0.38561	0.385724	0.00583207	2	0.491633	12	2.24957e-06
2	0	0	0	1	265.879	0.395612	0.395543	0.00605724	2	0.49164	12	2.3959e-06
2	0	0	1	1	266.879	0.405614	0.404443	0.00629983	2	0.491646	12	2.54792e-06
2	0	0	0	1	267.879	0.415617	0.414983	0.00639531	2	0.491653	12	2.65394e-06
2	0	0	1	1	268.879	0.425619	0.425243	0.00649326	2	0.49166	12	2.76122e-06
2	1	0	1	1	269.879	0.435621	0.435235	0.00680037	2	0.491667	12	2.95976e-06
2	1	0	0	1	270.88	0.445624	0.444748	0.00705711	2	0.491674	12	3.13864e-06
2	1	0	1	1	271.88	0.455626	0.456075	0.00704443	2	0.491681	12	3.21279e-06
2	1	0	0	1	272.88	0.465629	0.465682	0.0073826	2	0.491688	12	3.43795e-06
2	1	0	1	1	273.88	0.475631	0.474845	0.00766457	2	0.491696	12	3.63949e-06
2	1	0	0	1	274.881	0.485633	0.48634	0.00784143	2	0.491704	12	3.8136e-06
2	1	0	0	1	275.881	0.495636	0.496525	0.007982	2	0.491712	12	3.96326e-06
2	1	0	1	1	276.881	0.505638	0.505662	0.00849309	2	0.491721	12	4.29463e-06
2	1	0	0	1	277.881	0.51564	0.514372	0.00868264	2	0.49173	12	4.46611e-06
2	1	0	1	1	278.882	0.525643	0.52548	0.00891347	2	0.491739	12	4.68385e-06
2	1	0	0	1	279.882	0.535645	0.535322	0.0096001	2	0.491748	12	5.13914e-06
2	0	0	1	1	280.882	0.545648	0.545042	0.00987146	2	0.491758	12	5.38036e-06
2	1	0	1	1	281.882	0.55565	0.554947	0.0102087	2	0.491769	12	5.66527e-06
2	0	0	0	1	282.883	0.565652	0.566368	0.0108585	2	0.491779	12	6.14992e-06
2	0	0	1	1	283.883	0.575654	0.57562	0.0115274	2	0.491791	12	6.63537e-06
2	0	0	0	1	284.883	0.585657	0.585423	0.0119857	2	0.491803	12	7.01668e-06
2	0	0	1	1	285.883	0.595659	0.595825	0.0126318	2	0.491815	12	7.52635e-06
2	0	0	1	1	286.883	0.605661	0.605754	0.0135251	2	0.491829	12	8.1929e-06
2	0	0	0	1	287.884	0.615664	0.614365	0.0144475	2	0.491843	12	8.87601e-06
2	0	0	1	1	288.884	0.625666	0.625319	0.0154385	2	0.491858	12	9.654e-06
2	0	0	0	1	289.884	0.635668	0.636614	0.0166655	2	0.491875	12	1.06095e-05
2	0	0	1	1	290.884	0.645671	0.645675	0.0182499	2	0.491892	12	1.17835e-05
2	1	0	0	1	291.885	0.655673	0.654829	0.0200621	2	0.491912	12	1.31373e-05
2	0	0	0	1	292.885	0.665675	0.665763	0.022816	2	0.491934	12	1.519e-05
2	1	0	1	1	293.885	0.675678	0.675248	0.0268058	2	0.491959	12	1.81005e-05
2	1	0	0	1	294.885	0.68568	0.684764	0.0332212	2	0.491989	12	2.27487e-05
2	1	0	1	1	295.886	0.695682	0.695067	0.0435083	2	0.492027	12	3.02412e-05
2	1	0	0	1	296.886	0.705685	0.706079	0.0599675	2	0.492079	12	4.23418e-05
2	1	0	1	1	297.886	0.715687	0.714845	0.0845284	2	0.492151	12	6.04247e-05
2	1	0	1	1	298.886	0.725689	0.725196	0.119597	2	0.492253	12	8.67312e-05
2	1	0	0	1	299.887	0.735692	0.736138	0.169954	2	0.492397	12	0.00012511
2	1	0	1	1	300.887	0.745694	0.744194	0.241531	2	0.492601	12	0.000179746
2	1	0	0	1	301.887	0.755696	0.755522	0.34129	2	0.49289	12	0.000257852
2	1	0	1	1	302.887	0.765699	0.766005	0.477512	2	0.493298	12	0.000365777
2	1	0	1	1	303.887	0.775702	0.776515	0.658402	2	0.493863	12	0.000511259
2	1	0	0	1	304.888	0.785703	0.784795	0.890903	2	0.494635	12	0.000699177
2	1	0	1	1	305.918	0.796006	0.794354	1.19154	2	0.495704	11	0.000946506
2	1	0	0	1	306.918	0.806008	0.80629	1.54404	2	0.497069	11	0.00124494
2	1	0	1	1	307.918	0.816011	0.814751	1.96432	2	0.49882	11	0.00160043
2	1	0	0	1	308.919	0.826013	0.826369	2.45129	2	0.501026	11	0.00202567
2	1	0	0	1	309.919	0.836015	0.836797	3.01161	2	0.503755	11	0.00252011
2	1	0	1	1	310.919	0.846018	0.845426	3.64467	2	0.50708	11	0.0030813
2	1	0	0	1	311.919	0.85602	0.85522	4.34554	2	0.511073	11	0.00371639
2	1	0	1	1	312.92	0.866022	0.865913	5.11252	2	0.515802	11	0.00442699
2	1	0	0	1	313.92	0.876025	0.87627	5.94301	2	0.52133	11	0.00520769
2	1	0	1	1	314.92	0.886027	0.884889	6.81919	2	0.527712	11	0.00603423
2	1	0	1	1	315.92	0.896029	0.895146	7.73462	2	0.534994	11	0.00692362
2	1	0	0	1	316.921	0.906032	0.906533	8.68093	2	0.543207	11	0.00786954
2	1	0	1	1	317.921	0.916034	0.91629	9.64308	2	0.552375	11	0.00883586
2	1	0	0	1	318.921	0.926036	0.926092	10.6176	2	0.562509	11	0.0098329
2	1	0	1	1	319.951	0.936339	0.936789	11.6504	2	0.573986	10	0.010914
2	1	0	1	1	320.952	0.946341	0.944629	12.6704	2	0.586159	10	0.0119688
2	1	0	0	1	321.952	0.956344	0.956524	13.6912	2	0.599348	10	0.013096
2	1	0	1	1	322.952	0.966346	0.965966	14.6959	2	0.613551	10	0.0141957
2	1	0	0	1	323.952	0.976348	0.977483	15.6935	2	0.628751	10	0.0153401
2	1	0	1	1	324.952	0.986351	0.985507	16.6494	2	0.644932	10	0.0164081
2	1	0	0	1	325.953	0.996353	0.996105	17.5476	2	0.662043	10	0.0174793
2	1	0	0	1	326.773	0.995453	0.994292	17.0934	2	0.676476	10	0.0169958
2	1	0	1	1	327.774	0.98545	0.984982	15.4533	2	0.692745	10	0.0152213
2	1	0	0	1	328.774	0.975448	0.976426	13.9705	2	0.707446	10	0.0136412
2	1	0	1	1	329.774	0.965446	0.964457	12.611	2	0.720722	10	0.0121627
2	1	0	0	1	330.774	0.955443	0.954401	11.3564	2	0.732691	10	0.0108385
2	1	0	0	1	331.775	0.945441	0.945797	10.2109	2	0.743471	10	0.00965746
2	1	0	1	1	332.775	0.935439	0.934884	9.18618	2	0.753162	10	0.00858802
2	1	0	0	1	333.775	0.925436	0.924414	8.23328	2	0.761859	10	0.00761096
2	1	0	1	1	334.775	0.915434	0.916132	7.35082	2	0.76964	10	0.00673433
2	1	0	0	1	335.775	0.905432	0.905638	6.5479	2	0.776585	10	0.00593002
2	1	0	1	1	336.776	0.895428	0.895043	5.81824	2	0.782764	10	0.00520757
2	1	0	1	1	337.776	0.885427	0.885424	5.13819	2	0.788234	10	0.00454948
2	1	0	0	1	338.776	0.875425	0.874907	4.52176	2	0.793056	10	0.00395612
2	1	0	1	1	339.806	0.865122	0.864682	3.93109	2	0.797399	11	0.00339915
2	1	0	0	1	340.807	0.85512	0.855489	3.41848	2	0.801068	11	0.00292448
2	1	0	1	1	341.807	0.845117	0.844322	2.95435	2	0.804249	11	0.00249443
2	1	0	1	1	342.807	0.835116	0.834557	2.5339	2	0.806989	11	0.00211468
2	1	0	0	1	343.807	0.825113	0.826649	2.15915	2	0.80933	11	0.00178486
2	1	0	1	1	344.808	0.81511	0.814188	1.82209	2	0.811317	11	0.00148352
2	1	0	0	1	345.808	0.805108	0.802982	1.5249	2	0.812986	11	0.00122447
2	1	0	1	1	346.808	0.795106	0.796854	1.26211	2	0.814376	11	0.00100571
2	1	0	0	1	347.808	0.785103	0.783155	1.03496	2	0.815519	11	0.00081053
2	1	0	0	1	348.809	0.775101	0.774995	0.834527	2	0.816451	11	0.000646755
2	1	0	1	1	349.809	0.765099	0.763788	0.667513	2	0.817199	11	0.000509839
2	1	0	0	1	350.809	0.755096	0.754199	0.523656	2	0.817791	11	0.000394941
2	1	0	1	1	351.839	0.744794	0.744835	0.400097	2	0.818263	12	0.000298007
2	1	0	0	1	352.839	0.734792	0.733918	0.302891	2	0.818612	12	0.000222297
2	1	0	1	1	353.84	0.724789	0.724473	0.22474	2	0.818874	12	0.000162818
2	1	0	1	1	354.84	0.714787	0.713482	0.16305	2	0.819066	12	0.000116333
2	1	0	0	1	355.84	0.704785	0.704794	0.115641	2	0.819203	12	8.15035e-05
2	1	0	1	1	356.84	0.694782	0.694591	0.0798691	2	0.819299	12	5.54764e-05
2	1	0	0	1	357.841	0.68478	0.685083	0.0539659	2	0.819364	12	3.69711e-05
2	1	0	1	1	358.841	0.674778	0.675556	0.0359983	2	0.819408	12	2.43189e-05
2	0	0	1	1	359.841	0.664775	0.663758	0.0241262	2	0.819438	12	1.6014e-05
2	0	0	0	1	360.841	0.654773	0.65666	0.0164168	2	0.819457	12	1.07803e-05
2	0	0	1	1	361.842	0.644771	0.644665	0.0114444	2	0.81947	12	7.37781e-06
2	0	0	0	1	362.842	0.634768	0.633829	0.00847271	2	0.81948	12	5.37025e-06
2	0	0	1	1	363.842	0.624766	0.623683	0.00656037	2	0.819487	12	4.09159e-06
2	0	0	0	1	364.842	0.614764	0.613851	0.00524578	2	0.819492	12	3.22013e-06
2	1	0	0	1	365.843	0.604761	0.60373	0.00425114	2	0.819497	12	2.56654e-06
2	1	0	1	1	366.843	0.594759	0.594101	0.00381339	2	0.8195	12	2.26554e-06
2	1	0	0	1	367.843	0.584756	0.584132	0.00349857	2	0.819504	12	2.04363e-06
2	1	0	1	1	368.843	0.574754	0.57425	0.00313196	2	0.819506	12	1.79853e-06
2	1	0	0	1	369.843	0.564752	0.564262	0.0028597	2	0.819509	12	1.61362e-06
2	1	0	1	1	370.844	0.554749	0.555572	0.00251586	2	0.819511	12	1.39774e-06
2	1	0	1	1	371.844	0.544747	0.544099	0.00241459	2	0.819514	12	1.31377e-06
2	1	0	0	1	372.844	0.534745	0.535225	0.00240054	2	0.819516	12	1.28483e-06
2	1	0	1	1	373.844	0.524742	0.52499	0.00223155	2	0.819517	12	1.17154e-06
2	1	0	0	1	374.845	0.51474	0.513972	0.00200617	2	0.819519	12	1.03112e-06
2	1	0	1	1	375.845	0.504738	0.503685	0.0018923	2	0.819521	12	9.53121e-07
2	1	0	1	1	376.845	0.494736	0.494393	0.00170335	2	0.819522	12	8.42124e-07
2	1	0	0	1	377.845	0.484733	0.483422	0.00158905	2	0.819524	12	7.68183e-07
2	1	0	1	1	378.846	0.474731	0.475536	0.00150354	2	0.819525	12	7.14988e-07
2	1	0	0	1	379.846	0.464728	0.465791	0.00130407	2	0.819526	12	6.07423e-07
2	1	0	1	1	380.846	0.454726	0.455354	0.00136331	2	0.819527	12	6.20788e-07
2	1	0	0	1	381.846	0.444724	0.444197	0.00122959	2	0.819528	12	5.46178e-07
2	1	0	0	1	382.847	0.434721	0.434936	0.000943657	2	0.819529	12	4.1043e-07
2	1	0	1	1	383.847	0.424719	0.423062	0.000940727	2	0.81953	12	3.97986e-07
2	1	0	0	1	384.847	0.414717	0.414145	0.000923189	2	0.81953	12	3.82334e-07
2	0	0	1	1	385.847	0.404714	0.403949	0.000891514	2	0.819531	12	3.60126e-07
2	0	0	0	1	386.847	0.394712	0.39277	0.000659055	2	0.819531	12	2.58857e-07
2	0	0	1	1	387.848	0.384709	0.384758	0.000554228	2	0.819532	12	2.13244e-07
2	0	0	1	1	388.848	0.374707	0.373844	0.000643991	2	0.819532	12	2.40752e-07
2	0	0	0	1	389.848	0.364705	0.364388	0.000564649	2	0.819532	12	2.05751e-07
2	0	0	1	1	390.848	0.354702	0.354704	0.000522445	2	0.819532	12	1.85313e-07
2	0	0	0	1	391.849	0.3447	0.344665	0.000369785	2	0.819532	12	1.27452e-07
2	0	0	1	1	392.849	0.334698	0.332526	0.000479814	2	0.819533	12	1.59551e-07
2	0	0	1	1	393.849	0.324695	0.324863	0.000363065	2	0.819532	12	1.17946e-07
2	0	0	0	1	394.849	0.314693	0.31513	6.27402e-05	2	0.819532	12	1.97713e-08
2	0	0	1	1	395.85	0.304691	0.306556	-9.1673e-05	2	0.819532	12	-2.81029e-08
2	0	0	0	1	396.85	0.294688	0.295074	-1.33915e-05	2	0.819532	12	-3.95148e-09
2	0	0	1	1	397.85	0.284686	0.282804	-3.82042e-05	2	0.819532	12	-1.08043e-08
2	1	0	0	1	398.85	0.274684	0.273612	-0.000160162	2	0.819531	12	-4.38222e-08
2	1	0	1	1	399.85	0.264682	0.263533	-0.000316683	2	0.819531	12	-8.34563e-08
2	1	0	1	1	400.851	0.254679	0.25369	-0.000208329	2	0.81953	12	-5.2851e-08
2	1	0	0	1	401.851	0.244677	0.244071	-0.000225205	2	0.81953	12	-5.49661e-08
2	1	0	1	1	402.851	0.234674	0.235702	-0.000360828	2	0.819529	12	-8.50481e-08
2	1	0	0	1	403.851	0.224672	0.22592	-0.000500678	2	0.819528	12	-1.13113e-07
2	0	0	1	1	404.852	0.21467	0.215712	-0.000543573	2	0.819527	12	-1.17255e-07
2	1	0	1	1	405.852	0.204667	0.205236	-0.00050433	2	0.819526	12	-1.03507e-07
2	1	0	0	1	406.852	0.194665	0.193608	-0.000715922	2	0.819525	12	-1.38608e-07
2	0	0	1	1	407.852	0.184663	0.184542	-0.000899742	2	0.819524	12	-1.6604e-07
2	0	0	0	1	408.853	0.17466	0.17556	-0.00103193	2	0.819523	12	-1.81166e-07
2	0	0	1	1	409.853	0.164658	0.164219	-0.000978422	2	0.819522	12	-1.60676e-07
2	0	0	1	1	410.853	0.154655	0.154369	-0.00120736	2	0.81952	12	-1.8638e-07
2	0	0	0	1	411.853	0.144653	0.144742	-0.00118175	2	0.819519	12	-1.71049e-07
2	0	0	1	1	412.854	0.134651	0.134385	-0.00132076	2	0.819517	12	-1.77491e-07
2	1	0	0	1	413.854	0.124649	0.124455	-0.00157159	2	0.819515	12	-1.95591e-07
2	0	0	1	1	414.854	0.114646	0.1136	-0.00156363	2	0.819514	12	-1.77628e-07
2	1	0	0	1	415.854	0.104644	0.102907	-0.00168698	2	0.819512	12	-1.73601e-07
2	1	0	1	1	416.854	0.0946419	0.094967	-0.00187928	2	0.81951	12	-1.78469e-07
2	1	0	1	1	417.855	0.0846391	0.0855485	-0.00200147	2	0.819507	12	-1.71223e-07
2	1	0	0	1	418.855	0.0746368	0.0746583	-0.0020394	2	0.819505	12	-1.52258e-07
2	1	0	1	1	419.855	0.0646344	0.064325	-0.00206756	2	0.819503	12	-1.32996e-07
2	1	0	0	1	420.855	0.0546321	0.0536237	-0.00249837	2	0.8195	12	-1.33972e-07
2	1	0	1	1	421.856	0.0446297	0.0452644	-0.00260534	2	0.819497	12	-1.17929e-07
2	1	0	1	1	422.856	0.0346274	0.0339553	-0.00255091	2	0.819495	12	-8.66169e-08
2	1	0	0	1	423.856	0.0246251	0.0237185	-0.00277972	2	0.819491	12	-6.59308e-08
2	1	0	1	1	424.856	0.0146227	0.0145393	-0.00313691	2	0.819488	12	-4.56083e-08
2	1	0	0	1	425.857	0.00462037	0.00484875	-0.00332868	2	0.819485	12	-1.61399e-08
2	1	0	0	0	426.677	0.00352011	0.00315164	-0.00202234	3	0.819482	12	-6.37369e-09
2	1	0	1	0	427.678	0.0135225	0.0124773	-0.000873325	3	0.819481	12	-1.08967e-08
2	1	0	0	0	428.678	0.0235248	0.0231436	-0.000316327	3	0.819481	12	-7.32096e-09
2	0	0	1	0	429.678	0.0335272	0.0341345	3.32152e-05	3	0.819481	12	1.13378e-09
2	1	0	1	0	430.678	0.0435299	0.0423328	0.000534359	3	0.819482	12	2.26209e-08
2	0	0	0	0	431.679	0.0535318	0.0524972	0.000814896	3	0.819483	12	4.27798e-08
2	1	0	1	0	432.679	0.0635342	0.0637247	0.000822068	3	0.819484	12	5.2386e-08
2	1	0	0	0	433.679	0.0735365	0.0735541	0.00101958	3	0.819485	12	7.49945e-08
2	1	0	1	0	434.679	0.0835389	0.0831481	0.00136712	3	0.819487	12	1.13674e-07
2	1	0	0	0	435.679	0.0935412	0.0935355	0.00145602	3	0.819489	12	1.3619e-07
2	0	0	1	0	436.68	0.103543	0.102699	0.00160058	3	0.81949	12	1.64378e-07
2	0	0	1	0	437.68	0.113546	0.113691	0.00166084	3	0.819492	12	1.88822e-07
2	0	0	0	0	438.68	0.123548	0.121989	0.00173927	3	0.819494	12	2.12171e-07
2	0	0	1	0	439.68	0.133551	0.132958	0.00179724	3	0.819496	12	2.38958e-07
2	0	0	0	0	440.681	0.143553	0.143755	0.00196282	3	0.819499	12	2.82165e-07
2	1	0	1	0	441.681	0.153555	0.154259	0.00192552	3	0.819501	12	2.97029e-07
2	1	0	1	0	442.681	0.163558	0.163453	0.00209302	3	0.819503	12	3.42111e-07
2	1	0	0	0	443.681	0.17356	0.173043	0.00219361	3	0.819506	12	3.79589e-07
2	1	0	1	0	444.682	0.183562	0.184046	0.00229613	3	0.819508	12	4.22593e-07
2	1	0	0	0	445.682	0.193565	0.19445	0.00226788	3	0.819511	12	4.40988e-07
2	1	0	1	0	446.682	0.203567	0.203813	0.00243045	3	0.819514	12	4.95356e-07
2	1	0	1	0	447.682	0.21357	0.213233	0.00247181	3	0.819516	12	5.2707e-07
2	0	0	0	0	448.683	0.223572	0.223759	0.00254916	3	0.819519	12	5.70398e-07
2	0	0	1	0	449.683	0.233574	0.233375	0.00254261	3	0.819522	12	5.93383e-07
2	0	0	0	0	450.683	0.243576	0.243045	0.00254142	3	0.819525	12	6.17678e-07
2	1	0	1	0	451.683	0.253579	0.253001	0.00271303	3	0.819528	12	6.864e-07
2	1	0	0	0	452.683	0.263581	0.26286	0.00282168	3	0.819531	12	7.41707e-07
2	1	0	1	0	453.684	0.273583	0.273494	0.00284881	3	0.819534	12	7.79131e-07
2	1	0	1	0	454.684	0.283586	0.28301	0.00302645	3	0.819538	12	8.56517e-07
2	1	0	0	0	455.684	0.293588	0.29364	0.00313499	3	0.819541	12	9.20559e-07
2	1	0	1	0	456.684	0.30359	0.304952	0.0032346	3	0.819544	12	9.86397e-07
2	0	0	0	0	457.685	0.313593	0.314183	0.00331831	3	0.819548	12	1.04256e-06
2	0	0	1	0	458.685	0.323595	0.323304	0.00311124	3	0.819551	12	1.00588e-06
2	0	0	1	0	459.685	0.333598	0.332137	0.00330084	3	0.819555	12	1.09633e-06
2	0	0	0	0	460.685	0.3436	0.343196	0.00349209	3	0.819559	12	1.19847e-06
2	1	0	1	0	461.686	0.353602	0.353634	0.00369569	3	0.819562	12	1.30692e-06
2	1	0	0	0	462.686	0.363605	0.363217	0.00362256	3	0.819566	12	1.31578e-06
2	1	0	1	0	463.686	0.373607	0.371386	0.0037328	3	0.81957	12	1.38631e-06
2	1	0	0	0	464.686	0.383609	0.382527	0.00384199	3	0.819574	12	1.46966e-06
2	1	0	0	0	465.687	0.393612	0.393644	0.00419913	3	0.819579	12	1.65296e-06
2	0	0	1	0	466.687	0.403614	0.403695	0.00400095	3	0.819583	12	1.61516e-06
2	0	0	0	0	467.687	0.413616	0.413206	0.00413378	3	0.819587	12	1.7081e-06
2	0	0	1	0	468.687	0.423619	0.420925	0.00433363	3	0.819592	12	1.82413e-06
2	1	0	0	0	469.687	0.433621	0.43379	0.00470304	3	0.819596	12	2.04013e-06
2	1	0	1	0	470.688	0.443624	0.442489	0.00455814	3	0.819601	12	2.01693e-06
2	1	0	1	0	471.688	0.453626	0.453961	0.00475894	3	0.819606	12	2.16037e-06
2	1	0	0	0	472.688	0.463628	0.463689	0.00480998	3	0.819611	12	2.23033e-06
2	1	0	1	0	473.688	0.47363	0.472963	0.00501235	3	0.819616	12	2.37065e-06
2	1	0	0	0	474.689	0.483633	0.483413	0.00530979	3	0.819622	12	2.56682e-06
2	0	0	1	0	475.689	0.493635	0.49179	0.00530401	3	0.819627	12	2.60846e-06
2	0	0	1	0	476.689	0.503636	0.502617	0.00569045	3	0.819633	12	2.86012e-06
2	0	0	0	0	477.689	0.51364	0.513166	0.00594652	3	0.819639	12	3.05155e-06
2	0	0	1	0	478.69	0.523642	0.523924	0.00616114	3	0.819645	12	3.22797e-06
2	1	0	0	0	479.69	0.533644	0.531895	0.00628403	3	0.819651	12	3.34244e-06
2	1	0	1	0	480.69	0.543647	0.54306	0.00668219	3	0.819658	12	3.62883e-06
2	1	0	0	0	481.69	0.553649	0.552225	0.00698897	3	0.819665	12	3.85949e-06
2	1	0	0	0	482.691	0.563651	0.563908	0.00735337	3	0.819673	12	4.14662e-06
2	1	0	1	0	483.691	0.573654	0.574301	0.0077429	3	0.819681	12	4.44676e-06
2	1	0	0	0	484.691	0.583656	0.583268	0.00826254	3	0.819689	12	4.81928e-06
2	1	0	1	0	485.691	0.593659	0.593295	0.00871768	3	0.819698	12	5.17215e-06
2	1	0	0	0	486.691	0.603661	0.604075	0.00931903	3	0.819707	12	5.62939e-06
2	1	0	1	0	487.692	0.613664	0.613636	0.0100979	3	0.819717	12	6.19645e-06
2	1	0	1	0	488.692	0.623666	0.622883	0.010837	3	0.819728	12	6.75017e-06
2	1	0	0	0	489.692	0.633668	0.633993	0.0117154	3	0.81974	12	7.4275e-06
2	1	0	1	0	490.692	0.64367	0.644097	0.0129612	3	0.819752	12	8.34829e-06
2	1	0	0	0	491.693	0.653673	0.653341	0.0144764	3	0.819766	12	9.45804e-06
2	1	0	1	0	492.693	0.663675	0.663375	0.0164961	3	0.819782	12	1.09431e-05
2	1	0	1	0	493.693	0.673677	0.674489	0.0199315	3	0.819801	12	1.34435e-05
2	1	0	0	0	494.693	0.68368	0.682695	0.0253683	3	0.819824	12	1.73188e-05
2	1	0	1	0	495.694	0.693682	0.693727	0.0339476	3	0.819854	12	2.35504e-05
2	1	0	0	0	496.694	0.703684	0.703725	0.0476578	3	0.819894	12	3.3538e-05
2	1	0	1	0	497.694	0.713687	0.714047	0.0684429	3	0.819952	12	4.88714e-05
2	1	0	0	0	498.694	0.723689	0.722425	0.0976247	3	0.820035	12	7.05265e-05
2	1	0	0	0	499.695	0.733691	0.733601	0.138561	3	0.820153	12	0.000101648
2	1	0	1	0	500.695	0.743694	0.744718	0.195152	3	0.820319	12	0.000145333
2	1	0	0	0	501.695	0.753696	0.753233	0.272028	3	0.820552	12	0.000204901
2	1	0	1	0	502.695	0.763698	0.763645	0.373455	3	0.820873	12	0.000285187
2	1	0	0	0	503.695	0.773701	0.773548	0.503755	3	0.82131	12	0.000389679
2	1	0	1	0	504.696	0.783703	0.784153	0.665449	3	0.821893	12	0.000521814
2	1	0	1	0	505.696	0.793705	0.79299	0.860948	3	0.822655	12	0.000682723
2	1	0	0	0	506.726	0.804008	0.803555	1.09988	3	0.823664	11	0.000883814
2	1	0	1	0	507.726	0.81401	0.813765	1.37093	3	0.824899	11	0.00111561
2	1	0	0	0	508.727	0.824013	0.824597	1.67861	3	0.826422	11	0.00138417
2	1	0	1	0	509.727	0.834015	0.834445	2.02301	3	0.828271	11	0.00168809
2	1	0	1	0	510.727	0.844017	0.844892	2.41047	3	0.830488	11	0.00203659
2	1	0	0	0	511.727	0.85402	0.852956	2.83915	3	0.833112	11	0.00242167
2	1	0	1	0	512.728	0.864022	0.864429	3.30582	3	0.836184	11	0.00285765
2	1	0	0	0	513.728	0.874024	0.874757	3.8132	3	0.839744	11	0.00333563
2	1	0	1	0	514.728	0.884027	0.884126	4.36281	3	0.843832	11	0.00385728
2	1	0	0	0	515.728	0.894029	0.893094	4.94626	3	0.848487	11	0.00441747
2	1	0	0	0	516.729	0.904031	0.904433	5.56654	3	0.853747	11	0.00503456
2	1	0	1	0	517.729	0.914034	0.914565	6.22022	3	0.859642	11	0.00568879
2	1	0	0	0	518.729	0.924036	0.923475	6.90563	3	0.866207	11	0.00637718
2	1	0	1	0	519.729	0.934038	0.93345	7.62115	3	0.873473	11	0.00711396
2	1	0	0	0	520.729	0.944041	0.944143	8.36745	3	0.881471	11	0.00790007
2	1	0	1	0	521.73	0.954043	0.954016	9.13782	3	0.890227	11	0.00871763
2	1	0	1	0	522.73	0.964045	0.963643	9.93483	3	0.899769	11	0.00957362
2	1	0	0	0	523.73	0.974048	0.974217	10.7512	3	0.910118	11	0.010474
2	1	0	1	0	524.76	0.98435	0.984249	11.619	3	0.92165	10	0.011436
2	1	0	0	0	525.761	0.994353	0.993136	12.4648	3	0.933696	10	0.0123792
2	1	0	1	0	526.581	0.997452	0.997218	12.6589	3	0.944142	10	0.0126236
2	1	0	1	0	527.582	0.987451	0.987401	11.5328	3	0.95623	10	0.0113875
2	1	0	0	0	528.582	0.977449	0.977603	10.4675	3	0.96722	10	0.010233
2	1	0	1	0	529.582	0.967446	0.967489	9.47682	3	0.977185	10	0.00916871
2	1	0	0	0	530.582	0.957444	0.956395	8.56357	3	0.986196	10	0.00819016
2	1	0	1	0	531.582	0.947442	0.94675	7.71317	3	0.994325	10	0.00730244
2	1	0	1	0	532.583	0.937439	0.937798	6.94167	3	1.00165	10	0.00650989
2	1	0	0	0	533.583	0.927437	0.926525	6.23444	3	1.00822	10	0.00577636
2	1	0	1	0	534.583	0.917434	0.917438	5.57126	3	1.01412	10	0.00511129
2	1	0	0	0	535.583	0.907432	0.907544	4.96885	3	1.01938	10	0.00450945
2	1	0	1	0	536.614	0.89713	0.897481	4.39678	3	1.0242	11	0.00394603
2	1	0	0	0	537.614	0.887127	0.886752	3.89196	3	1.02834	11	0.00345121
2	1	0	0	0	538.614	0.877125	0.876492	3.43117	3	1.032	11	0.00300739
2	1	0	1	0	539.614	0.867123	0.867087	3.0143	3	1.03522	11	0.00261366
2	1	0	0	0	540.615	0.85712	0.856622	2.63299	3	1.03804	11	0.00225548
2	1	0	1	0	541.615	0.847118	0.848233	2.28756	3	1.04049	11	0.00194039
2	1	0	0	0	542.615	0.837116	0.836489	1.97619	3	1.04262	11	0.00165306
2	1	0	1	0	543.615	0.827112	0.826079	1.69629	3	1.04445	11	0.00140127
2	1	0	1	0	544.616	0.817111	0.816815	1.44318	3	1.04602	11	0.00117881
2	1	0	0	0	545.616	0.807109	0.807216	1.21923	3	1.04735	11	0.000984184
2	1	0	1	0	546.616	0.797106	0.796617	1.02122	3	1.04847	11	0.000813519
2	1	0	0	0	547.616	0.787104	0.786294	0.844726	3	1.0494	11	0.000664203
2	1	0	1	0	548.616	0.777102	0.777799	0.692123	3	1.05016	11	0.000538332
2	1	0	1	0	549.617	0.7671	0.767424	0.560548	3	1.05079	11	0.000430178
2	1	0	0	0	550.632	0.756947	0.756612	0.447187	3	1.05129	11	0.000338347
2	1	0	1	0	551.647	0.746795	0.746995	0.346686	3	1.05169	12	0.000258973
2	1	0	0	0	552.647	0.736792	0.738033	0.266964	3	1.052	12	0.000197029
2	1	0	1	0	553.648	0.72679	0.72597	0.201567	3	1.05223	12	0.000146331
2	1	0	1	0	554.648	0.716786	0.715287	0.148596	3	1.0524	12	0.000106289
2	1	0	0	0	555.648	0.706785	0.707263	0.106893	3	1.05253	12	7.56015e-05
2	1	0	1	0	556.648	0.696783	0.69568	0.0751256	3	1.05262	12	5.22634e-05
2	1	0	0	0	557.649	0.68678	0.686547	0.0513311	3	1.05268	12	3.52412e-05
2	1	0	1	0	558.649	0.676778	0.67662	0.0344592	3	1.05272	12	2.33158e-05
2	1	0	0	0	559.649	0.666776	0.667365	0.0229698	3	1.05275	12	1.53292e-05
2	1	0	1	0	560.649	0.656773	0.656818	0.0155134	3	1.05277	12	1.01895e-05
2	1	0	1	0	561.65	0.646771	0.646158	0.0105327	3	1.05278	12	6.80579e-06
2	1	0	0	0	562.65	0.636769	0.637937	0.00755953	3	1.05279	12	4.8225e-06
2	1	0	1	0	563.65	0.626766	0.626373	0.00569206	3	1.0528	12	3.56535e-06
2	0	0	0	0	564.65	0.616764	0.616369	0.00444783	3	1.0528	12	2.74151e-06
2	0	0	1	0	565.65	0.606762	0.605915	0.00363397	3	1.05281	12	2.20188e-06
2	0	0	1	0	566.651	0.59676	0.596723	0.00321307	3	1.05281	12	1.91731e-06
2	0	0	0	0	567.651	0.586757	0.585357	0.00276713	3	1.05281	12	1.61976e-06
2	0	0	1	0	568.651	0.576755	0.575986	0.00231501	3	1.05281	12	1.33341e-06
2	0	0	0	0	569.651	0.566752	0.56673	0.00219998	3	1.05282	12	1.24679e-06
2	0	0	1	0	570.652	0.55675	0.557031	0.00219214	3	1.05282	12	1.22109e-06
2	0	0	0	0	571.652	0.546748	0.546609	0.00198374	3	1.05282	12	1.08433e-06
2	0	0	0	0	572.652	0.536745	0.536977	0.0016689	3	1.05282	12	8.96158e-07
2	0	0	1	0	573.652	0.526743	0.527243	0.00180668	3	1.05282	12	9.5256e-07
2	0	0	0	0	574.653	0.516741	0.515438	0.00166468	3	1.05282	12	8.58041e-07
2	1	0	1	0	575.653	0.506738	0.505405	0.00135947	3	1.05282	12	6.87081e-07
2	1	0	0	0	576.653	0.496736	0.496648	0.00135919	3	1.05283	12	6.75037e-07
2	1	0	1	0	577.653	0.486733	0.485729	0.00148066	3	1.05283	12	7.19202e-07
2	1	0	1	0	578.654	0.476731	0.476082	0.00128429	3	1.05283	12	6.11428e-07
2	0	0	0	0	579.654	0.466729	0.466626	0.00117271	3	1.05283	12	5.47219e-07
2	0	0	1	0	580.654	0.456726	0.456972	0.00106012	3	1.05283	12	4.84446e-07
2	0	0	0	0	581.654	0.446724	0.446329	0.00087614	3	1.05283	12	3.91046e-07
2	1	0	1	0	582.654	0.436722	0.436148	0.000816339	3	1.05283	12	3.56045e-07
2	1	0	1	0	583.655	0.42672	0.427114	0.000852851	3	1.05283	12	3.64264e-07
2	1	0	0	0	584.655	0.416717	0.41587	0.000952036	3	1.05283	12	3.95923e-07
2	1	0	1	0	585.655	0.406715	0.405606	0.000802159	3	1.05283	12	3.25361e-07
2	1	0	0	0	586.655	0.396712	0.397309	0.00070466	3	1.05283	12	2.79968e-07
2	0	0	1	0	587.656	0.38671	0.386513	0.000632858	3	1.05283	12	2.44608e-07
2	0	0	0	0	588.656	0.376708	0.375791	0.000459508	3	1.05283	12	1.72679e-07
2	0	0	0	0	589.656	0.366705	0.367122	0.000284508	3	1.05283	12	1.04449e-07
2	0	0	1	0	590.656	0.356703	0.358263	0.000366442	3	1.05283	12	1.31283e-07
2	0	0	0	0	591.657	0.346701	0.345861	0.000350185	3	1.05283	12	1.21115e-07
2	0	0	1	0	592.657	0.336698	0.335674	0.000260167	3	1.05283	12	8.73312e-08
2	0	0	0	0	593.657	0.326696	0.326616	7.53599e-05	3	1.05283	12	2.46137e-08
2	0	0	1	0	594.657	0.316694	0.316999	0.000169221	3	1.05283	12	5.3643e-08
2	0	0	1	0	595.658	0.306691	0.305933	0.000104752	3	1.05283	12	3.20472e-08
2	0	0	0	0	596.658	0.296689	0.29662	-0.000113761	3	1.05283	12	-3.37439e-08
2	0	0	1	0	597.658	0.286687	0.286726	-0.000107047	3	1.05283	12	-3.0693e-08
2	0	0	0	0	598.658	0.276684	0.276547	-5.15162e-05	3	1.05283	12	-1.42466e-08
2	0	0	1	0	599.658	0.266682	0.266629	-0.000238002	3	1.05283	12	-6.34582e-08
2	0	0	1	0	600.659	0.256679	0.257523	-0.000212585	3	1.05283	12	-5.47454e-08
2	0	0	0	0	601.659	0.246677	0.246987	-0.000210833	3	1.05283	12	-5.2073e-08
2	1	0	1	0	602.659	0.236675	0.235226	-0.000236794	3	1.05283	12	-5.57002e-08
2	1	0	0	0	603.659	0.226672	0.226315	-0.000335898	3	1.05283	12	-7.60188e-08
2	1	0	1	0	604.66	0.21667	0.217685	-0.000322821	3	1.05283	12	-7.02735e-08
2	1	0	0	0	605.66	0.206668	0.205666	-0.000287715	3	1.05283	12	-5.91732e-08
2	1	0	1	0	606.66	0.196666	0.196359	-0.000659529	3	1.05283	12	-1.29504e-07
2	1	0	1	0	607.66	0.186663	0.186315	-0.000648847	3	1.05283	12	-1.2089e-07
2	1	0	0	0	608.661	0.176661	0.177125	-0.000698149	3	1.05282	12	-1.23659e-07
2	1	0	1	0	609.661	0.166658	0.16686	-0.000871455	3	1.05282	12	-1.45411e-07
2	0	0	0	0	610.661	0.156656	0.156554	-0.0011417	3	1.05282	12	-1.78738e-07
2	0	0	1	0	611.661	0.146654	0.146859	-0.00106595	3	1.05282	12	-1.56544e-07
2	0	0	1	0	612.662	0.136651	0.137049	-0.00110709	3	1.05282	12	-1.51727e-07
2	0	0	0	0	613.662	0.126649	0.125629	-0.00123269	3	1.05282	12	-1.54861e-07
2	0	0	1	0	614.662	0.116647	0.116675	-0.00131944	3	1.05282	12	-1.53945e-07
2	0	0	0	0	615.662	0.106644	0.106641	-0.00124482	3	1.05281	12	-1.3275e-07
2	1	0	1	0	616.662	0.096642	0.0951361	-0.00144412	3	1.05281	12	-1.37388e-07
2	1	0	1	0	617.663	0.0866389	0.0861914	-0.00157988	3	1.05281	12	-1.36172e-07
2	1	0	0	0	618.663	0.0766373	0.0770608	-0.00176954	3	1.05281	12	-1.36362e-07
2	1	0	1	0	619.663	0.0666349	0.0657602	-0.00179811	3	1.05281	12	-1.18244e-07
2	1	0	0	0	620.663	0.0566326	0.0555404	-0.00196516	3	1.0528	12	-1.09146e-07
2	1	0	1	0	621.664	0.0466302	0.0458424	-0.0020781	3	1.0528	12	-9.52653e-08
2	0	0	0	0	622.664	0.0366279	0.0362092	-0.00220172	3	1.0528	12	-7.97227e-08
2	0	0	1	0	623.664	0.0266258	0.0263177	-0.00243572	3	1.0528	12	-6.41026e-08
2	0	0	1	0	624.664	0.0166232	0.016877	-0.00257303	3	1.05279	12	-4.34251e-08
2	0	0	0	0	625.665	0.00662084	0.00661269	-0.0026543	3	1.05279	12	-1.75521e-08
2	1	0	0	1	626.485	-0.00158109	-0.00118235	-0.00287877	3	1.05279	12	3.40371e-09
2	1	0	1	1	627.486	-0.0115834	-0.0121351	-0.00295955	3	1.05279	12	3.59144e-08
2	1	0	0	1	628.486	-0.0215858	-0.0220123	-0.00315929	3	1.05278	12	6.95431e-08
2	1	0	1	1	629.486	-0.0315881	-0.0314885	-0.00341659	3	1.05278	12	1.07583e-07
2	0	0	1	1	630.486	-0.0415898	-0.041931	-0.00353629	3	1.05278	12	1.4828e-07
2	0	0	0	1	631.487	-0.0515928	-0.0529485	-0.00387839	3	1.05277	12	2.05355e-07
2	0	0	1	1	632.487	-0.0615952	-0.0618127	-0.0043244	3	1.05277	12	2.67303e-07
2	0	0	0	1	633.487	-0.0715976	-0.0712455	-0.00448283	3	1.05276	12	3.19381e-07
2	0	0	1	1	634.487	-0.0815999	-0.0826076	-0.00463472	3	1.05276	12	3.82863e-07
2	1	0	0	1	635.487	-0.0916023	-0.0920807	-0.00496721	3	1.05275	12	4.57384e-07
2	0	0	0	1	636.488	-0.101605	-0.101338	-0.00515634	3	1.05275	12	5.22535e-07
2	0	0	1	1	637.488	-0.111607	-0.11152	-0.00553825	3	1.05274	12	6.17625e-07
2	0	0	0	1	638.488	-0.121609	-0.122501	-0.00603169	3	1.05273	12	7.3889e-07
2	0	0	1	1	639.488	-0.131612	-0.132262	-0.00657331	3	1.05273	12	8.69399e-07
2	0	0	0	1	640.489	-0.141614	-0.142368	-0.00689153	3	1.05272	12	9.81135e-07
2	0	0	1	1	641.489	-0.151617	-0.153835	-0.00728247	3	1.05271	12	1.1203e-06
2	1	0	1	1	642.489	-0.161619	-0.161955	-0.00791626	3	1.05271	12	1.28208e-06
2	1	0	0	1	643.489	-0.171621	-0.169893	-0.00856886	3	1.0527	12	1.45579e-06
2	0	0	1	1	644.49	-0.181623	-0.182032	-0.00903407	3	1.05269	12	1.64449e-06
2	1	0	0	1	645.49	-0.191626	-0.191758	-0.0096936	3	1.05268	12	1.85883e-06
2	1	0	1	1	646.49	-0.201628	-0.201825	-0.0105131	3	1.05267	12	2.12181e-06
2	0	0	1	1	647.49	-0.21163	-0.211119	-0.0112945	3	1.05266	12	2.38447e-06
2	1	0	0	1	648.491	-0.221633	-0.223005	-0.0119953	3	1.05265	12	2.67501e-06
2	1	0	1	1	649.491	-0.231635	-0.23178	-0.0129453	3	1.05263	12	3.00046e-06
2	0	0	0	1	650.491	-0.241638	-0.241089	-0.0137983	3	1.05262	12	3.32662e-06
2	0	0	1	1	651.491	-0.25164	-0.251873	-0.0147134	3	1.0526	12	3.70591e-06
2	0	0	0	1	652.491	-0.261642	-0.262227	-0.0158943	3	1.05259	12	4.1679e-06
2	0	0	0	1	652.633	-0.263092	-0.265323	-0.00932405	3	1.05259	12	2.47388e-06