File: Data_1mg/2022_01_27 Ni60Co30Fe10Ox 1mg ref309_C05.mpt
EC-Lab ASCII FILE
Nb header lines : 63

Potentio Electrochemical Impedance Spectroscopy

Run on channel : 5 (SN 30436)
User :
CE vs. WE compliance from -10 V to 10 V
Electrode connection : standard
Potential control : Ewe
Ewe ctrl range : min = -10.00 V, max = 10.00 V
Safety Limits :
	Do not start on E overload
Acquisition started on : 01/27/2023 11:19:20.435
Loaded Setting File :  NONE
Saved on :
	File : 2022_01_27 Ni60Co30Fe10Ox 1mg ref309_C05.mpr
	Directory : C:\Users\grupogalan\Documents\EC-Lab\Data\Scott\
	Host : 169.254.104.159
Device : VSP (SN 1176)
Address : USB
EC-Lab for windows v11.46 (software)
Internet server v11.40 (firmware)
Command interpretor v11.40 (firmware)
Electrode material :
Initial state :
Electrolyte :
Comments :
Electrode surface area : 0.001 cm²
Characteristic mass : 0.001 g
Equivalent Weight : 0.000 g/eq.
Density : 0.000 g/cm3
Volume (V) : 0.001 cm³
Cycle Definition : Charge/Discharge alternance
Mode                Single sine
E (V)               0.0000
vs.                 Eoc
tE (h:m:s)          0:00:0.0000
record              0
dI                  0.000
unit dI             mA
dt (s)              0.000
fi                  200.000
unit fi             kHz
ff                  100.000
unit ff             mHz
Nd                  6
Points              per decade
spacing             Logarithmic
Va (mV)             10.0
pw                  0.10
Na                  2
corr                0
E range min (V)     -10.000
E range max (V)     10.000
I Range             Auto
Bandwidth           5
nc cycles           0
goto Ns'            0
nr cycles           0
inc. cycle          0

freq/Hz	Re(Z)/Ohm	-Im(Z)/Ohm	|Z|/Ohm	Phase(Z)/deg	time/s	<Ewe>/V	<I>/mA	Cs/µF	Cp/µF	cycle number	I Range	|Ewe|/V	|I|/A	Ns	(Q-Qo)/mA.h	Re(Y)/Ohm-1	Im(Y)/Ohm-1	|Y|/Ohm-1	Phase(Y)/deg	Re(C)/nF	Im(C)/nF	|C|/nF	Phase(C)/deg	Re(M)	Im(M)	|M|	Phase(M)/deg	Re(Permittivity)	Im(Permittivity)	|Permittivity|	Phase(Permittivity)/deg	Re(Resistivity)/Ohm.cm	Im(Resistivity)/Ohm.cm	|Resistivity|/Ohm.cm	Phase(Resistivity)/deg	Re(Conductivity)/mS/cm	Im(Conductivity)/mS/cm	|Conductivity|/mS/cm	Phase(Conductivity)/deg	Tan(Delta)	Loss Angle(Delta)/deg	dq/mA.h
199998	2.01486	-1.29782	2.39667	32.7865	2.7595	0.0612979	-0.188237	-0.61317	-0.179801	1	9	0.00834688	0.0034827	0	-3.72942e-05	0.350777	-0.225943	0.417246	-32.7865	-179.801	279.142	332.037	-122.786	0.0000000E+000	0.0000000E+000	0.0000000E+000	122.786	0.0000000E+000	0.0000000E+000	0.0000000E+000	-122.786	0.0000000E+000	0.0000000E+000	0.0000000E+000	32.7865	0.0000000E+000	0.0000000E+000	0.0000000E+000	-32.7865	-1.5525	-32.7865	-3.72942e-05
135123	1.64296	-0.504748	1.71875	17.0779	3.18148	0.0610949	-0.180671	-2.33355	-0.201252	1	9	0.0104701	0.00609172	0	-6.95613e-05	0.556164	-0.170864	0.581819	-17.0779	-201.252	655.08	685.297	-107.078	0.0000000E+000	0.0000000E+000	0.0000000E+000	107.078	0.0000000E+000	0.0000000E+000	0.0000000E+000	-107.078	0.0000000E+000	0.0000000E+000	0.0000000E+000	17.0779	0.0000000E+000	0.0000000E+000	0.0000000E+000	-17.0779	-3.25502	-17.0779	-3.22671e-05
91291.2	1.61603	-0.101857	1.61924	3.60654	3.60348	0.0613009	-0.170478	-17.1159	-0.0677272	1	9	0.0103073	0.00636552	0	-8.77099e-05	0.616352	-0.0388483	0.617576	-3.60654	-67.7272	1074.53	1076.67	-93.6065	0.0000000E+000	0.0000000E+000	0.0000000E+000	93.6065	0.0000000E+000	0.0000000E+000	0.0000000E+000	-93.6065	0.0000000E+000	0.0000000E+000	0.0000000E+000	3.60654	0.0000000E+000	0.0000000E+000	0.0000000E+000	-3.60654	-15.8656	-3.60654	-1.81486e-05
61674.2	1.59681	0.0503278	1.5976	-1.80524	4.02549	0.0614728	-0.166229	51.2753	0.0508847	1	9	0.0104441	0.00653735	0	-0.000109371	0.625627	0.0197184	0.625938	1.80524	50.8847	1614.48	1615.28	-88.1948	0.0000000E+000	0.0000000E+000	0.0000000E+000	88.1948	0.0000000E+000	0.0000000E+000	0.0000000E+000	-88.1948	0.0000000E+000	0.0000000E+000	0.0000000E+000	-1.80524	0.0000000E+000	0.0000000E+000	0.0000000E+000	1.80524	31.7282	1.80524	-2.16613e-05
41669.8	1.61002	0.200563	1.62247	-7.10083	4.58449	0.0613131	-0.167086	19.0436	0.291003	1	9	0.0098028	0.00604191	0	-0.000125839	0.611618	0.07619	0.616345	7.10083	291.003	2336.03	2354.09	-82.8992	0.0000000E+000	0.0000000E+000	0.0000000E+000	82.8992	0.0000000E+000	0.0000000E+000	0.0000000E+000	-82.8992	0.0000000E+000	0.0000000E+000	0.0000000E+000	-7.10083	0.0000000E+000	0.0000000E+000	0.0000000E+000	7.10083	8.02753	7.10083	-1.64677e-05
28151	1.64554	0.350315	1.68242	-12.0181	5.00649	0.0614134	-0.167738	16.1387	0.699708	1	9	0.01096	0.00651445	0	-0.000134605	0.581355	0.123763	0.594382	12.0181	699.708	3286.76	3360.41	-77.9819	0.0000000E+000	0.0000000E+000	0.0000000E+000	77.9819	0.0000000E+000	0.0000000E+000	0.0000000E+000	-77.9819	0.0000000E+000	0.0000000E+000	0.0000000E+000	-12.0181	0.0000000E+000	0.0000000E+000	0.0000000E+000	12.0181	4.69733	12.0181	-8.76597e-06
19020.9	1.7	0.535803	1.78244	-17.4937	5.42848	0.0611172	-0.164608	15.6165	1.41112	1	9	0.0104931	0.00588695	0	-0.000152539	0.535082	0.168646	0.561029	17.4937	1411.12	4477.22	4694.33	-72.5063	0.0000000E+000	0.0000000E+000	0.0000000E+000	72.5063	0.0000000E+000	0.0000000E+000	0.0000000E+000	-72.5063	0.0000000E+000	0.0000000E+000	0.0000000E+000	-17.4937	0.0000000E+000	0.0000000E+000	0.0000000E+000	17.4937	3.17281	17.4937	-1.7934e-05
12850.7	1.75709	0.804977	1.9327	-24.614	5.71347	0.0610609	-0.171465	15.3854	2.66898	1	9	0.0104712	0.00541791	0	-0.000165817	0.470395	0.215503	0.51741	24.614	2668.98	5825.8	6408.07	-65.386	0.0000000E+000	0.0000000E+000	0.0000000E+000	65.386	0.0000000E+000	0.0000000E+000	0.0000000E+000	-65.386	0.0000000E+000	0.0000000E+000	0.0000000E+000	-24.614	0.0000000E+000	0.0000000E+000	0.0000000E+000	24.614	2.18278	24.614	-1.32786e-05
8683.37	1.78533	1.08541	2.08938	-31.2981	6.01798	0.0613573	-0.186541	16.8864	4.55714	1	9	0.00967273	0.00462947	0	-0.000180357	0.408961	0.248634	0.478611	31.2981	4557.14	7495.73	8772.31	-58.7019	0.0000000E+000	0.0000000E+000	0.0000000E+000	58.7019	0.0000000E+000	0.0000000E+000	0.0000000E+000	-58.7019	0.0000000E+000	0.0000000E+000	0.0000000E+000	-31.2981	0.0000000E+000	0.0000000E+000	0.0000000E+000	31.2981	1.64483	31.2981	-1.45396e-05
5865.09	1.93138	1.55186	2.4776	-38.7818	6.43383	0.061341	-0.163135	17.4861	6.8602	1	9	0.00948542	0.00382848	0	-0.000201859	0.314634	0.252808	0.403617	38.7818	6860.2	8537.92	10952.6	-51.2182	0.0000000E+000	0.0000000E+000	0.0000000E+000	51.2182	0.0000000E+000	0.0000000E+000	0.0000000E+000	-51.2182	0.0000000E+000	0.0000000E+000	0.0000000E+000	-38.7818	0.0000000E+000	0.0000000E+000	0.0000000E+000	38.7818	1.24456	38.7818	-2.15022e-05
3961.2	2.01855	2.23432	3.0111	-47.9044	6.89694	0.0613202	-0.13168	17.9824	9.9012	1	9	0.00922582	0.00306393	0	-0.000217078	0.222632	0.24643	0.332104	47.9044	9901.2	8945.03	13343.4	-42.0956	0.0000000E+000	0.0000000E+000	0.0000000E+000	42.0956	0.0000000E+000	0.0000000E+000	0.0000000E+000	-42.0956	0.0000000E+000	0.0000000E+000	0.0000000E+000	-47.9044	0.0000000E+000	0.0000000E+000	0.0000000E+000	47.9044	0.903429	47.9044	-1.5219e-05
2677.43	2.12462	3.03719	3.70656	-55.0259	7.57995	0.0613768	-0.131568	19.5718	13.1411	1	9	0.0100187	0.00270297	0	-0.000241703	0.154647	0.221071	0.269792	55.0259	13141.1	9192.69	16037.3	-34.9741	0.0000000E+000	0.0000000E+000	0.0000000E+000	34.9741	0.0000000E+000	0.0000000E+000	0.0000000E+000	-34.9741	0.0000000E+000	0.0000000E+000	0.0000000E+000	-55.0259	0.0000000E+000	0.0000000E+000	0.0000000E+000	55.0259	0.699535	55.0259	-2.4625e-05
1808.26	2.24988	4.36734	4.9128	-62.7442	8.29396	0.0614581	-0.0210648	20.1531	15.9264	1	10	0.0105035	0.00213798	0	-0.000257022	0.0932185	0.18095	0.20355	62.7442	15926.4	8204.65	17915.5	-27.2558	0.0000000E+000	0.0000000E+000	0.0000000E+000	27.2558	0.0000000E+000	0.0000000E+000	0.0000000E+000	-27.2558	0.0000000E+000	0.0000000E+000	0.0000000E+000	-62.7442	0.0000000E+000	0.0000000E+000	0.0000000E+000	62.7442	0.515161	62.7442	-1.53185e-05
1221.96	2.43171	6.2619	6.71749	-68.7771	8.75544	0.0612215	-0.0207815	20.7998	18.0741	1	10	0.0101212	0.0015067	0	-0.000258948	0.0538888	0.138769	0.148865	68.7771	18074.1	7018.81	19389.1	-21.2229	0.0000000E+000	0.0000000E+000	0.0000000E+000	21.2229	0.0000000E+000	0.0000000E+000	0.0000000E+000	-21.2229	0.0000000E+000	0.0000000E+000	0.0000000E+000	-68.7771	0.0000000E+000	0.0000000E+000	0.0000000E+000	68.7771	0.388335	68.7771	-1.92569e-06
825.264	2.56969	8.90228	9.26574	-73.8989	9.21667	0.061303	-0.0194822	21.6634	19.9972	1	10	0.00976145	0.0010535	0	-0.00026101	0.0299309	0.103691	0.107924	73.8989	19997.2	5772.28	20813.6	-16.1011	0.0000000E+000	0.0000000E+000	0.0000000E+000	16.1011	0.0000000E+000	0.0000000E+000	0.0000000E+000	-16.1011	0.0000000E+000	0.0000000E+000	0.0000000E+000	-73.8989	0.0000000E+000	0.0000000E+000	0.0000000E+000	73.8989	0.288655	73.8989	-2.06297e-06
558.036	3.02621	13.0222	13.3692	-76.9173	9.68045	0.0613967	-0.0200302	21.9015	20.7793	1	10	0.00983804	0.000735874	0	-0.000263963	0.0169312	0.0728574	0.0747988	76.9173	20779.3	4828.88	21333	-13.0827	0.0000000E+000	0.0000000E+000	0.0000000E+000	13.0827	0.0000000E+000	0.0000000E+000	0.0000000E+000	-13.0827	0.0000000E+000	0.0000000E+000	0.0000000E+000	-76.9173	0.0000000E+000	0.0000000E+000	0.0000000E+000	76.9173	0.232388	76.9173	-2.95239e-06
377.051	3.42753	18.8605	19.1694	-79.7	10.1397	0.0613315	-0.0217545	22.3803	21.6648	1	10	0.00976246	0.000509272	0	-0.000266298	0.00932745	0.0513257	0.0521664	79.7	21664.8	3937.16	22019.7	-10.3	0.0000000E+000	0.0000000E+000	0.0000000E+000	10.3	0.0000000E+000	0.0000000E+000	0.0000000E+000	-10.3	0.0000000E+000	0.0000000E+000	0.0000000E+000	-79.7	0.0000000E+000	0.0000000E+000	0.0000000E+000	79.7	0.181731	79.7	-2.33563e-06
254.755	4.21751	26.2981	26.6342	-80.8889	10.6019	0.0614065	-0.0184644	23.7559	23.1602	1	10	0.00938886	0.000352512	0	-0.000268259	0.00594534	0.037072	0.0375457	80.8889	23160.2	3714.27	23456.2	-9.1111	0.0000000E+000	0.0000000E+000	0.0000000E+000	9.1111	0.0000000E+000	0.0000000E+000	0.0000000E+000	-9.1111	0.0000000E+000	0.0000000E+000	0.0000000E+000	-80.8889	0.0000000E+000	0.0000000E+000	0.0000000E+000	80.8889	0.160373	80.8889	-1.96059e-06
172.037	4.94134	39.8888	40.1937	-82.9383	11.3084	0.0613527	-0.00312391	23.1925	22.842	1	11	0.00985423	0.000245169	0	-0.000270068	0.00305865	0.0246908	0.0248796	82.9383	22842	2829.62	23016.6	-7.06171	0.0000000E+000	0.0000000E+000	0.0000000E+000	7.06171	0.0000000E+000	0.0000000E+000	0.0000000E+000	-7.06171	0.0000000E+000	0.0000000E+000	0.0000000E+000	-82.9383	0.0000000E+000	0.0000000E+000	0.0000000E+000	82.9383	0.123878	82.9383	-1.80899e-06
116.227	7.01816	56.7649	57.1971	-82.952	11.7657	0.061416	-0.00336681	24.123	23.7598	1	11	0.00966174	0.00016892	0	-0.000270376	0.00214524	0.0173513	0.0174834	82.952	23759.8	2937.56	23940.7	-7.04803	0.0000000E+000	0.0000000E+000	0.0000000E+000	7.04803	0.0000000E+000	0.0000000E+000	0.0000000E+000	-7.04803	0.0000000E+000	0.0000000E+000	0.0000000E+000	-82.952	0.0000000E+000	0.0000000E+000	0.0000000E+000	82.952	0.123636	82.952	-3.07846e-07
78.5176	11.1434	81.4166	82.1756	-82.2064	12.2355	0.0613428	-0.00276042	24.8966	24.4388	1	11	0.0095752	0.000116521	0	-0.000270753	0.00165018	0.0120567	0.0121691	82.2064	24438.8	3344.91	24666.6	-7.79358	0.0000000E+000	0.0000000E+000	0.0000000E+000	7.79358	0.0000000E+000	0.0000000E+000	0.0000000E+000	-7.79358	0.0000000E+000	0.0000000E+000	0.0000000E+000	-82.2064	0.0000000E+000	0.0000000E+000	0.0000000E+000	82.2064	0.136869	82.2064	-3.7722e-07
53.0478	17.931	121.668	122.983	-81.6163	12.7121	0.0611699	-0.00366581	24.6589	24.1347	1	11	0.00986371	8.0204e-05	0	-0.000271143	0.00118554	0.00804434	0.00813123	81.6163	24134.7	3556.88	24395.4	-8.38367	0.0000000E+000	0.0000000E+000	0.0000000E+000	8.38367	0.0000000E+000	0.0000000E+000	0.0000000E+000	-8.38367	0.0000000E+000	0.0000000E+000	0.0000000E+000	-81.6163	0.0000000E+000	0.0000000E+000	0.0000000E+000	81.6163	0.147376	81.6163	-3.89741e-07
35.8372	21.2684	170.898	172.216	-82.906	13.1641	0.0614935	-0.0025097	25.9866	25.5903	1	11	0.0097095	5.63797e-05	0	-0.000271415	0.000717111	0.0057622	0.00580665	82.906	25590.3	3184.73	25787.7	-7.09404	0.0000000E+000	0.0000000E+000	0.0000000E+000	7.09404	0.0000000E+000	0.0000000E+000	0.0000000E+000	-7.09404	0.0000000E+000	0.0000000E+000	0.0000000E+000	-82.906	0.0000000E+000	0.0000000E+000	0.0000000E+000	82.906	0.124451	82.906	-2.72401e-07
24.2323	28.6764	251.401	253.031	-83.4926	13.8961	0.0613023	-0.000278651	26.1251	25.7896	1	12	0.0098221	3.88177e-05	0	-0.00027165	0.000447894	0.00392662	0.00395208	83.4926	25789.6	2941.72	25956.8	-6.50739	0.0000000E+000	0.0000000E+000	0.0000000E+000	6.50739	0.0000000E+000	0.0000000E+000	0.0000000E+000	-6.50739	0.0000000E+000	0.0000000E+000	0.0000000E+000	-83.4926	0.0000000E+000	0.0000000E+000	0.0000000E+000	83.4926	0.114066	83.4926	-2.34977e-07
16.367	52.7869	350.485	354.438	-81.435	14.323	0.0613884	-0.000241711	27.7448	27.1294	1	12	0.00980096	2.76521e-05	0	-0.000271676	0.000420189	0.0027899	0.00282137	81.435	27129.4	4085.98	27435.4	-8.56499	0.0000000E+000	0.0000000E+000	0.0000000E+000	8.56499	0.0000000E+000	0.0000000E+000	0.0000000E+000	-8.56499	0.0000000E+000	0.0000000E+000	0.0000000E+000	-81.435	0.0000000E+000	0.0000000E+000	0.0000000E+000	81.435	0.150611	81.435	-2.57817e-08
11.0502	78.0377	505.242	511.233	-81.2197	14.7467	0.0614568	-0.000383622	28.5069	27.8427	1	12	0.00984136	1.92502e-05	0	-0.000271881	0.000298585	0.00193313	0.00195606	81.2197	27842.7	4300.48	28172.9	-8.78031	0.0000000E+000	0.0000000E+000	0.0000000E+000	8.78031	0.0000000E+000	0.0000000E+000	0.0000000E+000	-8.78031	0.0000000E+000	0.0000000E+000	0.0000000E+000	-81.2197	0.0000000E+000	0.0000000E+000	0.0000000E+000	81.2197	0.154456	81.2197	-2.05391e-07
7.46893	74.8984	753.585	757.298	-84.324	15.0736	0.0613387	-0.000686808	28.2767	28.0001	1	12	0.0094094	1.2425e-05	0	-0.000271788	0.000130599	0.00131401	0.00132048	84.324	28000.1	2782.92	28138.1	-5.67596	0.0000000E+000	0.0000000E+000	0.0000000E+000	5.67596	0.0000000E+000	0.0000000E+000	0.0000000E+000	-5.67596	0.0000000E+000	0.0000000E+000	0.0000000E+000	-84.324	0.0000000E+000	0.0000000E+000	0.0000000E+000	84.324	0.0993894	84.324	9.35495e-08
5.04683	191.571	1032.47	1050.09	-79.4885	15.7849	0.0616355	-3.10985e-05	30.5439	29.5274	1	13	0.00976534	9.29954e-06	0	-0.000271887	0.000173731	0.000936319	0.0009523	79.4885	29527.4	5478.72	30031.4	-10.5115	0.0000000E+000	0.0000000E+000	0.0000000E+000	10.5115	0.0000000E+000	0.0000000E+000	0.0000000E+000	-10.5115	0.0000000E+000	0.0000000E+000	0.0000000E+000	-79.4885	0.0000000E+000	0.0000000E+000	0.0000000E+000	79.4885	0.185547	79.4885	-9.91398e-08