File: Data_1mg/2022_01_26 IrOx 1mg  ref309 elect1_C05.mpt
EC-Lab ASCII FILE
Nb header lines : 63

Potentio Electrochemical Impedance Spectroscopy

Run on channel : 5 (SN 30436)
User :
CE vs. WE compliance from -10 V to 10 V
Electrode connection : standard
Potential control : Ewe
Ewe ctrl range : min = -10.00 V, max = 10.00 V
Safety Limits :
	Do not start on E overload
Acquisition started on : 01/26/2023 11:17:27.002
Loaded Setting File :  NONE
Saved on :
	File : 2022_01_26 IrOx 1mg  ref309 elect1_C05.mpr
	Directory : C:\Users\grupogalan\Documents\EC-Lab\Data\Scott\
	Host : 169.254.104.159
Device : VSP (SN 1176)
Address : USB
EC-Lab for windows v11.46 (software)
Internet server v11.40 (firmware)
Command interpretor v11.40 (firmware)
Electrode material :
Initial state :
Electrolyte :
Comments :
Electrode surface area : 0.001 cm²
Characteristic mass : 0.001 g
Equivalent Weight : 0.000 g/eq.
Density : 0.000 g/cm3
Volume (V) : 0.001 cm³
Cycle Definition : Charge/Discharge alternance
Mode                Single sine
E (V)               0.0000
vs.                 Eoc
tE (h:m:s)          0:00:0.0000
record              0
dI                  0.000
unit dI             mA
dt (s)              0.000
fi                  200.000
unit fi             kHz
ff                  100.000
unit ff             mHz
Nd                  6
Points              per decade
spacing             Logarithmic
Va (mV)             10.0
pw                  0.10
Na                  2
corr                0
E range min (V)     -10.000
E range max (V)     10.000
I Range             Auto
Bandwidth           5
nc cycles           0
goto Ns'            0
nr cycles           0
inc. cycle          0

freq/Hz	Re(Z)/Ohm	-Im(Z)/Ohm	|Z|/Ohm	Phase(Z)/deg	time/s	<Ewe>/V	<I>/mA	Cs/µF	Cp/µF	cycle number	I Range	|Ewe|/V	|I|/A	Ns	(Q-Qo)/mA.h	Re(Y)/Ohm-1	Im(Y)/Ohm-1	|Y|/Ohm-1	Phase(Y)/deg	Re(C)/nF	Im(C)/nF	|C|/nF	Phase(C)/deg	Re(M)	Im(M)	|M|	Phase(M)/deg	Re(Permittivity)	Im(Permittivity)	|Permittivity|	Phase(Permittivity)/deg	Re(Resistivity)/Ohm.cm	Im(Resistivity)/Ohm.cm	|Resistivity|/Ohm.cm	Phase(Resistivity)/deg	Re(Conductivity)/mS/cm	Im(Conductivity)/mS/cm	|Conductivity|/mS/cm	Phase(Conductivity)/deg	Tan(Delta)	Loss Angle(Delta)/deg	dq/mA.h
199998	1.24253	-1.36251	1.844	47.6369	2.06848	-0.0649825	-0.13686	-0.584057	-0.31887	1	9	0.00640029	0.00347088	0	-2.10729e-05	0.365417	-0.4007	0.542301	-47.6369	-318.87	290.792	431.553	-137.637	0.0000000E+000	0.0000000E+000	0.0000000E+000	137.637	0.0000000E+000	0.0000000E+000	0.0000000E+000	-137.637	0.0000000E+000	0.0000000E+000	0.0000000E+000	47.6369	0.0000000E+000	0.0000000E+000	0.0000000E+000	-47.6369	-0.911947	-47.6369	-2.10729e-05
135123	0.867633	-0.537435	1.0206	31.7752	2.35348	-0.0647833	-0.144035	-2.19162	-0.607724	1	9	0.00981643	0.00961829	0	-2.42159e-05	0.832962	-0.515959	0.979816	-31.7752	-607.724	981.107	1154.08	-121.775	0.0000000E+000	0.0000000E+000	0.0000000E+000	121.775	0.0000000E+000	0.0000000E+000	0.0000000E+000	-121.775	0.0000000E+000	0.0000000E+000	0.0000000E+000	31.7752	0.0000000E+000	0.0000000E+000	0.0000000E+000	-31.7752	-1.6144	-31.7752	-3.14303e-06
91291.2	0.809675	-0.252917	0.848257	17.3471	2.9125	-0.0648198	-0.149383	-6.89309	-0.612793	1	9	0.0101989	0.0120233	0	-6.61685e-05	1.12527	-0.351498	1.17889	-17.3471	-612.792	1961.76	2055.25	-107.347	0.0000000E+000	0.0000000E+000	0.0000000E+000	107.347	0.0000000E+000	0.0000000E+000	0.0000000E+000	-107.347	0.0000000E+000	0.0000000E+000	0.0000000E+000	17.3471	0.0000000E+000	0.0000000E+000	0.0000000E+000	-17.3471	-3.20135	-17.3471	-4.19526e-05
61674.2	0.787484	-0.113527	0.795625	8.20345	3.47148	-0.0648397	-0.141556	-22.731	-0.462804	1	9	0.00983191	0.0123575	0	-0.000107941	1.24401	-0.179341	1.25687	-8.20345	-462.804	3210.27	3243.46	-98.2035	0.0000000E+000	0.0000000E+000	0.0000000E+000	98.2035	0.0000000E+000	0.0000000E+000	0.0000000E+000	-98.2035	0.0000000E+000	0.0000000E+000	0.0000000E+000	8.20345	0.0000000E+000	0.0000000E+000	0.0000000E+000	-8.20345	-6.93656	-8.20345	-4.17723e-05
41669.8	0.786727	-0.0291872	0.787269	2.12467	3.89348	-0.0647352	-0.138053	-130.86	-0.179865	1	9	0.00924001	0.0117368	0	-0.00016214	1.26934	-0.047092	1.27021	-2.12467	-179.865	4848.17	4851.5	-92.1247	0.0000000E+000	0.0000000E+000	0.0000000E+000	92.1247	0.0000000E+000	0.0000000E+000	0.0000000E+000	-92.1247	0.0000000E+000	0.0000000E+000	0.0000000E+000	2.12467	0.0000000E+000	0.0000000E+000	0.0000000E+000	-2.12467	-26.9545	-2.12467	-5.41992e-05
28151	0.810416	0.0250178	0.810803	-1.76818	4.31548	-0.0648847	-0.133841	225.984	0.215152	1	9	0.0105466	0.0130076	0	-0.000158834	1.23276	0.0380557	1.23335	1.76818	215.153	6969.55	6972.87	-88.2318	0.0000000E+000	0.0000000E+000	0.0000000E+000	88.2318	0.0000000E+000	0.0000000E+000	0.0000000E+000	-88.2318	0.0000000E+000	0.0000000E+000	0.0000000E+000	-1.76818	0.0000000E+000	0.0000000E+000	0.0000000E+000	1.76818	32.3935	1.76818	3.30619e-06
19020.9	0.843838	0.0783864	0.847471	-5.30713	4.87448	-0.0649109	-0.138165	106.745	0.913229	1	9	0.0102047	0.0120413	0	-0.000200214	1.17492	0.109142	1.17998	5.30713	913.228	9831	9873.33	-84.6929	0.0000000E+000	0.0000000E+000	0.0000000E+000	84.6929	0.0000000E+000	0.0000000E+000	0.0000000E+000	-84.6929	0.0000000E+000	0.0000000E+000	0.0000000E+000	-5.30713	0.0000000E+000	0.0000000E+000	0.0000000E+000	5.30713	10.7651	5.30713	-4.13797e-05
12850.7	0.876382	0.114587	0.883842	-7.4492	5.29648	-0.0647176	-0.133469	108.082	1.81669	1	9	0.0103508	0.0117111	0	-0.000196429	1.12187	0.146686	1.13142	7.4492	1816.69	13894.3	14012.6	-82.5508	0.0000000E+000	0.0000000E+000	0.0000000E+000	82.5508	0.0000000E+000	0.0000000E+000	0.0000000E+000	-82.5508	0.0000000E+000	0.0000000E+000	0.0000000E+000	-7.4492	0.0000000E+000	0.0000000E+000	0.0000000E+000	7.4492	7.64815	7.4492	3.78451e-06
8683.37	0.915554	0.162329	0.929833	-10.0541	5.60098	-0.0648682	-0.154936	112.911	3.44126	1	9	0.0109813	0.01181	0	-0.000218238	1.05895	0.187753	1.07546	10.0541	3441.26	19409.1	19711.8	-79.9459	0.0000000E+000	0.0000000E+000	0.0000000E+000	79.9459	0.0000000E+000	0.0000000E+000	0.0000000E+000	-79.9459	0.0000000E+000	0.0000000E+000	0.0000000E+000	-10.0541	0.0000000E+000	0.0000000E+000	0.0000000E+000	10.0541	5.64011	10.0541	-2.18088e-05
5865.09	0.970507	0.175449	0.986239	-10.2473	6.01786	-0.0648097	-0.175509	154.666	4.89477	1	9	0.0109127	0.011065	0	-0.000246205	0.99778	0.180379	1.01395	10.2473	4894.78	27075.8	27514.6	-79.7527	0.0000000E+000	0.0000000E+000	0.0000000E+000	79.7527	0.0000000E+000	0.0000000E+000	0.0000000E+000	-79.7527	0.0000000E+000	0.0000000E+000	0.0000000E+000	-10.2473	0.0000000E+000	0.0000000E+000	0.0000000E+000	10.2473	5.53156	10.2473	-2.79671e-05
3961.2	1.00893	0.237341	1.03647	-13.2376	6.48097	-0.0647183	-0.15434	169.286	8.8767	1	9	0.0105727	0.0102007	0	-0.000265585	0.939175	0.220932	0.964811	13.2376	8876.7	37734.6	38764.7	-76.7624	0.0000000E+000	0.0000000E+000	0.0000000E+000	76.7624	0.0000000E+000	0.0000000E+000	0.0000000E+000	-76.7624	0.0000000E+000	0.0000000E+000	0.0000000E+000	-13.2376	0.0000000E+000	0.0000000E+000	0.0000000E+000	13.2376	4.25098	13.2376	-1.93802e-05
2677.43	1.08249	0.256249	1.1124	-13.318	6.94295	-0.0646461	-0.154973	231.974	12.3095	1	9	0.0104722	0.00941406	0	-0.000280839	0.874778	0.20708	0.898954	13.318	12309.5	51999.6	53436.7	-76.682	0.0000000E+000	0.0000000E+000	0.0000000E+000	76.682	0.0000000E+000	0.0000000E+000	0.0000000E+000	-76.682	0.0000000E+000	0.0000000E+000	0.0000000E+000	-13.318	0.0000000E+000	0.0000000E+000	0.0000000E+000	13.318	4.22435	13.318	-1.52541e-05
1808.26	1.15729	0.271038	1.18861	-13.1811	7.40493	-0.0647956	-0.161067	324.734	16.8855	1	9	0.0103854	0.00873744	0	-0.000299195	0.819156	0.191847	0.841321	13.1811	16885.5	72098.3	74049.2	-76.8189	0.0000000E+000	0.0000000E+000	0.0000000E+000	76.8189	0.0000000E+000	0.0000000E+000	0.0000000E+000	-76.8189	0.0000000E+000	0.0000000E+000	0.0000000E+000	-13.1811	0.0000000E+000	0.0000000E+000	0.0000000E+000	13.1811	4.26984	13.1811	-1.83558e-05
1221.96	1.21961	0.284841	1.25243	-13.1459	7.86644	-0.0647819	-0.158831	457.259	23.6517	1	9	0.010234	0.00817134	0	-0.00032482	0.777525	0.181592	0.798449	13.1459	23651.7	101270	103995	-76.8541	0.0000000E+000	0.0000000E+000	0.0000000E+000	76.8541	0.0000000E+000	0.0000000E+000	0.0000000E+000	-76.8541	0.0000000E+000	0.0000000E+000	0.0000000E+000	-13.1459	0.0000000E+000	0.0000000E+000	0.0000000E+000	13.1459	4.2817	13.1459	-2.56253e-05
825.264	1.2916	0.258761	1.31726	-11.3288	8.32771	-0.064605	-0.156949	745.295	28.7596	1	9	0.010186	0.00773267	0	-0.000347217	0.74436	0.149127	0.759151	11.3288	28759.6	143552	146405	-78.6712	0.0000000E+000	0.0000000E+000	0.0000000E+000	78.6712	0.0000000E+000	0.0000000E+000	0.0000000E+000	-78.6712	0.0000000E+000	0.0000000E+000	0.0000000E+000	-11.3288	0.0000000E+000	0.0000000E+000	0.0000000E+000	11.3288	4.99146	11.3288	-2.23971e-05
558.036	1.33466	0.265616	1.36084	-11.2556	8.79144	-0.0647653	-0.166303	1073.75	40.9073	1	9	0.0100176	0.00736138	0	-0.000361194	0.720709	0.143431	0.734843	11.2556	40907.3	205550	209581	-78.7444	0.0000000E+000	0.0000000E+000	0.0000000E+000	78.7444	0.0000000E+000	0.0000000E+000	0.0000000E+000	-78.7444	0.0000000E+000	0.0000000E+000	0.0000000E+000	-11.2556	0.0000000E+000	0.0000000E+000	0.0000000E+000	11.2556	5.02478	11.2556	-1.39771e-05
377.051	1.43414	0.303383	1.46588	-11.9445	9.25068	-0.0644689	-0.147519	1391.32	59.5959	1	9	0.0103357	0.00705086	0	-0.000381433	0.667415	0.141188	0.682185	11.9445	59595.9	281719	287953	-78.0555	0.0000000E+000	0.0000000E+000	0.0000000E+000	78.0555	0.0000000E+000	0.0000000E+000	0.0000000E+000	-78.0555	0.0000000E+000	0.0000000E+000	0.0000000E+000	-11.9445	0.0000000E+000	0.0000000E+000	0.0000000E+000	11.9445	4.72715	11.9445	-2.02382e-05
254.755	1.46295	0.304397	1.49429	-11.7539	9.71293	-0.0645486	-0.156911	2052.37	85.1668	1	9	0.0101218	0.00677369	0	-0.000407995	0.655184	0.136324	0.669216	11.7539	85166.8	409317	418084	-78.2461	0.0000000E+000	0.0000000E+000	0.0000000E+000	78.2461	0.0000000E+000	0.0000000E+000	0.0000000E+000	-78.2461	0.0000000E+000	0.0000000E+000	0.0000000E+000	-11.7539	0.0000000E+000	0.0000000E+000	0.0000000E+000	11.7539	4.80606	11.7539	-2.65626e-05
172.037	1.53172	0.332733	1.56744	-12.2558	10.1694	-0.0647784	-0.165446	2780.37	125.288	1	9	0.0102169	0.00651819	0	-0.000421501	0.623442	0.135429	0.637981	12.2558	125288	576759	590210	-77.7442	0.0000000E+000	0.0000000E+000	0.0000000E+000	77.7442	0.0000000E+000	0.0000000E+000	0.0000000E+000	-77.7442	0.0000000E+000	0.0000000E+000	0.0000000E+000	-12.2558	0.0000000E+000	0.0000000E+000	0.0000000E+000	12.2558	4.60346	12.2558	-1.35055e-05
116.227	1.56697	0.364457	1.6088	-13.0934	10.6266	-0.0648351	-0.168409	3757.21	192.821	1	9	0.0100539	0.00624933	0	-0.000444291	0.605421	0.140813	0.621581	13.0934	192821	829028	851157	-76.9066	0.0000000E+000	0.0000000E+000	0.0000000E+000	76.9066	0.0000000E+000	0.0000000E+000	0.0000000E+000	-76.9066	0.0000000E+000	0.0000000E+000	0.0000000E+000	-13.0934	0.0000000E+000	0.0000000E+000	0.0000000E+000	13.0934	4.29948	13.0934	-2.27908e-05
78.5176	1.66413	0.430848	1.719	-14.5153	11.0965	-0.064734	-0.152122	4704.67	295.548	1	9	0.0103232	0.00600536	0	-0.00046378	0.563166	0.145806	0.581735	14.5153	295548	1.14154e+06	1.17918e+06	-75.4847	0.0000000E+000	0.0000000E+000	0.0000000E+000	75.4847	0.0000000E+000	0.0000000E+000	0.0000000E+000	-75.4847	0.0000000E+000	0.0000000E+000	0.0000000E+000	-14.5153	0.0000000E+000	0.0000000E+000	0.0000000E+000	14.5153	3.86245	14.5153	-1.94881e-05
53.0478	1.71839	0.490419	1.787	-15.9285	11.5731	-0.0647198	-0.158533	6117.66	460.756	1	9	0.0101315	0.00566955	0	-0.000488087	0.538112	0.153574	0.559597	15.9285	460756	1.61445e+06	1.67891e+06	-74.0715	0.0000000E+000	0.0000000E+000	0.0000000E+000	74.0715	0.0000000E+000	0.0000000E+000	0.0000000E+000	-74.0715	0.0000000E+000	0.0000000E+000	0.0000000E+000	-15.9285	0.0000000E+000	0.0000000E+000	0.0000000E+000	15.9285	3.50392	15.9285	-2.43078e-05
35.8372	1.77915	0.633099	1.88844	-19.5877	12.2721	-0.0647606	-0.0216034	7014.79	788.41	1	10	0.0101862	0.00539396	0	-0.0005051	0.498893	0.177527	0.529538	19.5877	788410	2.21561e+06	2.35171e+06	-70.4123	0.0000000E+000	0.0000000E+000	0.0000000E+000	70.4123	0.0000000E+000	0.0000000E+000	0.0000000E+000	-70.4123	0.0000000E+000	0.0000000E+000	0.0000000E+000	-19.5877	0.0000000E+000	0.0000000E+000	0.0000000E+000	19.5877	2.81023	19.5877	-1.70125e-05
24.2323	1.89591	0.800633	2.05803	-22.8941	12.7471	-0.0645951	-0.0159235	8203.36	1241.52	1	10	0.0103905	0.00504874	0	-0.000493124	0.447624	0.189029	0.485901	22.8941	1.24152e+06	2.93994e+06	3.19134e+06	-67.1059	0.0000000E+000	0.0000000E+000	0.0000000E+000	67.1059	0.0000000E+000	0.0000000E+000	0.0000000E+000	-67.1059	0.0000000E+000	0.0000000E+000	0.0000000E+000	-22.8941	0.0000000E+000	0.0000000E+000	0.0000000E+000	22.8941	2.36802	22.8941	1.19763e-05
16.367	1.94861	1.10325	2.23925	-29.5173	13.174	-0.0649614	-0.0193684	8814.12	2139.54	1	10	0.0103186	0.00460804	0	-0.000491483	0.388616	0.220023	0.446578	29.5173	2.13954e+06	3.77896e+06	4.3426e+06	-60.4827	0.0000000E+000	0.0000000E+000	0.0000000E+000	60.4827	0.0000000E+000	0.0000000E+000	0.0000000E+000	-60.4827	0.0000000E+000	0.0000000E+000	0.0000000E+000	-29.5173	0.0000000E+000	0.0000000E+000	0.0000000E+000	29.5173	1.76625	29.5173	1.64067e-06
11.0502	1.98844	1.38535	2.42345	-34.8649	13.5977	-0.0649245	-0.0230593	10396.6	3397.36	1	10	0.00988028	0.00407696	0	-0.00050781	0.338569	0.23588	0.412636	34.8649	3.39736e+06	4.87636e+06	5.94314e+06	-55.1351	0.0000000E+000	0.0000000E+000	0.0000000E+000	55.1351	0.0000000E+000	0.0000000E+000	0.0000000E+000	-55.1351	0.0000000E+000	0.0000000E+000	0.0000000E+000	-34.8649	0.0000000E+000	0.0000000E+000	0.0000000E+000	34.8649	1.43534	34.8649	-1.63273e-05
7.46893	2.14957	2.08012	2.99124	-44.0593	13.9246	-0.064972	-0.0295314	10244.1	4953.89	1	10	0.0103766	0.00346898	0	-0.000507593	0.240241	0.23248	0.334309	44.0593	4.95389e+06	5.11928e+06	7.12377e+06	-45.9407	0.0000000E+000	0.0000000E+000	0.0000000E+000	45.9407	0.0000000E+000	0.0000000E+000	0.0000000E+000	-45.9407	0.0000000E+000	0.0000000E+000	0.0000000E+000	-44.0593	0.0000000E+000	0.0000000E+000	0.0000000E+000	44.0593	1.03339	44.0593	2.17579e-07
5.04683	2.15983	2.88337	3.6026	-53.1643	14.3869	-0.0647135	-0.0243045	10937.1	7006	1	10	0.0101877	0.00282788	0	-0.000533753	0.166414	0.222162	0.277578	53.1643	7.006e+06	5.24796e+06	8.75358e+06	-36.8357	0.0000000E+000	0.0000000E+000	0.0000000E+000	36.8357	0.0000000E+000	0.0000000E+000	0.0000000E+000	-36.8357	0.0000000E+000	0.0000000E+000	0.0000000E+000	-53.1643	0.0000000E+000	0.0000000E+000	0.0000000E+000	53.1643	0.749067	53.1643	-2.61604e-05
3.4086	2.39614	4.08416	4.73518	-59.6003	15.0432	-0.0646235	-0.0225318	11432.5	8505.03	1	10	0.0102801	0.002171	0	-0.000504032	0.106866	0.182151	0.211185	59.6003	8.50503e+06	4.98982e+06	9.86072e+06	-30.3997	0.0000000E+000	0.0000000E+000	0.0000000E+000	30.3997	0.0000000E+000	0.0000000E+000	0.0000000E+000	-30.3997	0.0000000E+000	0.0000000E+000	0.0000000E+000	-59.6003	0.0000000E+000	0.0000000E+000	0.0000000E+000	59.6003	0.58669	59.6003	2.97215e-05
2.30321	2.63288	5.78011	6.35151	-65.5104	16.4751	-0.0648031	-0.00326662	11955	9900.74	1	11	0.0102489	0.00161361	0	-0.000499378	0.0652644	0.143279	0.157443	65.5104	9.90074e+06	4.50985e+06	1.08795e+07	-24.4896	0.0000000E+000	0.0000000E+000	0.0000000E+000	24.4896	0.0000000E+000	0.0000000E+000	0.0000000E+000	-24.4896	0.0000000E+000	0.0000000E+000	0.0000000E+000	-65.5104	0.0000000E+000	0.0000000E+000	0.0000000E+000	65.5104	0.455507	65.5104	4.65334e-06
1.55627	2.93621	8.28331	8.78832	-70.482	17.8595	-0.0648083	-0.00513667	12346.1	10968	1	11	0.0102666	0.00116821	0	-0.000532592	0.0380168	0.107249	0.113787	70.482	1.0968e+07	3.88785e+06	1.16366e+07	-19.518	0.0000000E+000	0.0000000E+000	0.0000000E+000	19.518	0.0000000E+000	0.0000000E+000	0.0000000E+000	-19.518	0.0000000E+000	0.0000000E+000	0.0000000E+000	-70.482	0.0000000E+000	0.0000000E+000	0.0000000E+000	70.482	0.354473	70.482	-3.32138e-05
1.05233	3.38367	11.8255	12.3001	-74.0324	19.8894	-0.0647128	-0.00532318	12789.4	11821.5	1	11	0.0102203	0.000830912	0	-0.000555047	0.0223652	0.0781637	0.0813004	74.0324	1.18215e+07	3.38253e+06	1.22959e+07	-15.9676	0.0000000E+000	0.0000000E+000	0.0000000E+000	15.9676	0.0000000E+000	0.0000000E+000	0.0000000E+000	-15.9676	0.0000000E+000	0.0000000E+000	0.0000000E+000	-74.0324	0.0000000E+000	0.0000000E+000	0.0000000E+000	74.0324	0.286133	74.0324	-2.2455e-05
0.710357	4.0145	17.0911	17.5563	-76.7815	22.8804	-0.0647007	-0.00360599	13109.1	12423.7	1	11	0.0102447	0.000583535	0	-0.000554225	0.0130247	0.0554506	0.0569597	76.7815	1.24237e+07	2.91817e+06	1.27618e+07	-13.2185	0.0000000E+000	0.0000000E+000	0.0000000E+000	13.2185	0.0000000E+000	0.0000000E+000	0.0000000E+000	-13.2185	0.0000000E+000	0.0000000E+000	0.0000000E+000	-76.7815	0.0000000E+000	0.0000000E+000	0.0000000E+000	76.7815	0.234888	76.7815	8.22479e-07