File: Data_1mg/2022_01_25 Co30Ni60Fe10Nx 1mg  ref309 elect1 cv and bulk_03_CP_C02.mpt
EC-Lab ASCII FILE
Nb header lines : 52

Chronopotentiometry

Run on channel : 2 (SN 12477)
User :
CE vs. WE compliance from -10 V to 10 V
Electrode connection : standard
Potential control : Ewe
Ewe ctrl range : min = -2.50 V, max = 2.50 V
Safety Limits :
	Do not start on E overload
Acquisition started on : 01/25/2023 16:18:45.043
Loaded Setting File :  C:\Users\grupogalan\Documents\EC-Lab\Data\Scott\_cyclic_pause_cp2hr.mps
Saved on :
	File : 2022_01_25 Co30Ni60Fe10Nx 1mg  ref309 elect1 cv and bulk_03_CP_C02.mpr
	Directory : C:\Users\grupogalan\Documents\EC-Lab\Data\Scott\
	Host : 169.254.104.159
Device : VSP (SN 1176)
Address : USB
EC-Lab for windows v11.46 (software)
Internet server v11.40 (firmware)
Command interpretor v11.40 (firmware)
Electrode material :
Initial state :
Electrolyte :
Comments :
Electrode surface area : 0.000 cm²
Characteristic mass : 0.001 g
Equivalent Weight : 0.000 g/eq.
Density : 0.000 g/cm3
Volume (V) : 0.001 cm³
Cycle Definition : Charge/Discharge alternance
Is                  10.000
unit Is             mA
vs.                 <None>
ts (h:m:s)          2:00:0.0000
EM (V)              pass
dQM                 20.000
unit dQM            mA.h
record              <Ewe>
dEs (mV)            0.00
dts (s)             1.0000
E range min (V)     -2.500
E range max (V)     2.500
I Range             10 mA
Bandwidth           5
goto Ns'            0
nc cycles           0

mode	ox/red	error	control changes	Ns changes	counter inc.	Ns	time/s	control/mA	<Ewe>/V	I/mA	dQ/C	(Q-Qo)/C	half cycle	Q charge/discharge/mA.h	I Range	Energy charge/W.h	Energy discharge/W.h	Capacitance charge/µF	Capacitance discharge/µF	Q discharge/mA.h	Q charge/mA.h	Capacity/mA.h	Efficiency/%	cycle number	P/W
1	1	0	1	0	0	0	905.592	10	0.895718	10.0016	0.00947732	0.00947732	0	0.00263259	11	2.35806e-06	0.000000000000000E+000	0.000000000000000E+000	0.000000000000000E+000	0.000000000000000E+000	0.00263259	0.00263259	0.0000000E+000	0.000000000000000E+000	0.00895857
1	1	0	1	0	0	0	937.592	10	0.917159	10.0014	0.329524	0.329524	0	0.0915343	11	8.35902e-05	0.000000000000000E+000	1.53687e+07	0.000000000000000E+000	0.000000000000000E+000	0.0915343	0.0915343	0.0000000E+000	0.000000000000000E+000	0.0091729
1	1	0	1	0	0	0	969.592	10	0.922302	10.0021	0.64957	0.64957	0	0.180436	11	0.00016538	0.000000000000000E+000	2.44339e+07	0.000000000000000E+000	0.000000000000000E+000	0.180436	0.180436	0.0000000E+000	0.000000000000000E+000	0.00922493
1	1	0	1	0	0	0	1001.59	10	0.926423	10.001	0.969615	0.969615	0	0.269338	11	0.000247577	0.000000000000000E+000	3.15778e+07	0.000000000000000E+000	0.000000000000000E+000	0.269338	0.269338	0.0000000E+000	0.000000000000000E+000	0.00926515
1	1	0	1	0	0	0	1033.59	10	0.930555	10.0012	1.28966	1.28966	0	0.358239	11	0.000330146	0.000000000000000E+000	3.702e+07	0.000000000000000E+000	0.000000000000000E+000	0.358239	0.358239	0.0000000E+000	0.000000000000000E+000	0.00930664
1	1	0	1	0	0	0	1065.59	10	0.935027	10.0009	1.60971	1.60971	0	0.447141	11	0.000413098	0.000000000000000E+000	4.095e+07	0.000000000000000E+000	0.000000000000000E+000	0.447141	0.447141	0.0000000E+000	0.000000000000000E+000	0.00935107
1	1	0	1	0	0	0	1097.59	10	0.940061	10.0014	1.92975	1.92975	0	0.536042	11	0.000496428	0.000000000000000E+000	4.35189e+07	0.000000000000000E+000	0.000000000000000E+000	0.536042	0.536042	0.0000000E+000	0.000000000000000E+000	0.00940189
1	1	0	1	0	0	0	1129.59	10	0.943878	10.0021	2.2498	2.2498	0	0.624944	11	0.000580154	0.000000000000000E+000	4.67148e+07	0.000000000000000E+000	0.000000000000000E+000	0.624944	0.624944	0.0000000E+000	0.000000000000000E+000	0.00944073
1	1	0	1	0	0	0	1161.59	10	0.948335	10.0014	2.56984	2.56984	0	0.713846	11	0.000664282	0.000000000000000E+000	4.88402e+07	0.000000000000000E+000	0.000000000000000E+000	0.713846	0.713846	0.0000000E+000	0.000000000000000E+000	0.00948471
1	1	0	1	0	0	0	1193.59	10	0.953235	10.001	2.88989	2.88989	0	0.802747	11	0.00074883	0.000000000000000E+000	5.02439e+07	0.000000000000000E+000	0.000000000000000E+000	0.802747	0.802747	0.0000000E+000	0.000000000000000E+000	0.00953329
1	1	0	1	0	0	0	1225.59	10	0.958556	10.0009	3.20994	3.20994	0	0.891649	11	0.000833796	0.000000000000000E+000	5.10824e+07	0.000000000000000E+000	0.000000000000000E+000	0.891649	0.891649	0.0000000E+000	0.000000000000000E+000	0.00958638
1	1	0	1	0	0	0	1257.59	10	0.962876	10.0013	3.52998	3.52998	0	0.98055	11	0.000919196	0.000000000000000E+000	5.25622e+07	0.000000000000000E+000	0.000000000000000E+000	0.98055	0.98055	0.0000000E+000	0.000000000000000E+000	0.00963001
1	1	0	1	0	0	0	1289.59	10	0.968331	10.0016	3.85003	3.85003	0	1.06945	11	0.00100504	0.000000000000000E+000	5.30209e+07	0.000000000000000E+000	0.000000000000000E+000	1.06945	1.06945	0.0000000E+000	0.000000000000000E+000	0.00968488
1	1	0	1	0	0	0	1321.59	10	0.973159	10.0017	4.17007	4.17007	0	1.15835	11	0.00109134	0.000000000000000E+000	5.38482e+07	0.000000000000000E+000	0.000000000000000E+000	1.15835	1.15835	0.0000000E+000	0.000000000000000E+000	0.00973329
1	1	0	1	0	0	0	1353.59	10	0.978807	10.0016	4.49012	4.49012	0	1.24725	11	0.0011781	0.000000000000000E+000	5.404e+07	0.000000000000000E+000	0.000000000000000E+000	1.24725	1.24725	0.0000000E+000	0.000000000000000E+000	0.00978965
1	1	0	1	0	0	0	1385.59	10	0.983461	10.001	4.81016	4.81016	0	1.33616	11	0.00126532	0.000000000000000E+000	5.48211e+07	0.000000000000000E+000	0.000000000000000E+000	1.33616	1.33616	0.0000000E+000	0.000000000000000E+000	0.00983564
1	1	0	1	0	0	0	1417.59	10	0.988869	10.0017	5.13021	5.13021	0	1.42506	11	0.001353	0.000000000000000E+000	5.50739e+07	0.000000000000000E+000	0.000000000000000E+000	1.42506	1.42506	0.0000000E+000	0.000000000000000E+000	0.00989042
1	1	0	1	0	0	0	1449.59	10	0.993914	10.0012	5.45025	5.45025	0	1.51396	11	0.00144114	0.000000000000000E+000	5.55037e+07	0.000000000000000E+000	0.000000000000000E+000	1.51396	1.51396	0.0000000E+000	0.000000000000000E+000	0.00994037
1	1	0	1	0	0	0	1481.59	10	0.999177	10.0021	5.7703	5.7703	0	1.60286	11	0.00152975	0.000000000000000E+000	5.57735e+07	0.000000000000000E+000	0.000000000000000E+000	1.60286	1.60286	0.0000000E+000	0.000000000000000E+000	0.00999384
1	1	0	1	0	0	0	1513.59	10	1.00427	10.0015	6.09035	6.09035	0	1.69176	11	0.00161881	0.000000000000000E+000	5.61063e+07	0.000000000000000E+000	0.000000000000000E+000	1.69176	1.69176	0.0000000E+000	0.000000000000000E+000	0.0100442
1	1	0	1	0	0	0	1545.59	10	1.00915	10.0009	6.41039	6.41039	0	1.78066	11	0.00170833	0.000000000000000E+000	5.65131e+07	0.000000000000000E+000	0.000000000000000E+000	1.78066	1.78066	0.0000000E+000	0.000000000000000E+000	0.0100924
1	1	0	1	0	0	0	1577.59	10	1.01452	10.0009	6.73044	6.73044	0	1.86957	11	0.00179831	0.000000000000000E+000	5.66506e+07	0.000000000000000E+000	0.000000000000000E+000	1.86957	1.86957	0.0000000E+000	0.000000000000000E+000	0.0101461
1	1	0	1	0	0	0	1609.59	10	1.01982	10.002	7.05048	7.05048	0	1.95847	11	0.00188874	0.000000000000000E+000	5.68111e+07	0.000000000000000E+000	0.000000000000000E+000	1.95847	1.95847	0.0000000E+000	0.000000000000000E+000	0.0102003
1	1	0	1	0	0	0	1641.59	10	1.02477	10.0016	7.37053	7.37053	0	2.04737	11	0.00197962	0.000000000000000E+000	5.71109e+07	0.000000000000000E+000	0.000000000000000E+000	2.04737	2.04737	0.0000000E+000	0.000000000000000E+000	0.0102494
1	1	0	1	0	0	0	1673.59	10	1.02974	10.0007	7.69057	7.69057	0	2.13627	11	0.00207094	0.000000000000000E+000	5.73839e+07	0.000000000000000E+000	0.000000000000000E+000	2.13627	2.13627	0.0000000E+000	0.000000000000000E+000	0.0102981
1	1	0	1	0	0	0	1705.59	10	1.03432	10.0014	8.01062	8.01062	0	2.22517	11	0.0021627	0.000000000000000E+000	5.77973e+07	0.000000000000000E+000	0.000000000000000E+000	2.22517	2.22517	0.0000000E+000	0.000000000000000E+000	0.0103446
1	1	0	1	0	0	0	1737.59	10	1.03877	10.001	8.33066	8.33066	0	2.31407	11	0.00225487	0.000000000000000E+000	5.82357e+07	0.000000000000000E+000	0.000000000000000E+000	2.31407	2.31407	0.0000000E+000	0.000000000000000E+000	0.0103888
1	1	0	1	0	0	0	1769.59	10	1.04325	10.0014	8.65071	8.65071	0	2.40297	11	0.00234745	0.000000000000000E+000	5.8635e+07	0.000000000000000E+000	0.000000000000000E+000	2.40297	2.40297	0.0000000E+000	0.000000000000000E+000	0.010434
1	1	0	1	0	0	0	1801.59	10	1.04758	10.0011	8.97075	8.97075	0	2.49188	11	0.00244041	0.000000000000000E+000	5.90699e+07	0.000000000000000E+000	0.000000000000000E+000	2.49188	2.49188	0.0000000E+000	0.000000000000000E+000	0.010477
1	1	0	1	0	0	0	1833.59	10	1.05178	10.001	9.2908	9.2908	0	2.58078	11	0.00253373	0.000000000000000E+000	5.9533e+07	0.000000000000000E+000	0.000000000000000E+000	2.58078	2.58078	0.0000000E+000	0.000000000000000E+000	0.0105189
1	1	0	1	0	0	0	1865.59	10	1.0557	10.0014	9.61084	9.61084	0	2.66968	11	0.00262742	0.000000000000000E+000	6.00748e+07	0.000000000000000E+000	0.000000000000000E+000	2.66968	2.66968	0.0000000E+000	0.000000000000000E+000	0.0105585
1	1	0	1	0	0	0	1897.59	10	1.05952	10.0016	9.93089	9.93089	0	2.75858	11	0.00272145	0.000000000000000E+000	6.06268e+07	0.000000000000000E+000	0.000000000000000E+000	2.75858	2.75858	0.0000000E+000	0.000000000000000E+000	0.0105969
1	1	0	1	0	0	0	1929.59	10	1.0633	10.0017	10.2509	10.2509	0	2.84748	11	0.00281582	0.000000000000000E+000	6.11681e+07	0.000000000000000E+000	0.000000000000000E+000	2.84748	2.84748	0.0000000E+000	0.000000000000000E+000	0.0106349
1	1	0	1	0	0	0	1961.59	10	1.06712	10.0014	10.571	10.571	0	2.93638	11	0.00291052	0.000000000000000E+000	6.1674e+07	0.000000000000000E+000	0.000000000000000E+000	2.93638	2.93638	0.0000000E+000	0.000000000000000E+000	0.0106727
1	1	0	1	0	0	0	1993.59	10	1.07066	10.0009	10.891	10.891	0	3.02528	11	0.00300554	0.000000000000000E+000	6.22544e+07	0.000000000000000E+000	0.000000000000000E+000	3.02528	3.02528	0.0000000E+000	0.000000000000000E+000	0.0107076
1	1	0	1	0	0	0	2025.59	10	1.07404	10.0007	11.2111	11.2111	0	3.11419	11	0.00310088	0.000000000000000E+000	6.28691e+07	0.000000000000000E+000	0.000000000000000E+000	3.11419	3.11419	0.0000000E+000	0.000000000000000E+000	0.0107411
1	1	0	1	0	0	0	2057.59	10	1.07767	10.0019	11.5311	11.5311	0	3.20309	11	0.00319654	0.000000000000000E+000	6.33729e+07	0.000000000000000E+000	0.000000000000000E+000	3.20309	3.20309	0.0000000E+000	0.000000000000000E+000	0.0107788
1	1	0	1	0	0	0	2089.59	10	1.08113	10.0017	11.8512	11.8512	0	3.29199	11	0.00329252	0.000000000000000E+000	6.39173e+07	0.000000000000000E+000	0.000000000000000E+000	3.29199	3.29199	0.0000000E+000	0.000000000000000E+000	0.0108132
1	1	0	1	0	0	0	2121.59	10	1.08486	10.0014	12.1712	12.1712	0	3.38089	11	0.0033888	0.000000000000000E+000	6.43482e+07	0.000000000000000E+000	0.000000000000000E+000	3.38089	3.38089	0.0000000E+000	0.000000000000000E+000	0.0108502
1	1	0	1	0	0	0	2153.59	10	1.08829	10.0009	12.4912	12.4912	0	3.46979	11	0.0034854	0.000000000000000E+000	6.48661e+07	0.000000000000000E+000	0.000000000000000E+000	3.46979	3.46979	0.0000000E+000	0.000000000000000E+000	0.0108838
1	1	0	1	0	0	0	2185.59	10	1.09181	10.0016	12.8113	12.8113	0	3.55869	11	0.00358233	0.000000000000000E+000	6.53337e+07	0.000000000000000E+000	0.000000000000000E+000	3.55869	3.55869	0.0000000E+000	0.000000000000000E+000	0.0109198
1	1	0	1	0	0	0	2217.59	10	1.09589	10.0017	13.1313	13.1313	0	3.64759	11	0.00367959	0.000000000000000E+000	6.56012e+07	0.000000000000000E+000	0.000000000000000E+000	3.64759	3.64759	0.0000000E+000	0.000000000000000E+000	0.0109608
1	1	0	1	0	0	0	2249.59	10	1.10033	10.0013	13.4514	13.4514	0	3.7365	11	0.00377721	0.000000000000000E+000	6.57408e+07	0.000000000000000E+000	0.000000000000000E+000	3.7365	3.7365	0.0000000E+000	0.000000000000000E+000	0.0110047
1	1	0	1	0	0	0	2281.59	10	1.10456	10.0014	13.7714	13.7714	0	3.8254	11	0.00387522	0.000000000000000E+000	6.59428e+07	0.000000000000000E+000	0.000000000000000E+000	3.8254	3.8254	0.0000000E+000	0.000000000000000E+000	0.0110471
1	1	0	1	0	0	0	2313.59	10	1.10919	10.001	14.0915	14.0915	0	3.9143	11	0.00397361	0.000000000000000E+000	6.60103e+07	0.000000000000000E+000	0.000000000000000E+000	3.9143	3.9143	0.0000000E+000	0.000000000000000E+000	0.0110931
1	1	0	1	0	0	0	2345.59	10	1.11478	10.0013	14.4115	14.4115	0	4.0032	11	0.00407245	0.000000000000000E+000	6.57864e+07	0.000000000000000E+000	0.000000000000000E+000	4.0032	4.0032	0.0000000E+000	0.000000000000000E+000	0.0111493
1	1	0	1	0	0	0	2377.59	10	1.12036	10.0019	14.7316	14.7316	0	4.0921	11	0.00417179	0.000000000000000E+000	6.55766e+07	0.000000000000000E+000	0.000000000000000E+000	4.0921	4.0921	0.0000000E+000	0.000000000000000E+000	0.0112057
1	1	0	1	0	0	0	2409.59	10	1.12628	10.0015	15.0516	15.0516	0	4.181	11	0.00427167	0.000000000000000E+000	6.5282e+07	0.000000000000000E+000	0.000000000000000E+000	4.181	4.181	0.0000000E+000	0.000000000000000E+000	0.0112645
1	1	0	1	0	0	0	2441.59	10	1.13435	10.0012	15.3717	15.3717	0	4.26991	11	0.00437215	0.000000000000000E+000	6.44165e+07	0.000000000000000E+000	0.000000000000000E+000	4.26991	4.26991	0.0000000E+000	0.000000000000000E+000	0.0113449
1	1	0	1	0	0	0	2473.59	10	1.1424	10.0012	15.6917	15.6917	0	4.35881	11	0.00447331	0.000000000000000E+000	6.36103e+07	0.000000000000000E+000	0.000000000000000E+000	4.35881	4.35881	0.0000000E+000	0.000000000000000E+000	0.0114254
1	1	0	1	0	0	0	2505.59	10	1.15083	10.0017	16.0118	16.0118	0	4.44771	11	0.00457524	0.000000000000000E+000	6.27632e+07	0.000000000000000E+000	0.000000000000000E+000	4.44771	4.44771	0.0000000E+000	0.000000000000000E+000	0.0115103
1	1	0	1	0	0	0	2537.59	10	1.16151	10.0017	16.3318	16.3318	0	4.53661	11	0.00467802	0.000000000000000E+000	6.14459e+07	0.000000000000000E+000	0.000000000000000E+000	4.53661	4.53661	0.0000000E+000	0.000000000000000E+000	0.0116171
1	1	0	1	0	0	0	2569.59	10	1.17154	10.0014	16.6518	16.6518	0	4.62551	11	0.00478171	0.000000000000000E+000	6.03714e+07	0.000000000000000E+000	0.000000000000000E+000	4.62551	4.62551	0.0000000E+000	0.000000000000000E+000	0.0117171
1	1	0	1	0	0	0	2601.59	10	1.18142	10.0009	16.9719	16.9719	0	4.71441	11	0.00488634	0.000000000000000E+000	5.94034e+07	0.000000000000000E+000	0.000000000000000E+000	4.71441	4.71441	0.0000000E+000	0.000000000000000E+000	0.0118152
1	1	0	1	0	0	0	2633.59	10	1.19166	10.0012	17.2919	17.2919	0	4.80331	11	0.00499187	0.000000000000000E+000	5.84301e+07	0.000000000000000E+000	0.000000000000000E+000	4.80331	4.80331	0.0000000E+000	0.000000000000000E+000	0.011918
1	1	0	1	0	0	0	2665.59	10	1.20069	10.0005	17.612	17.612	0	4.89222	11	0.00509822	0.000000000000000E+000	5.77486e+07	0.000000000000000E+000	0.000000000000000E+000	4.89222	4.89222	0.0000000E+000	0.000000000000000E+000	0.0120076
1	1	0	1	0	0	0	2697.59	10	1.2074	10.0016	17.932	17.932	0	4.98112	11	0.00520529	0.000000000000000E+000	5.75325e+07	0.000000000000000E+000	0.000000000000000E+000	4.98112	4.98112	0.0000000E+000	0.000000000000000E+000	0.012076
1	1	0	1	0	0	0	2729.59	10	1.21534	10.002	18.2521	18.2521	0	5.07002	11	0.00531303	0.000000000000000E+000	5.71051e+07	0.000000000000000E+000	0.000000000000000E+000	5.07002	5.07002	0.0000000E+000	0.000000000000000E+000	0.0121558
1	1	0	1	0	0	0	2761.59	10	1.22131	10.0012	18.5721	18.5721	0	5.15892	11	0.00542138	0.000000000000000E+000	5.70404e+07	0.000000000000000E+000	0.000000000000000E+000	5.15892	5.15892	0.0000000E+000	0.000000000000000E+000	0.0122146
1	1	0	1	0	0	0	2793.59	10	1.22799	10.0016	18.8922	18.8922	0	5.24782	11	0.00553028	0.000000000000000E+000	5.68571e+07	0.000000000000000E+000	0.000000000000000E+000	5.24782	5.24782	0.0000000E+000	0.000000000000000E+000	0.0122819
1	1	0	1	0	0	0	2825.59	10	1.23353	10.0023	19.2122	19.2122	0	5.33672	11	0.00563972	0.000000000000000E+000	5.68731e+07	0.000000000000000E+000	0.000000000000000E+000	5.33672	5.33672	0.0000000E+000	0.000000000000000E+000	0.0123381
1	1	0	1	0	0	0	2857.59	10	1.2387	10.0016	19.5323	19.5323	0	5.42563	11	0.00574967	0.000000000000000E+000	5.69485e+07	0.000000000000000E+000	0.000000000000000E+000	5.42563	5.42563	0.0000000E+000	0.000000000000000E+000	0.0123889
1	1	0	1	0	0	0	2889.59	10	1.24508	10.0015	19.8523	19.8523	0	5.51453	11	0.00586011	0.000000000000000E+000	5.68236e+07	0.000000000000000E+000	0.000000000000000E+000	5.51453	5.51453	0.0000000E+000	0.000000000000000E+000	0.0124527
1	1	0	1	0	0	0	2921.59	10	1.25059	10.0025	20.1723	20.1723	0	5.60343	11	0.00597102	0.000000000000000E+000	5.68444e+07	0.000000000000000E+000	0.000000000000000E+000	5.60343	5.60343	0.0000000E+000	0.000000000000000E+000	0.012509
1	1	0	1	0	0	0	2953.59	10	1.25459	10.0016	20.4924	20.4924	0	5.69233	11	0.00608237	0.000000000000000E+000	5.71014e+07	0.000000000000000E+000	0.000000000000000E+000	5.69233	5.69233	0.0000000E+000	0.000000000000000E+000	0.012548
1	1	0	1	0	0	0	2985.59	10	1.25984	10.0005	20.8124	20.8124	0	5.78123	11	0.00619416	0.000000000000000E+000	5.71579e+07	0.000000000000000E+000	0.000000000000000E+000	5.78123	5.78123	0.0000000E+000	0.000000000000000E+000	0.0125991
1	1	0	1	0	0	0	3017.59	10	1.26507	10.0012	21.1325	21.1325	0	5.87013	11	0.00630638	0.000000000000000E+000	5.72155e+07	0.000000000000000E+000	0.000000000000000E+000	5.87013	5.87013	0.0000000E+000	0.000000000000000E+000	0.0126522
1	1	0	1	0	0	0	3049.59	10	1.26976	10.0016	21.4525	21.4525	0	5.95904	11	0.00641901	0.000000000000000E+000	5.73532e+07	0.000000000000000E+000	0.000000000000000E+000	5.95904	5.95904	0.0000000E+000	0.000000000000000E+000	0.0126996
1	1	0	1	0	0	0	3081.59	10	1.2731	10.0022	21.7726	21.7726	0	6.04794	11	0.00653202	0.000000000000000E+000	5.76937e+07	0.000000000000000E+000	0.000000000000000E+000	6.04794	6.04794	0.0000000E+000	0.000000000000000E+000	0.0127338
1	1	0	1	0	0	0	3113.59	10	1.27798	10.0013	22.0926	22.0926	0	6.13684	11	0.00664542	0.000000000000000E+000	5.77948e+07	0.000000000000000E+000	0.000000000000000E+000	6.13684	6.13684	0.0000000E+000	0.000000000000000E+000	0.0127814
1	1	0	1	0	0	0	3145.59	10	1.28164	10.0008	22.4127	22.4127	0	6.22574	11	0.00675921	0.000000000000000E+000	5.80757e+07	0.000000000000000E+000	0.000000000000000E+000	6.22574	6.22574	0.0000000E+000	0.000000000000000E+000	0.0128174
1	1	0	1	0	0	0	3177.59	10	1.28548	10.0014	22.7327	22.7327	0	6.31464	11	0.00687332	0.000000000000000E+000	5.83248e+07	0.000000000000000E+000	0.000000000000000E+000	6.31464	6.31464	0.0000000E+000	0.000000000000000E+000	0.0128566
1	1	0	1	0	0	0	3209.59	10	1.28983	10.0017	23.0528	23.0528	0	6.40354	11	0.00698779	0.000000000000000E+000	5.84935e+07	0.000000000000000E+000	0.000000000000000E+000	6.40354	6.40354	0.0000000E+000	0.000000000000000E+000	0.0129005
1	1	0	1	0	0	0	3241.59	10	1.29396	10.0016	23.3728	23.3728	0	6.49245	11	0.00710263	0.000000000000000E+000	5.86896e+07	0.000000000000000E+000	0.000000000000000E+000	6.49245	6.49245	0.0000000E+000	0.000000000000000E+000	0.0129416
1	1	0	1	0	0	0	3273.59	10	1.29758	10.0018	23.6928	23.6928	0	6.58135	11	0.00721783	0.000000000000000E+000	5.89575e+07	0.000000000000000E+000	0.000000000000000E+000	6.58135	6.58135	0.0000000E+000	0.000000000000000E+000	0.0129782
1	1	0	1	0	0	0	3305.59	10	1.30118	10.0021	24.0129	24.0129	0	6.67025	11	0.00733334	0.000000000000000E+000	5.92235e+07	0.000000000000000E+000	0.000000000000000E+000	6.67025	6.67025	0.0000000E+000	0.000000000000000E+000	0.0130145
1	1	0	1	0	0	0	3337.59	10	1.30514	10.0016	24.3329	24.3329	0	6.75915	11	0.00744918	0.000000000000000E+000	5.94325e+07	0.000000000000000E+000	0.000000000000000E+000	6.75915	6.75915	0.0000000E+000	0.000000000000000E+000	0.0130534
1	1	0	1	0	0	0	3369.59	10	1.30801	10.0016	24.653	24.653	0	6.84805	11	0.00756535	0.000000000000000E+000	5.97943e+07	0.000000000000000E+000	0.000000000000000E+000	6.84805	6.84805	0.0000000E+000	0.000000000000000E+000	0.0130823
1	1	0	1	0	0	0	3401.59	10	1.31184	10.0014	24.973	24.973	0	6.93695	11	0.00768182	0.000000000000000E+000	6.00143e+07	0.000000000000000E+000	0.000000000000000E+000	6.93695	6.93695	0.0000000E+000	0.000000000000000E+000	0.0131202
1	1	0	1	0	0	0	3433.59	10	1.31531	10.0014	25.2931	25.2931	0	7.02586	11	0.00779863	0.000000000000000E+000	6.02806e+07	0.000000000000000E+000	0.000000000000000E+000	7.02586	7.02586	0.0000000E+000	0.000000000000000E+000	0.0131549
1	1	0	1	0	0	0	3465.59	10	1.319	10.001	25.6131	25.6131	0	7.11476	11	0.00791574	0.000000000000000E+000	6.05107e+07	0.000000000000000E+000	0.000000000000000E+000	7.11476	7.11476	0.0000000E+000	0.000000000000000E+000	0.0131914
1	1	0	1	0	0	0	3497.59	10	1.32095	10.0016	25.9332	25.9332	0	7.20366	11	0.00803314	0.000000000000000E+000	6.09861e+07	0.000000000000000E+000	0.000000000000000E+000	7.20366	7.20366	0.0000000E+000	0.000000000000000E+000	0.0132116
1	1	0	1	0	0	0	3529.59	10	1.32601	10.0011	26.2532	26.2532	0	7.29256	11	0.00815086	0.000000000000000E+000	6.10127e+07	0.000000000000000E+000	0.000000000000000E+000	7.29256	7.29256	0.0000000E+000	0.000000000000000E+000	0.0132616
1	1	0	1	0	0	0	3561.59	10	1.32909	10.0015	26.5733	26.5733	0	7.38146	11	0.00826886	0.000000000000000E+000	6.13174e+07	0.000000000000000E+000	0.000000000000000E+000	7.38146	7.38146	0.0000000E+000	0.000000000000000E+000	0.0132929
1	1	0	1	0	0	0	3593.59	10	1.33296	10.0012	26.8933	26.8933	0	7.47036	11	0.00838717	0.000000000000000E+000	6.15062e+07	0.000000000000000E+000	0.000000000000000E+000	7.47036	7.47036	0.0000000E+000	0.000000000000000E+000	0.0133312
1	1	0	1	0	0	0	3625.59	10	1.33529	10.0018	27.2134	27.2134	0	7.55927	11	0.00850577	0.000000000000000E+000	6.19092e+07	0.000000000000000E+000	0.000000000000000E+000	7.55927	7.55927	0.0000000E+000	0.000000000000000E+000	0.0133553
1	1	0	1	0	0	0	3657.59	10	1.33879	10.0008	27.5334	27.5334	0	7.64817	11	0.00862465	0.000000000000000E+000	6.21415e+07	0.000000000000000E+000	0.000000000000000E+000	7.64817	7.64817	0.0000000E+000	0.000000000000000E+000	0.013389
1	1	0	1	0	0	0	3689.59	10	1.34249	10.0014	27.8535	27.8535	0	7.73707	11	0.00874383	0.000000000000000E+000	6.23439e+07	0.000000000000000E+000	0.000000000000000E+000	7.73707	7.73707	0.0000000E+000	0.000000000000000E+000	0.0134267
1	1	0	1	0	0	0	3721.59	10	1.34609	10.0013	28.1735	28.1735	0	7.82597	11	0.00886332	0.000000000000000E+000	6.25554e+07	0.000000000000000E+000	0.000000000000000E+000	7.82597	7.82597	0.0000000E+000	0.000000000000000E+000	0.0134627
1	1	0	1	0	0	0	3753.59	10	1.34882	10.0016	28.4935	28.4935	0	7.91487	11	0.00898309	0.000000000000000E+000	6.28853e+07	0.000000000000000E+000	0.000000000000000E+000	7.91487	7.91487	0.0000000E+000	0.000000000000000E+000	0.0134904
1	1	0	1	0	0	0	3785.59	10	1.35193	10.001	28.8136	28.8136	0	8.00378	11	0.00910312	0.000000000000000E+000	6.31581e+07	0.000000000000000E+000	0.000000000000000E+000	8.00378	8.00378	0.0000000E+000	0.000000000000000E+000	0.0135206
1	1	0	1	0	0	0	3817.59	10	1.35516	10.0017	29.1336	29.1336	0	8.09268	11	0.00922346	0.000000000000000E+000	6.34103e+07	0.000000000000000E+000	0.000000000000000E+000	8.09268	8.09268	0.0000000E+000	0.000000000000000E+000	0.0135539
1	1	0	1	0	0	0	3849.59	10	1.3584	10.0017	29.4537	29.4537	0	8.18158	11	0.00934409	0.000000000000000E+000	6.36591e+07	0.000000000000000E+000	0.000000000000000E+000	8.18158	8.18158	0.0000000E+000	0.000000000000000E+000	0.0135863
1	1	0	1	0	0	0	3881.59	10	1.36167	10.0011	29.7737	29.7737	0	8.27048	11	0.00946504	0.000000000000000E+000	6.3898e+07	0.000000000000000E+000	0.000000000000000E+000	8.27048	8.27048	0.0000000E+000	0.000000000000000E+000	0.0136183
1	1	0	1	0	0	0	3913.59	10	1.36462	10.0014	30.0938	30.0938	0	8.35938	11	0.00958627	0.000000000000000E+000	6.4179e+07	0.000000000000000E+000	0.000000000000000E+000	8.35938	8.35938	0.0000000E+000	0.000000000000000E+000	0.0136481
1	1	0	1	0	0	0	3945.59	10	1.369	10.0016	30.4138	30.4138	0	8.44828	11	0.00970782	0.000000000000000E+000	6.42622e+07	0.000000000000000E+000	0.000000000000000E+000	8.44828	8.44828	0.0000000E+000	0.000000000000000E+000	0.0136921
1	1	0	1	0	0	0	3977.59	10	1.37221	10.0019	30.7339	30.7339	0	8.53719	11	0.00982964	0.000000000000000E+000	6.45003e+07	0.000000000000000E+000	0.000000000000000E+000	8.53719	8.53719	0.0000000E+000	0.000000000000000E+000	0.0137247
1	1	0	1	0	0	0	4009.59	10	1.37573	10.0019	31.0539	31.0539	0	8.62609	11	0.00995177	0.000000000000000E+000	6.46937e+07	0.000000000000000E+000	0.000000000000000E+000	8.62609	8.62609	0.0000000E+000	0.000000000000000E+000	0.01376
1	1	0	1	0	0	0	4041.59	10	1.3793	10.0017	31.374	31.374	0	8.71499	11	0.0100742	0.000000000000000E+000	6.48777e+07	0.000000000000000E+000	0.000000000000000E+000	8.71499	8.71499	0.0000000E+000	0.000000000000000E+000	0.0137955
1	1	0	1	0	0	0	4073.59	10	1.38265	10.0018	31.694	31.694	0	8.80389	11	0.010197	0.000000000000000E+000	6.50887e+07	0.000000000000000E+000	0.000000000000000E+000	8.80389	8.80389	0.0000000E+000	0.000000000000000E+000	0.013829
1	1	0	1	0	0	0	4105.59	10	1.38597	10.0016	32.0141	32.0141	0	8.89279	11	0.01032	0.000000000000000E+000	6.53016e+07	0.000000000000000E+000	0.000000000000000E+000	8.89279	8.89279	0.0000000E+000	0.000000000000000E+000	0.0138618
1	1	0	1	0	0	0	4137.59	10	1.38965	10.0014	32.3341	32.3341	0	8.9817	11	0.0104434	0.000000000000000E+000	6.54632e+07	0.000000000000000E+000	0.000000000000000E+000	8.9817	8.9817	0.0000000E+000	0.000000000000000E+000	0.0138984
1	1	0	1	0	0	0	4169.59	10	1.39297	10.0017	32.6541	32.6541	0	9.0706	11	0.0105672	0.000000000000000E+000	6.56689e+07	0.000000000000000E+000	0.000000000000000E+000	9.0706	9.0706	0.0000000E+000	0.000000000000000E+000	0.0139321
1	1	0	1	0	0	0	4201.59	10	1.39729	10.0017	32.9742	32.9742	0	9.1595	11	0.0106912	0.000000000000000E+000	6.57416e+07	0.000000000000000E+000	0.000000000000000E+000	9.1595	9.1595	0.0000000E+000	0.000000000000000E+000	0.0139753
1	1	0	1	0	0	0	4233.59	10	1.40165	10.002	33.2942	33.2942	0	9.2484	11	0.0108156	0.000000000000000E+000	6.58077e+07	0.000000000000000E+000	0.000000000000000E+000	9.2484	9.2484	0.0000000E+000	0.000000000000000E+000	0.0140193
1	1	0	1	0	0	0	4265.59	10	1.40546	10.0019	33.6143	33.6143	0	9.3373	11	0.0109404	0.000000000000000E+000	6.59432e+07	0.000000000000000E+000	0.000000000000000E+000	9.3373	9.3373	0.0000000E+000	0.000000000000000E+000	0.0140573
1	1	0	1	0	0	0	4297.59	10	1.41008	10.0014	33.9343	33.9343	0	9.4262	11	0.0110656	0.000000000000000E+000	6.59735e+07	0.000000000000000E+000	0.000000000000000E+000	9.4262	9.4262	0.0000000E+000	0.000000000000000E+000	0.0141027
1	1	0	1	0	0	0	4329.59	10	1.41425	10.002	34.2544	34.2544	0	9.51511	11	0.0111911	0.000000000000000E+000	6.60607e+07	0.000000000000000E+000	0.000000000000000E+000	9.51511	9.51511	0.0000000E+000	0.000000000000000E+000	0.0141453
1	1	0	1	0	0	0	4361.59	10	1.41911	10.0021	34.5744	34.5744	0	9.60401	11	0.011317	0.000000000000000E+000	6.60579e+07	0.000000000000000E+000	0.000000000000000E+000	9.60401	9.60401	0.0000000E+000	0.000000000000000E+000	0.0141942
1	1	0	1	0	0	0	4393.59	10	1.42335	10.001	34.8945	34.8945	0	9.69291	11	0.0114434	0.000000000000000E+000	6.61337e+07	0.000000000000000E+000	0.000000000000000E+000	9.69291	9.69291	0.0000000E+000	0.000000000000000E+000	0.014235
1	1	0	1	0	0	0	4425.59	10	1.42783	10.0014	35.2145	35.2145	0	9.78181	11	0.0115701	0.000000000000000E+000	6.61786e+07	0.000000000000000E+000	0.000000000000000E+000	9.78181	9.78181	0.0000000E+000	0.000000000000000E+000	0.0142804
1	1	0	1	0	0	0	4457.59	10	1.4318	10.0009	35.5346	35.5346	0	9.87071	11	0.0116972	0.000000000000000E+000	6.62857e+07	0.000000000000000E+000	0.000000000000000E+000	9.87071	9.87071	0.0000000E+000	0.000000000000000E+000	0.0143193
1	1	0	1	0	0	0	4489.59	10	1.43792	10.0013	35.8546	35.8546	0	9.95961	11	0.0118247	0.000000000000000E+000	6.61283e+07	0.000000000000000E+000	0.000000000000000E+000	9.95961	9.95961	0.0000000E+000	0.000000000000000E+000	0.014381
1	1	0	1	0	0	0	4521.59	10	1.44107	10.0016	36.1747	36.1747	0	10.0485	11	0.0119527	0.000000000000000E+000	6.63331e+07	0.000000000000000E+000	0.000000000000000E+000	10.0485	10.0485	0.0000000E+000	0.000000000000000E+000	0.0144129
1	1	0	1	0	0	0	4553.59	10	1.44768	10.0014	36.4947	36.4947	0	10.1374	11	0.0120812	0.000000000000000E+000	6.61184e+07	0.000000000000000E+000	0.000000000000000E+000	10.1374	10.1374	0.0000000E+000	0.000000000000000E+000	0.0144788
1	1	0	1	0	0	0	4585.59	10	1.45339	10.0012	36.8147	36.8147	0	10.2263	11	0.0122101	0.000000000000000E+000	6.60154e+07	0.000000000000000E+000	0.000000000000000E+000	10.2263	10.2263	0.0000000E+000	0.000000000000000E+000	0.0145357
1	1	0	1	0	0	0	4617.59	10	1.45757	10.0015	37.1348	37.1348	0	10.3152	11	0.0123395	0.000000000000000E+000	6.60931e+07	0.000000000000000E+000	0.000000000000000E+000	10.3152	10.3152	0.0000000E+000	0.000000000000000E+000	0.0145779
1	1	0	1	0	0	0	4649.59	10	1.46442	10.0009	37.4548	37.4548	0	10.4041	11	0.0124694	0.000000000000000E+000	6.58597e+07	0.000000000000000E+000	0.000000000000000E+000	10.4041	10.4041	0.0000000E+000	0.000000000000000E+000	0.0146455
1	1	0	1	0	0	0	4681.59	10	1.47077	10.0017	37.7749	37.7749	0	10.493	11	0.0125999	0.000000000000000E+000	6.569e+07	0.000000000000000E+000	0.000000000000000E+000	10.493	10.493	0.0000000E+000	0.000000000000000E+000	0.0147102
1	1	0	1	0	0	0	4713.59	10	1.47767	10.0014	38.0949	38.0949	0	10.5819	11	0.012731	0.000000000000000E+000	6.54607e+07	0.000000000000000E+000	0.000000000000000E+000	10.5819	10.5819	0.0000000E+000	0.000000000000000E+000	0.0147788
1	1	0	1	0	0	0	4745.59	10	1.48354	10.0022	38.415	38.415	0	10.6708	11	0.0128626	0.000000000000000E+000	6.53517e+07	0.000000000000000E+000	0.000000000000000E+000	10.6708	10.6708	0.0000000E+000	0.000000000000000E+000	0.0148386
1	1	0	1	0	0	0	4777.59	10	1.49026	10.001	38.735	38.735	0	10.7597	11	0.0129948	0.000000000000000E+000	6.51515e+07	0.000000000000000E+000	0.000000000000000E+000	10.7597	10.7597	0.0000000E+000	0.000000000000000E+000	0.0149041
1	1	0	1	0	0	0	4809.59	10	1.49639	10.0014	39.0551	39.0551	0	10.8486	11	0.0131276	0.000000000000000E+000	6.50186e+07	0.000000000000000E+000	0.000000000000000E+000	10.8486	10.8486	0.0000000E+000	0.000000000000000E+000	0.0149661
1	1	0	1	0	0	0	4841.59	10	1.50613	10.0009	39.3751	39.3751	0	10.9375	11	0.0132612	0.000000000000000E+000	6.45059e+07	0.000000000000000E+000	0.000000000000000E+000	10.9375	10.9375	0.0000000E+000	0.000000000000000E+000	0.0150627
1	1	0	1	0	0	0	4873.59	10	1.51319	10.0016	39.6952	39.6952	0	11.0264	11	0.0133954	0.000000000000000E+000	6.42863e+07	0.000000000000000E+000	0.000000000000000E+000	11.0264	11.0264	0.0000000E+000	0.000000000000000E+000	0.0151343
1	1	0	1	0	0	0	4905.59	10	1.52056	10.0021	40.0152	40.0152	0	11.1153	11	0.0135303	0.000000000000000E+000	6.40404e+07	0.000000000000000E+000	0.000000000000000E+000	11.1153	11.1153	0.0000000E+000	0.000000000000000E+000	0.0152088
1	1	0	1	0	0	0	4937.59	10	1.52996	10.0016	40.3352	40.3352	0	11.2042	11	0.0136659	0.000000000000000E+000	6.35959e+07	0.000000000000000E+000	0.000000000000000E+000	11.2042	11.2042	0.0000000E+000	0.000000000000000E+000	0.015302
1	1	0	1	0	0	0	4969.59	10	1.53871	10.0007	40.6553	40.6553	0	11.2931	11	0.0138022	0.000000000000000E+000	6.32282e+07	0.000000000000000E+000	0.000000000000000E+000	11.2931	11.2931	0.0000000E+000	0.000000000000000E+000	0.0153882
1	1	0	1	0	0	0	5001.59	10	1.54648	10.0014	40.9753	40.9753	0	11.382	11	0.0139393	0.000000000000000E+000	6.2965e+07	0.000000000000000E+000	0.000000000000000E+000	11.382	11.382	0.0000000E+000	0.000000000000000E+000	0.015467
1	1	0	1	0	0	0	5033.59	10	1.55594	10.0009	41.2954	41.2954	0	11.4709	11	0.0140772	0.000000000000000E+000	6.25476e+07	0.000000000000000E+000	0.000000000000000E+000	11.4709	11.4709	0.0000000E+000	0.000000000000000E+000	0.0155608
1	1	0	1	0	0	0	5065.59	10	1.56481	10.0018	41.6154	41.6154	0	11.5598	11	0.0142159	0.000000000000000E+000	6.21967e+07	0.000000000000000E+000	0.000000000000000E+000	11.5598	11.5598	0.0000000E+000	0.000000000000000E+000	0.015651
1	1	0	1	0	0	0	5097.59	10	1.57568	10.002	41.9355	41.9355	0	11.6487	11	0.0143555	0.000000000000000E+000	6.16731e+07	0.000000000000000E+000	0.000000000000000E+000	11.6487	11.6487	0.0000000E+000	0.000000000000000E+000	0.01576
1	1	0	1	0	0	0	5129.59	10	1.58423	10.0016	42.2555	42.2555	0	11.7376	11	0.0144959	0.000000000000000E+000	6.13722e+07	0.000000000000000E+000	0.000000000000000E+000	11.7376	11.7376	0.0000000E+000	0.000000000000000E+000	0.0158449
1	1	0	1	0	0	0	5161.59	10	1.59429	10.0011	42.5756	42.5756	0	11.8265	11	0.0146372	0.000000000000000E+000	6.09462e+07	0.000000000000000E+000	0.000000000000000E+000	11.8265	11.8265	0.0000000E+000	0.000000000000000E+000	0.0159447
1	1	0	1	0	0	0	5193.59	10	1.60502	10.001	42.8956	42.8956	0	11.9154	11	0.0147793	0.000000000000000E+000	6.04758e+07	0.000000000000000E+000	0.000000000000000E+000	11.9154	11.9154	0.0000000E+000	0.000000000000000E+000	0.0160518
1	1	0	1	0	0	0	5225.59	10	1.61235	10.002	43.2157	43.2157	0	12.0044	11	0.0149223	0.000000000000000E+000	6.03038e+07	0.000000000000000E+000	0.000000000000000E+000	12.0044	12.0044	0.0000000E+000	0.000000000000000E+000	0.0161267
1	1	0	1	0	0	0	5257.59	10	1.62338	10.001	43.5357	43.5357	0	12.0933	11	0.0150661	0.000000000000000E+000	5.98299e+07	0.000000000000000E+000	0.000000000000000E+000	12.0933	12.0933	0.0000000E+000	0.000000000000000E+000	0.0162354
1	1	0	1	0	0	0	5289.59	10	1.63223	10.0014	43.8558	43.8558	0	12.1822	11	0.0152108	0.000000000000000E+000	5.95455e+07	0.000000000000000E+000	0.000000000000000E+000	12.1822	12.1822	0.0000000E+000	0.000000000000000E+000	0.0163246
1	1	0	1	0	0	0	5321.59	10	1.6398	10.0014	44.1758	44.1758	0	12.2711	11	0.0153562	0.000000000000000E+000	5.93696e+07	0.000000000000000E+000	0.000000000000000E+000	12.2711	12.2711	0.0000000E+000	0.000000000000000E+000	0.0164002
1	1	0	1	0	0	0	5353.59	10	1.64962	10.0018	44.4958	44.4958	0	12.36	11	0.0155025	0.000000000000000E+000	5.90204e+07	0.000000000000000E+000	0.000000000000000E+000	12.36	12.36	0.0000000E+000	0.000000000000000E+000	0.0164992
1	1	0	1	0	0	0	5385.59	10	1.65828	10.0017	44.8159	44.8159	0	12.4489	11	0.0156496	0.000000000000000E+000	5.877e+07	0.000000000000000E+000	0.000000000000000E+000	12.4489	12.4489	0.0000000E+000	0.000000000000000E+000	0.0165857
1	1	0	1	0	0	0	5417.59	10	1.66497	10.0017	45.1359	45.1359	0	12.5378	11	0.0157973	0.000000000000000E+000	5.86752e+07	0.000000000000000E+000	0.000000000000000E+000	12.5378	12.5378	0.0000000E+000	0.000000000000000E+000	0.0166526
1	1	0	1	0	0	0	5449.59	10	1.67203	10.0005	45.456	45.456	0	12.6267	11	0.0159457	0.000000000000000E+000	5.85537e+07	0.000000000000000E+000	0.000000000000000E+000	12.6267	12.6267	0.0000000E+000	0.000000000000000E+000	0.0167212
1	1	0	1	0	0	0	5481.59	10	1.6794	10.001	45.776	45.776	0	12.7156	11	0.0160947	0.000000000000000E+000	5.84111e+07	0.000000000000000E+000	0.000000000000000E+000	12.7156	12.7156	0.0000000E+000	0.000000000000000E+000	0.0167958
1	1	0	1	0	0	0	5513.59	10	1.68668	10.0014	46.0961	46.0961	0	12.8045	11	0.0162443	0.000000000000000E+000	5.82781e+07	0.000000000000000E+000	0.000000000000000E+000	12.8045	12.8045	0.0000000E+000	0.000000000000000E+000	0.0168693
1	1	0	1	0	0	0	5545.59	10	1.69182	10.0009	46.4161	46.4161	0	12.8934	11	0.0163944	0.000000000000000E+000	5.83044e+07	0.000000000000000E+000	0.000000000000000E+000	12.8934	12.8934	0.0000000E+000	0.000000000000000E+000	0.0169197
1	1	0	1	0	0	0	5577.59	10	1.69693	10.0014	46.7362	46.7362	0	12.9823	11	0.016545	0.000000000000000E+000	5.83321e+07	0.000000000000000E+000	0.000000000000000E+000	12.9823	12.9823	0.0000000E+000	0.000000000000000E+000	0.0169717
1	1	0	1	0	0	0	5609.59	10	1.70319	10.0005	47.0562	47.0562	0	13.0712	11	0.0166961	0.000000000000000E+000	5.82759e+07	0.000000000000000E+000	0.000000000000000E+000	13.0712	13.0712	0.0000000E+000	0.000000000000000E+000	0.0170328
1	1	0	1	0	0	0	5641.59	10	1.70707	10.0016	47.3763	47.3763	0	13.1601	11	0.0168478	0.000000000000000E+000	5.83919e+07	0.000000000000000E+000	0.000000000000000E+000	13.1601	13.1601	0.0000000E+000	0.000000000000000E+000	0.0170734
1	1	0	1	0	0	0	5673.59	10	1.71337	10.0014	47.6963	47.6963	0	13.249	11	0.0169998	0.000000000000000E+000	5.83336e+07	0.000000000000000E+000	0.000000000000000E+000	13.249	13.249	0.0000000E+000	0.000000000000000E+000	0.0171361
1	1	0	1	0	0	0	5705.59	10	1.71706	10.0014	48.0164	48.0164	0	13.3379	11	0.0171521	0.000000000000000E+000	5.84609e+07	0.000000000000000E+000	0.000000000000000E+000	13.3379	13.3379	0.0000000E+000	0.000000000000000E+000	0.0171729
1	1	0	1	0	0	0	5737.59	10	1.725	10.0019	48.3364	48.3364	0	13.4268	11	0.017305	0.000000000000000E+000	5.82869e+07	0.000000000000000E+000	0.000000000000000E+000	13.4268	13.4268	0.0000000E+000	0.000000000000000E+000	0.0172533
1	1	0	1	0	0	0	5769.59	10	1.72579	10.0009	48.6564	48.6564	0	13.5157	11	0.0174583	0.000000000000000E+000	5.8617e+07	0.000000000000000E+000	0.000000000000000E+000	13.5157	13.5157	0.0000000E+000	0.000000000000000E+000	0.0172595
1	1	0	1	0	0	0	5801.59	10	1.729	10.0008	48.9765	48.9765	0	13.6046	11	0.017612	0.000000000000000E+000	5.87757e+07	0.000000000000000E+000	0.000000000000000E+000	13.6046	13.6046	0.0000000E+000	0.000000000000000E+000	0.0172913
1	1	0	1	0	0	0	5833.59	10	1.73603	10.001	49.2965	49.2965	0	13.6935	11	0.0177661	0.000000000000000E+000	5.86643e+07	0.000000000000000E+000	0.000000000000000E+000	13.6935	13.6935	0.0000000E+000	0.000000000000000E+000	0.0173622
1	1	0	1	0	0	0	5865.59	10	1.74099	10.0012	49.6166	49.6166	0	13.7824	11	0.0179207	0.000000000000000E+000	5.86992e+07	0.000000000000000E+000	0.000000000000000E+000	13.7824	13.7824	0.0000000E+000	0.000000000000000E+000	0.017412
1	1	0	1	0	0	0	5897.59	10	1.74603	10.0008	49.9366	49.9366	0	13.8713	11	0.0180756	0.000000000000000E+000	5.87276e+07	0.000000000000000E+000	0.000000000000000E+000	13.8713	13.8713	0.0000000E+000	0.000000000000000E+000	0.0174617
1	1	0	1	0	0	0	5929.59	10	1.75285	10.0016	50.2567	50.2567	0	13.9602	11	0.0182311	0.000000000000000E+000	5.86338e+07	0.000000000000000E+000	0.000000000000000E+000	13.9602	13.9602	0.0000000E+000	0.000000000000000E+000	0.0175312
1	1	0	1	0	0	0	5961.59	10	1.76186	10.0007	50.5767	50.5767	0	14.0491	11	0.0183872	0.000000000000000E+000	5.83928e+07	0.000000000000000E+000	0.000000000000000E+000	14.0491	14.0491	0.0000000E+000	0.000000000000000E+000	0.0176199
1	1	0	1	0	0	0	5993.59	10	1.76771	10.0012	50.8968	50.8968	0	14.138	11	0.0185439	0.000000000000000E+000	5.83686e+07	0.000000000000000E+000	0.000000000000000E+000	14.138	14.138	0.0000000E+000	0.000000000000000E+000	0.0176793
1	1	0	1	0	0	0	6025.59	10	1.7738	10.0008	51.2168	51.2168	0	14.2269	11	0.0187013	0.000000000000000E+000	5.8328e+07	0.000000000000000E+000	0.000000000000000E+000	14.2269	14.2269	0.0000000E+000	0.000000000000000E+000	0.0177394
1	1	0	1	0	0	0	6057.59	10	1.78251	10.0015	51.5369	51.5369	0	14.3158	11	0.0188594	0.000000000000000E+000	5.81161e+07	0.000000000000000E+000	0.000000000000000E+000	14.3158	14.3158	0.0000000E+000	0.000000000000000E+000	0.0178278
1	1	0	1	0	0	0	6089.59	10	1.7918	10.002	51.8569	51.8569	0	14.4047	11	0.0190182	0.000000000000000E+000	5.78705e+07	0.000000000000000E+000	0.000000000000000E+000	14.4047	14.4047	0.0000000E+000	0.000000000000000E+000	0.0179216
1	1	0	1	0	0	0	6121.59	10	1.79778	10.0016	52.177	52.177	0	14.4936	11	0.0191776	0.000000000000000E+000	5.78416e+07	0.000000000000000E+000	0.000000000000000E+000	14.4936	14.4936	0.0000000E+000	0.000000000000000E+000	0.0179808
1	1	0	1	0	0	0	6153.59	10	1.80625	10.0012	52.497	52.497	0	14.5825	11	0.0193379	0.000000000000000E+000	5.7655e+07	0.000000000000000E+000	0.000000000000000E+000	14.5825	14.5825	0.0000000E+000	0.000000000000000E+000	0.0180647
1	1	0	1	0	0	0	6185.59	10	1.81373	10.0017	52.817	52.817	0	14.6714	11	0.0194989	0.000000000000000E+000	5.7534e+07	0.000000000000000E+000	0.000000000000000E+000	14.6714	14.6714	0.0000000E+000	0.000000000000000E+000	0.0181405
1	1	0	1	0	0	0	6217.59	10	1.82205	10.0016	53.1371	53.1371	0	14.7603	11	0.0196605	0.000000000000000E+000	5.73627e+07	0.000000000000000E+000	0.000000000000000E+000	14.7603	14.7603	0.0000000E+000	0.000000000000000E+000	0.0182235
1	1	0	1	0	0	0	6249.59	10	1.83135	10.0017	53.4571	53.4571	0	14.8492	11	0.0198228	0.000000000000000E+000	5.71346e+07	0.000000000000000E+000	0.000000000000000E+000	14.8492	14.8492	0.0000000E+000	0.000000000000000E+000	0.0183166
1	1	0	1	0	0	0	6281.59	10	1.83955	10.001	53.7772	53.7772	0	14.9381	11	0.0199861	0.000000000000000E+000	5.69776e+07	0.000000000000000E+000	0.000000000000000E+000	14.9381	14.9381	0.0000000E+000	0.000000000000000E+000	0.0183974
1	1	0	1	0	0	0	6313.59	10	1.84585	10.0015	54.0972	54.0972	0	15.027	11	0.0201499	0.000000000000000E+000	5.69364e+07	0.000000000000000E+000	0.000000000000000E+000	15.027	15.027	0.0000000E+000	0.000000000000000E+000	0.0184613
1	1	0	1	0	0	0	6345.59	10	1.85207	10.0016	54.4173	54.4173	0	15.1159	11	0.0203143	0.000000000000000E+000	5.69008e+07	0.000000000000000E+000	0.000000000000000E+000	15.1159	15.1159	0.0000000E+000	0.000000000000000E+000	0.0185236
1	1	0	1	0	0	0	6377.59	10	1.85892	10.0017	54.7373	54.7373	0	15.2048	11	0.0204793	0.000000000000000E+000	5.68286e+07	0.000000000000000E+000	0.000000000000000E+000	15.2048	15.2048	0.0000000E+000	0.000000000000000E+000	0.0185923
1	1	0	1	0	0	0	6409.59	10	1.86166	10.0014	55.0574	55.0574	0	15.2937	11	0.0206447	0.000000000000000E+000	5.69985e+07	0.000000000000000E+000	0.000000000000000E+000	15.2937	15.2937	0.0000000E+000	0.000000000000000E+000	0.0186192
1	1	0	1	0	0	0	6441.59	10	1.87418	10.0021	55.3774	55.3774	0	15.3826	11	0.0208108	0.000000000000000E+000	5.65963e+07	0.000000000000000E+000	0.000000000000000E+000	15.3826	15.3826	0.0000000E+000	0.000000000000000E+000	0.0187457
1	1	0	1	0	0	0	6473.59	10	1.87361	10.0014	55.6975	55.6975	0	15.4715	11	0.0209774	0.000000000000000E+000	5.69569e+07	0.000000000000000E+000	0.000000000000000E+000	15.4715	15.4715	0.0000000E+000	0.000000000000000E+000	0.0187387
1	1	0	1	0	0	0	6505.59	10	1.88291	10.0017	56.0175	56.0175	0	15.5604	11	0.0211444	0.000000000000000E+000	5.67441e+07	0.000000000000000E+000	0.000000000000000E+000	15.5604	15.5604	0.0000000E+000	0.000000000000000E+000	0.0188324
1	1	0	1	0	0	0	6537.59	10	1.8883	10.0017	56.3376	56.3376	0	15.6493	11	0.021312	0.000000000000000E+000	5.67583e+07	0.000000000000000E+000	0.000000000000000E+000	15.6493	15.6493	0.0000000E+000	0.000000000000000E+000	0.0188863
1	1	0	1	0	0	0	6569.59	10	1.89345	10.0013	56.6576	56.6576	0	15.7382	11	0.0214801	0.000000000000000E+000	5.67866e+07	0.000000000000000E+000	0.000000000000000E+000	15.7382	15.7382	0.0000000E+000	0.000000000000000E+000	0.0189369
1	1	0	1	0	0	0	6601.59	10	1.89955	10.0016	56.9776	56.9776	0	15.8271	11	0.0216489	0.000000000000000E+000	5.67601e+07	0.000000000000000E+000	0.000000000000000E+000	15.8271	15.8271	0.0000000E+000	0.000000000000000E+000	0.0189985
1	1	0	1	0	0	0	6633.59	10	1.91417	10.0012	57.2977	57.2977	0	15.916	11	0.0218185	0.000000000000000E+000	5.62594e+07	0.000000000000000E+000	0.000000000000000E+000	15.916	15.916	0.0000000E+000	0.000000000000000E+000	0.019144
1	1	0	1	0	0	0	6665.59	10	1.92304	10.0013	57.6177	57.6177	0	16.0049	11	0.0219891	0.000000000000000E+000	5.60852e+07	0.000000000000000E+000	0.000000000000000E+000	16.0049	16.0049	0.0000000E+000	0.000000000000000E+000	0.0192329
1	1	0	1	0	0	0	6697.59	10	1.93245	10.0012	57.9378	57.9378	0	16.0938	11	0.0221605	0.000000000000000E+000	5.58852e+07	0.000000000000000E+000	0.000000000000000E+000	16.0938	16.0938	0.0000000E+000	0.000000000000000E+000	0.0193269
1	1	0	1	0	0	0	6729.59	10	1.93719	10.0014	58.2578	58.2578	0	16.1827	11	0.0223323	0.000000000000000E+000	5.5938e+07	0.000000000000000E+000	0.000000000000000E+000	16.1827	16.1827	0.0000000E+000	0.000000000000000E+000	0.0193747
1	1	0	1	0	0	0	6761.59	10	1.9493	10.0014	58.5779	58.5779	0	16.2716	11	0.022505	0.000000000000000E+000	5.5599e+07	0.000000000000000E+000	0.000000000000000E+000	16.2716	16.2716	0.0000000E+000	0.000000000000000E+000	0.0194956
1	1	0	1	0	0	0	6793.59	10	1.96023	10.0007	58.8979	58.8979	0	16.3605	11	0.0226789	0.000000000000000E+000	5.53285e+07	0.000000000000000E+000	0.000000000000000E+000	16.3605	16.3605	0.0000000E+000	0.000000000000000E+000	0.0196037
1	1	0	1	0	0	0	6825.59	10	1.97693	10.0015	59.218	59.218	0	16.4494	11	0.0228541	0.000000000000000E+000	5.47699e+07	0.000000000000000E+000	0.000000000000000E+000	16.4494	16.4494	0.0000000E+000	0.000000000000000E+000	0.0197723
1	1	0	1	0	0	0	6857.59	10	1.99462	10.0017	59.538	59.538	0	16.5383	11	0.0230305	0.000000000000000E+000	5.41796e+07	0.000000000000000E+000	0.000000000000000E+000	16.5383	16.5383	0.0000000E+000	0.000000000000000E+000	0.0199497
1	1	0	1	0	0	0	6889.59	10	2.01954	10.0015	59.8581	59.8581	0	16.6272	11	0.0232088	0.000000000000000E+000	5.32628e+07	0.000000000000000E+000	0.000000000000000E+000	16.6272	16.6272	0.0000000E+000	0.000000000000000E+000	0.0201984
1	1	0	1	0	0	0	6921.59	10	2.04961	10.0008	60.1781	60.1781	0	16.7161	11	0.0233897	0.000000000000000E+000	5.21523e+07	0.000000000000000E+000	0.000000000000000E+000	16.7161	16.7161	0.0000000E+000	0.000000000000000E+000	0.0204977
1	1	0	1	0	0	0	6953.59	10	2.0797	10.001	60.4982	60.4982	0	16.805	11	0.0235733	0.000000000000000E+000	5.10972e+07	0.000000000000000E+000	0.000000000000000E+000	16.805	16.805	0.0000000E+000	0.000000000000000E+000	0.020799
1	1	0	1	0	0	0	6985.59	10	2.10962	10.0016	60.8182	60.8182	0	16.8939	11	0.0237596	0.000000000000000E+000	5.01012e+07	0.000000000000000E+000	0.000000000000000E+000	16.8939	16.8939	0.0000000E+000	0.000000000000000E+000	0.0210997
1	1	0	1	0	0	0	7017.59	10	2.14518	10.002	61.1382	61.1382	0	16.9828	11	0.0239487	0.000000000000000E+000	4.89315e+07	0.000000000000000E+000	0.000000000000000E+000	16.9828	16.9828	0.0000000E+000	0.000000000000000E+000	0.0214561
1	1	0	1	0	0	0	7049.59	10	2.1822	10.0016	61.4583	61.4583	0	17.0717	11	0.024141	0.000000000000000E+000	4.77722e+07	0.000000000000000E+000	0.000000000000000E+000	17.0717	17.0717	0.0000000E+000	0.000000000000000E+000	0.0218256
1	1	0	1	0	0	0	7081.59	10	2.21482	10.0021	61.7783	61.7783	0	17.1606	11	0.0243365	0.000000000000000E+000	4.68337e+07	0.000000000000000E+000	0.000000000000000E+000	17.1606	17.1606	0.0000000E+000	0.000000000000000E+000	0.0221528
1	1	0	1	0	0	0	7113.59	10	2.25536	10.001	62.0984	62.0984	0	17.2496	11	0.0245353	0.000000000000000E+000	4.56725e+07	0.000000000000000E+000	0.000000000000000E+000	17.2496	17.2496	0.0000000E+000	0.000000000000000E+000	0.022556
1	1	0	1	0	0	0	7145.59	10	2.28875	10.0015	62.4184	62.4184	0	17.3385	11	0.0247374	0.000000000000000E+000	4.48077e+07	0.000000000000000E+000	0.000000000000000E+000	17.3385	17.3385	0.0000000E+000	0.000000000000000E+000	0.0228909
1	1	0	1	0	0	0	7177.59	10	2.3208	10.0014	62.7385	62.7385	0	17.4274	11	0.0249425	0.000000000000000E+000	4.40244e+07	0.000000000000000E+000	0.000000000000000E+000	17.4274	17.4274	0.0000000E+000	0.000000000000000E+000	0.0232113
1	1	0	1	0	0	0	7209.59	10	2.36252	10.0022	63.0585	63.0585	0	17.5163	11	0.025151	0.000000000000000E+000	4.29906e+07	0.000000000000000E+000	0.000000000000000E+000	17.5163	17.5163	0.0000000E+000	0.000000000000000E+000	0.0236304
1	1	0	1	0	0	0	7241.59	10	2.403	10.0022	63.3786	63.3786	0	17.6052	11	0.0253629	0.000000000000000E+000	4.20481e+07	0.000000000000000E+000	0.000000000000000E+000	17.6052	17.6052	0.0000000E+000	0.000000000000000E+000	0.0240353
1	1	0	1	0	0	0	7273.59	10	2.44237	10.0012	63.6986	63.6986	0	17.6941	11	0.0255786	0.000000000000000E+000	4.11847e+07	0.000000000000000E+000	0.000000000000000E+000	17.6941	17.6941	0.0000000E+000	0.000000000000000E+000	0.0244268
1	1	0	1	0	0	0	7305.59	10	2.48921	10.0016	64.0187	64.0187	0	17.783	11	0.0257979	0.000000000000000E+000	4.01751e+07	0.000000000000000E+000	0.000000000000000E+000	17.783	17.783	0.0000000E+000	0.000000000000000E+000	0.0248959
1	1	0	1	0	0	0	7337.59	10	2.54135	10.0017	64.3387	64.3387	0	17.8719	11	0.0260217	0.000000000000000E+000	3.90966e+07	0.000000000000000E+000	0.000000000000000E+000	17.8719	17.8719	0.0000000E+000	0.000000000000000E+000	0.0254178
1	1	0	1	0	0	0	7369.59	10	2.5867	10.0014	64.6588	64.6588	0	17.9608	11	0.0262496	0.000000000000000E+000	3.82375e+07	0.000000000000000E+000	0.000000000000000E+000	17.9608	17.9608	0.0000000E+000	0.000000000000000E+000	0.0258705
1	1	0	1	0	0	0	7401.59	10	2.63236	10.0021	64.9788	64.9788	0	18.0497	11	0.0264816	0.000000000000000E+000	3.74163e+07	0.000000000000000E+000	0.000000000000000E+000	18.0497	18.0497	0.0000000E+000	0.000000000000000E+000	0.0263291
1	1	0	1	0	0	0	7433.59	10	2.68364	10.0015	65.2989	65.2989	0	18.1386	11	0.026718	0.000000000000000E+000	3.65222e+07	0.000000000000000E+000	0.000000000000000E+000	18.1386	18.1386	0.0000000E+000	0.000000000000000E+000	0.0268404
1	1	0	1	0	0	0	7465.59	10	2.73379	10.0017	65.6189	65.6189	0	18.2275	11	0.0269587	0.000000000000000E+000	3.56999e+07	0.000000000000000E+000	0.000000000000000E+000	18.2275	18.2275	0.0000000E+000	0.000000000000000E+000	0.0273427
1	1	0	1	0	0	0	7497.59	10	2.78197	10.001	65.9389	65.9389	0	18.3164	11	0.027204	0.000000000000000E+000	3.49576e+07	0.000000000000000E+000	0.000000000000000E+000	18.3164	18.3164	0.0000000E+000	0.000000000000000E+000	0.0278225
1	1	0	1	0	0	0	7529.59	10	2.83327	10.0009	66.259	66.259	0	18.4053	11	0.0274537	0.000000000000000E+000	3.41972e+07	0.000000000000000E+000	0.000000000000000E+000	18.4053	18.4053	0.0000000E+000	0.000000000000000E+000	0.0283353
1	1	0	1	0	0	0	7561.59	10	2.88749	10.0014	66.579	66.579	0	18.4942	11	0.0277082	0.000000000000000E+000	3.34271e+07	0.000000000000000E+000	0.000000000000000E+000	18.4942	18.4942	0.0000000E+000	0.000000000000000E+000	0.0288788
1	1	0	1	0	0	0	7593.59	10	2.94586	10.0024	66.8991	66.8991	0	18.5831	11	0.0279675	0.000000000000000E+000	3.26314e+07	0.000000000000000E+000	0.000000000000000E+000	18.5831	18.5831	0.0000000E+000	0.000000000000000E+000	0.0294658
1	1	0	1	0	0	0	7625.59	10	2.99737	10.0007	67.2191	67.2191	0	18.672	11	0.0282318	0.000000000000000E+000	3.19839e+07	0.000000000000000E+000	0.000000000000000E+000	18.672	18.672	0.0000000E+000	0.000000000000000E+000	0.0299757
1	1	0	1	0	0	0	7657.59	10	3.05248	10.0013	67.5392	67.5392	0	18.7609	11	0.0285009	0.000000000000000E+000	3.13151e+07	0.000000000000000E+000	0.000000000000000E+000	18.7609	18.7609	0.0000000E+000	0.000000000000000E+000	0.0305288
1	1	0	1	0	0	0	7689.59	10	3.10725	10.0019	67.8592	67.8592	0	18.8498	11	0.0287749	0.000000000000000E+000	3.06843e+07	0.000000000000000E+000	0.000000000000000E+000	18.8498	18.8498	0.0000000E+000	0.000000000000000E+000	0.0310785
1	1	0	1	0	0	0	7721.59	10	3.16309	10.0015	68.1793	68.1793	0	18.9387	11	0.0290538	0.000000000000000E+000	3.00698e+07	0.000000000000000E+000	0.000000000000000E+000	18.9387	18.9387	0.0000000E+000	0.000000000000000E+000	0.0316356
1	1	0	1	0	0	0	7753.59	10	3.22138	10.0012	68.4993	68.4993	0	19.0276	11	0.0293377	0.000000000000000E+000	2.94537e+07	0.000000000000000E+000	0.000000000000000E+000	19.0276	19.0276	0.0000000E+000	0.000000000000000E+000	0.0322176
1	1	0	1	0	0	0	7785.59	10	3.27916	10.0019	68.8194	68.8194	0	19.1165	11	0.0296268	0.000000000000000E+000	2.8874e+07	0.000000000000000E+000	0.000000000000000E+000	19.1165	19.1165	0.0000000E+000	0.000000000000000E+000	0.032798
1	1	0	1	0	0	0	7817.59	10	3.33874	10.0019	69.1394	69.1394	0	19.2054	11	0.0299211	0.000000000000000E+000	2.83008e+07	0.000000000000000E+000	0.000000000000000E+000	19.2054	19.2054	0.0000000E+000	0.000000000000000E+000	0.0333937
1	1	0	1	0	0	0	7849.59	10	3.40192	10.0011	69.4595	69.4595	0	19.2943	11	0.0302209	0.000000000000000E+000	2.77151e+07	0.000000000000000E+000	0.000000000000000E+000	19.2943	19.2943	0.0000000E+000	0.000000000000000E+000	0.0340229
1	1	0	1	0	0	0	7881.59	10	3.46737	10.0016	69.7795	69.7795	0	19.3832	11	0.0305262	0.000000000000000E+000	2.71341e+07	0.000000000000000E+000	0.000000000000000E+000	19.3832	19.3832	0.0000000E+000	0.000000000000000E+000	0.0346791
1	1	0	1	0	0	0	7913.59	10	3.53768	10.0018	70.0996	70.0996	0	19.4721	11	0.0308376	0.000000000000000E+000	2.65332e+07	0.000000000000000E+000	0.000000000000000E+000	19.4721	19.4721	0.0000000E+000	0.000000000000000E+000	0.0353832
1	1	0	1	0	0	0	7945.59	10	3.60379	10.0011	70.4196	70.4196	0	19.561	11	0.0311552	0.000000000000000E+000	2.60036e+07	0.000000000000000E+000	0.000000000000000E+000	19.561	19.561	0.0000000E+000	0.000000000000000E+000	0.0360419
1	1	0	1	0	0	0	7965.68	10	3.649	10.0017	70.6205	70.6205	0	19.6168	11	0.0313576	0.000000000000000E+000	2.56496e+07	0.000000000000000E+000	0.000000000000000E+000	19.6168	19.6168	0.0000000E+000	0.000000000000000E+000	0.0364962