File: Data_1mg/2022_01_30 CoNx 1mg ref309_set1_01_CV_C02.mpt
EC-Lab ASCII FILE
Nb header lines : 57

Cyclic Voltammetry

Run on channel : 2 (SN 12477)
User :
CE vs. WE compliance from -10 V to 10 V
Electrode connection : standard
Potential control : Ewe
Ewe ctrl range : min = -2.50 V, max = 2.50 V
Safety Limits :
	Do not start on E overload
Acquisition started on : 01/30/2023 10:32:13.088
Loaded Setting File :  C:\Users\grupogalan\Documents\EC-Lab\Data\Scott\_cyclic_pause_tafel.mps
Saved on :
	File : 2022_01_30 CoNx 1mg ref309_set1_01_CV_C02.mpr
	Directory : C:\Users\grupogalan\Documents\EC-Lab\Data\Scott\
	Host : 169.254.104.159
Device : VSP (SN 1176)
Address : USB
EC-Lab for windows v11.46 (software)
Internet server v11.40 (firmware)
Command interpretor v11.40 (firmware)
Electrode material :
Initial state :
Electrolyte :
Comments :
Electrode surface area : 0.000 cm²
Characteristic mass : 0.001 g
Equivalent Weight : 0.000 g/eq.
Density : 0.000 g/cm3
Volume (V) : 0.001 cm³
Cycle Definition : Charge/Discharge alternance
Ei (V)              0.000
vs.                 Eoc
dE/dt               10.000
dE/dt unit          mV/s
E1 (V)              1.000
vs.                 Ref
Step percent        50
N                   10
E range min (V)     -2.500
E range max (V)     2.500
I Range             Auto
I Range min         Unset
I Range max         Unset
I Range init        Unset
Bandwidth           5
E2 (V)              0.000
vs.                 Ref
nc cycles           2
Reverse Scan        1
Ef (V)              0.000
vs.                 Eoc

mode	ox/red	error	control changes	counter inc.	time/s	control/V	Ewe/V	<I>/mA	cycle number	(Q-Qo)/C	I Range	P/W
2	1	0	1	0	0.000000000000000E+000	-0.204379	-0.206575	0.00126216	1	0.0000000E+000	13	-2.60731e-07
2	0	0	1	0	0.9854	-0.194526	-0.193942	-0.000183531	1	9.18868e-07	12	3.55945e-08
2	1	0	0	0	1.9856	-0.184524	-0.184206	0.000592584	1	1.76191e-06	12	-1.09158e-07
2	0	0	1	0	2.9858	-0.174522	-0.176475	-5.82306e-05	1	2.65373e-06	12	1.02762e-08
2	1	0	0	0	3.986	-0.164519	-0.163812	0.00106946	1	3.65381e-06	12	-1.7519e-07
2	0	0	1	0	4.9862	-0.154517	-0.154457	0.000488002	1	4.75298e-06	12	-7.53753e-08
2	1	0	1	0	5.9865	-0.144515	-0.144292	0.000832494	1	5.94349e-06	12	-1.20123e-07
2	1	0	0	0	6.9868	-0.134512	-0.135159	0.000142362	1	7.25197e-06	12	-1.92414e-08
2	0	0	1	0	7.987	-0.12451	-0.124899	0.00186532	1	8.70188e-06	12	-2.32976e-07
2	1	0	0	0	8.9872	-0.114508	-0.113866	0.000897905	1	1.03491e-05	12	-1.02241e-07
2	0	0	1	0	9.9874	-0.104505	-0.104947	0.00178636	1	1.22477e-05	12	-1.87473e-07
2	1	0	0	0	10.9876	-0.0945029	-0.0946338	0.00145802	1	1.44159e-05	12	-1.37978e-07
2	1	0	0	0	11.988	-0.0845006	-0.0846441	0.00189666	1	1.67711e-05	12	-1.60541e-07
2	0	0	1	0	12.9882	-0.0744982	-0.0744891	0.001736	1	1.92819e-05	12	-1.29313e-07
2	1	0	0	0	13.9884	-0.0644959	-0.065593	0.00220675	1	2.19427e-05	12	-1.44747e-07
2	0	0	1	0	14.9886	-0.0544935	-0.0545215	0.0024509	1	2.46684e-05	12	-1.33627e-07
2	1	0	0	0	15.9888	-0.0444912	-0.0448808	0.00199713	1	2.74901e-05	12	-8.96329e-08
2	1	0	1	0	16.989	-0.0344888	-0.0343906	0.00261315	1	3.04114e-05	12	-8.98676e-08
2	0	0	1	0	17.9894	-0.0244865	-0.02573	0.00191013	1	3.33514e-05	12	-4.91477e-08
2	0	0	0	0	18.9896	-0.0144841	-0.0153808	0.00303348	1	3.63978e-05	12	-4.66573e-08
2	0	0	1	0	19.9898	-0.00448177	-0.00447581	0.00234791	1	3.95029e-05	12	-1.05088e-08
2	0	0	0	0	20.99	0.00552058	0.00450191	0.00279426	1	4.26974e-05	12	1.25795e-08
2	1	0	1	0	21.9902	0.0155229	0.0161908	0.00292652	1	4.60205e-05	12	4.73826e-08
2	0	0	1	0	22.9905	0.0255255	0.0245639	0.00209477	1	4.9387e-05	12	5.14557e-08
2	1	0	0	0	23.9908	0.0355276	0.0351888	0.00318949	1	5.28736e-05	12	1.12235e-07
2	0	0	1	0	24.991	0.04553	0.0454511	0.0031255	1	5.64766e-05	12	1.42057e-07
2	1	0	0	0	25.9912	0.0555323	0.05494	0.0032338	1	6.02538e-05	12	1.77665e-07
2	0	0	1	0	26.9914	0.0655347	0.0639283	0.00393277	1	6.42801e-05	12	2.51416e-07
2	0	0	0	0	27.9916	0.075537	0.0752587	0.00323422	1	6.85394e-05	12	2.43403e-07
2	0	0	1	0	28.9919	0.0855384	0.0856261	0.00514316	1	7.31472e-05	12	4.40389e-07
2	1	0	1	0	29.9922	0.0955417	0.0960907	0.00479303	1	7.82422e-05	12	4.60565e-07
2	1	0	0	0	30.9924	0.105544	0.104424	0.00560476	1	8.39783e-05	12	5.85269e-07
2	0	0	1	0	31.9926	0.115546	0.11613	0.0068317	1	9.0669e-05	12	7.93368e-07
2	1	0	0	0	32.9928	0.125549	0.125058	0.0076139	1	9.86113e-05	12	9.52181e-07
2	0	0	1	0	33.993	0.135551	0.135816	0.0104359	1	0.000108175	12	1.41736e-06
2	1	0	1	0	34.9934	0.145553	0.142428	0.0116143	1	0.000119779	12	1.6542e-06
2	1	0	0	0	35.9936	0.155556	0.155068	0.0145501	1	0.000133781	12	2.25627e-06
2	1	0	1	0	36.9938	0.165558	0.165587	0.0184605	1	0.000150709	12	3.05682e-06
2	1	0	0	0	37.994	0.17556	0.174414	0.0213627	1	0.000170902	12	3.72596e-06
2	1	0	1	0	38.9942	0.185563	0.185397	0.0255635	1	0.000194927	12	4.7394e-06
2	1	0	1	0	39.9945	0.195566	0.194958	0.0307615	1	0.00022367	12	5.99721e-06
2	1	0	0	0	40.9948	0.205568	0.204989	0.0377378	1	0.000258286	12	7.73584e-06
2	1	0	1	0	41.995	0.21557	0.214576	0.0462921	1	0.00030033	12	9.93316e-06
2	1	0	0	0	42.9952	0.225572	0.22544	0.0559368	1	0.000351868	12	1.26104e-05
2	1	0	1	0	43.9954	0.235575	0.235288	0.0692127	1	0.000415199	12	1.62849e-05
2	1	0	0	0	44.9956	0.245577	0.245086	0.0855443	1	0.00049316	12	2.09657e-05
2	1	0	1	0	45.9959	0.255579	0.255449	0.104651	1	0.000588925	12	2.67329e-05
2	1	0	1	0	46.9962	0.265582	0.265078	0.129168	1	0.00070613	12	3.42397e-05
2	1	0	0	0	47.9964	0.275584	0.276413	0.15576	1	0.000849052	12	4.30539e-05
2	1	0	1	0	48.9966	0.285586	0.286259	0.189351	1	0.00102228	12	5.42035e-05
2	1	0	0	0	49.9968	0.295589	0.294383	0.226091	1	0.00123024	12	6.65572e-05
2	1	0	1	0	50.997	0.305591	0.306122	0.266833	1	0.00147692	12	8.16835e-05
2	1	0	1	0	51.9974	0.315593	0.315452	0.314314	1	0.0017679	12	9.9151e-05
2	1	0	0	0	52.9976	0.325596	0.325506	0.367103	1	0.00210923	12	0.000119494
2	1	0	1	0	53.9978	0.335598	0.334774	0.427705	1	0.00250718	12	0.000143185
2	1	0	0	0	54.998	0.3456	0.347137	0.492991	1	0.00296815	12	0.000171135
2	1	0	1	0	55.9982	0.355603	0.356254	0.567348	1	0.00349918	12	0.00020212
2	1	0	0	0	56.9984	0.365605	0.365032	0.64849	1	0.00410804	12	0.000236719
2	1	0	0	0	57.9988	0.375607	0.375418	0.73915	1	0.00480274	12	0.00027749
2	1	0	1	0	58.999	0.38561	0.386194	0.836643	1	0.00559121	12	0.000323106
2	1	0	0	0	59.9992	0.395612	0.395717	0.94158	1	0.00648139	12	0.000372599
2	1	0	1	0	61.0144	0.405764	0.407306	1.0525	1	0.00749759	12	0.000428689
2	1	0	0	0	62.0296	0.415917	0.414917	1.18226	1	0.00863564	11	0.000490541
2	1	0	1	0	63.0299	0.425918	0.426393	1.31037	1	0.00988315	11	0.000558734
2	1	0	1	0	64.0302	0.435922	0.435148	1.44557	1	0.0112625	11	0.000629037
2	1	0	0	0	65.0304	0.445924	0.44557	1.58438	1	0.0127791	11	0.000705951
2	1	0	1	0	66.0306	0.455926	0.455552	1.72837	1	0.0144374	11	0.000787363
2	1	0	0	0	67.0308	0.465929	0.466204	1.87859	1	0.0162418	11	0.000875805
2	1	0	1	0	68.031	0.475931	0.474714	2.03211	1	0.0181987	11	0.000964668
2	1	0	1	0	69.0314	0.485933	0.485615	2.18768	1	0.020312	11	0.00106237
2	1	0	0	0	70.0316	0.495936	0.495993	2.35001	1	0.0225845	11	0.00116559
2	1	0	1	0	71.0318	0.505938	0.505179	2.51328	1	0.0250191	11	0.00126966
2	1	0	0	0	72.032	0.51594	0.515643	2.67853	1	0.027617	11	0.00138117
2	1	0	1	0	73.0322	0.525943	0.524954	2.84361	1	0.0303808	11	0.00149276
2	1	0	1	0	74.0325	0.535946	0.53672	3.0084	1	0.0333112	11	0.00161467
2	1	0	0	0	75.0328	0.545947	0.544656	3.17731	1	0.0364089	11	0.00173054
2	1	0	1	0	76.033	0.55595	0.556016	3.34365	1	0.0396731	11	0.00185913
2	1	0	0	0	77.0332	0.565952	0.566698	3.51204	1	0.0431035	11	0.00199027
2	1	0	1	0	78.0334	0.575954	0.574468	3.675	1	0.0466995	11	0.00211117
2	1	0	0	0	79.0336	0.585957	0.586707	3.83832	1	0.0504603	11	0.00225197
2	1	0	1	0	80.0339	0.595959	0.594559	4.00069	1	0.0543848	11	0.00237865
2	1	0	1	0	81.0342	0.605961	0.60735	4.16101	1	0.0584707	11	0.00252719
2	1	0	0	0	82.0344	0.615964	0.6156	4.3214	1	0.062716	11	0.00266025
2	1	0	1	0	83.0346	0.625966	0.626483	4.48328	1	0.0671215	11	0.0028087
2	1	0	0	0	84.0348	0.635969	0.636468	4.64625	1	0.0716897	11	0.00295718
2	1	0	1	0	85.035	0.645971	0.646061	4.81472	1	0.0764248	11	0.0031106
2	1	0	1	0	86.0354	0.655973	0.656461	4.99398	1	0.0813338	11	0.00327835
2	1	0	0	0	87.0356	0.665976	0.66469	5.18834	1	0.0864266	11	0.00344864
2	1	0	1	0	88.0358	0.675978	0.676143	5.39687	1	0.0917201	11	0.00364906
2	1	0	0	0	89.036	0.68598	0.685472	5.6255	1	0.0972346	11	0.00385612
2	1	0	1	0	90.0362	0.695983	0.694905	5.88671	1	0.102994	11	0.00409071
2	1	0	0	0	91.0364	0.705985	0.705588	6.171	1	0.109024	11	0.00435418
2	1	0	0	0	92.0368	0.715987	0.715204	6.49515	1	0.115361	11	0.00464536
2	1	0	1	0	93.037	0.72599	0.724926	6.85475	1	0.122036	11	0.00496919
2	1	0	0	0	94.0372	0.735992	0.735883	7.25467	1	0.129093	11	0.00533859
2	1	0	1	0	95.0374	0.745994	0.745926	7.69846	1	0.13657	11	0.00574248
2	1	0	0	0	96.0376	0.755997	0.755175	8.19667	1	0.144521	11	0.00618992
2	1	0	1	0	97.0379	0.765999	0.765554	8.73882	1	0.152992	11	0.00669004
2	1	0	1	0	98.0382	0.776001	0.776246	9.33347	1	0.16203	11	0.00724507
2	1	0	0	0	99.0384	0.786004	0.784921	9.98139	1	0.171688	11	0.0078346
2	1	0	1	0	100.039	0.796006	0.795434	10.6711	1	0.182016	11	0.00848814
2	1	0	0	0	101.069	0.806308	0.804992	11.4422	1	0.193417	10	0.00921086
2	1	0	1	0	102.069	0.816311	0.815276	12.2528	1	0.205264	10	0.00998942
2	1	0	1	0	103.069	0.826313	0.825228	13.1052	1	0.217944	10	0.0108148
2	1	0	0	0	104.07	0.836315	0.836191	13.9859	1	0.23149	10	0.0116949
2	1	0	1	0	105.07	0.846318	0.847024	14.8839	1	0.245928	10	0.012607
2	1	0	0	0	106.07	0.85632	0.855753	15.8598	1	0.261315	10	0.0135721
2	1	0	1	0	107.07	0.866322	0.866649	16.8579	1	0.277677	10	0.0146099
2	1	0	1	0	108.07	0.876326	0.875752	17.9349	1	0.29509	10	0.0157065
2	1	0	0	0	109.071	0.886327	0.885897	19.0064	1	0.313564	10	0.0168377
2	1	0	1	0	110.071	0.89633	0.895156	20.0834	1	0.333119	10	0.0179777
2	1	0	0	0	111.071	0.906332	0.905506	21.181	1	0.353759	10	0.0191796
2	1	0	1	0	112.071	0.916334	0.915849	22.2813	1	0.375497	10	0.0204063
2	1	0	0	0	113.072	0.926337	0.925576	23.3647	1	0.398317	10	0.0216258
2	1	0	1	0	114.072	0.936339	0.936749	24.3988	1	0.422201	10	0.0228555
2	1	0	1	0	115.072	0.946341	0.945468	25.4228	1	0.447134	10	0.0240364
2	1	0	0	0	116.072	0.956344	0.955839	26.4394	1	0.473083	10	0.0252718
2	1	0	1	0	117.073	0.966346	0.966487	27.3244	1	0.499985	10	0.0264087
2	1	0	0	0	118.073	0.976348	0.974906	28.164	1	0.527756	10	0.0274572
2	1	0	1	0	119.073	0.986351	0.985585	28.8605	1	0.55627	10	0.0284445
2	1	0	1	0	120.073	0.996352	0.996854	29.3145	1	0.585385	10	0.0292223
2	1	0	0	0	120.894	0.995453	0.995449	28.3822	1	0.609284	10	0.0282531
2	1	0	1	0	121.894	0.98545	0.985578	26.3128	1	0.636602	10	0.0259334
2	1	0	0	0	122.894	0.975448	0.976246	24.4997	1	0.661974	10	0.0239177
2	1	0	1	0	123.895	0.965446	0.965857	22.9452	1	0.68568	10	0.0221618
2	1	0	0	0	124.895	0.955443	0.95666	21.449	1	0.707862	10	0.0205194
2	1	0	1	0	125.895	0.94544	0.945198	20.0781	1	0.728631	10	0.0189778
2	1	0	1	0	126.895	0.935439	0.935772	18.7947	1	0.748056	10	0.0175875
2	1	0	0	0	127.896	0.925436	0.925393	17.6235	1	0.766266	10	0.0163087
2	1	0	1	0	128.896	0.915434	0.915739	16.4951	1	0.783315	10	0.0151052
2	1	0	0	0	129.896	0.905432	0.906699	15.4512	1	0.799284	10	0.0140096
2	1	0	1	0	130.896	0.895429	0.896159	14.4285	1	0.814222	10	0.0129302
2	1	0	1	0	131.896	0.885427	0.884423	13.4363	1	0.828153	10	0.0118834
2	1	0	0	0	132.897	0.875425	0.874529	12.5145	1	0.841112	10	0.0109443
2	1	0	1	0	133.897	0.865422	0.864589	11.6228	1	0.853164	10	0.010049
2	1	0	0	0	134.897	0.85542	0.854916	10.7506	1	0.864337	10	0.00919087
2	1	0	1	0	135.897	0.845418	0.845485	9.94075	1	0.87468	10	0.00840475
2	1	0	0	0	136.898	0.835415	0.835037	9.18593	1	0.88424	10	0.00767059
2	1	0	1	0	137.898	0.825414	0.825082	8.46013	1	0.893055	10	0.0069803
2	1	0	1	0	138.898	0.81541	0.815223	7.76552	1	0.901157	10	0.00633063
2	1	0	0	0	139.898	0.805408	0.805157	7.12987	1	0.908599	10	0.00574066
2	1	0	1	0	140.899	0.795406	0.794361	6.511	1	0.915419	10	0.00517208
2	1	0	0	0	141.899	0.785403	0.784602	5.95731	1	0.921652	10	0.00467412
2	1	0	1	0	142.899	0.775401	0.774517	5.43268	1	0.927339	10	0.0042077
2	1	0	1	0	143.899	0.765399	0.765572	4.92801	1	0.932509	10	0.00377275
2	1	0	0	0	144.93	0.755096	0.755086	4.43419	1	0.937327	11	0.00334819
2	1	0	1	0	145.93	0.745094	0.745759	3.99961	1	0.94154	11	0.00298274
2	1	0	0	0	146.93	0.735092	0.734446	3.59252	1	0.945332	11	0.00263851
2	1	0	1	0	147.93	0.725089	0.725757	3.21336	1	0.948731	11	0.00233212
2	1	0	1	0	148.93	0.715087	0.714244	2.86262	1	0.951765	11	0.00204461
2	1	0	0	0	149.931	0.705085	0.705754	2.5377	1	0.954461	11	0.00179099
2	1	0	1	0	150.931	0.695082	0.695276	2.23581	1	0.956843	11	0.0015545
2	1	0	0	0	151.931	0.68508	0.684617	1.95623	1	0.958936	11	0.00133927
2	1	0	1	0	152.931	0.675078	0.674619	1.69897	1	0.960761	11	0.00114615
2	1	0	0	0	153.932	0.665075	0.665282	1.46428	1	0.962339	11	0.000974159
2	1	0	0	0	154.932	0.655073	0.65458	1.24698	1	0.963691	11	0.000816251
2	1	0	1	0	155.932	0.645071	0.6443	1.04883	1	0.964835	11	0.00067576
2	1	0	0	0	156.932	0.635068	0.634534	0.865872	1	0.96579	11	0.000549425
2	1	0	1	0	157.933	0.625066	0.624802	0.701537	1	0.966571	11	0.000438322
2	1	0	0	0	158.933	0.615064	0.614786	0.552095	1	0.967194	11	0.00033942
2	1	0	1	0	159.963	0.60476	0.605984	0.4101	1	0.967688	12	0.000248514
2	1	0	1	0	160.963	0.594759	0.595262	0.287008	1	0.968034	12	0.000170845
2	1	0	0	0	161.964	0.584756	0.585336	0.175607	1	0.968263	12	0.000102789
2	1	0	1	0	162.964	0.574754	0.574648	0.0758767	1	0.968386	12	4.36024e-05
2	1	0	0	0	163.964	0.564752	0.564206	-0.0132893	1	0.968415	12	-7.49792e-06
2	0	0	1	0	164.964	0.554749	0.554669	-0.0926486	1	0.96836	12	-5.13893e-05
2	0	0	1	0	165.964	0.544747	0.544475	-0.163192	1	0.96823	12	-8.8854e-05
2	0	0	0	0	166.965	0.534745	0.534765	-0.225584	1	0.968033	12	-0.000120634
2	0	0	1	0	167.965	0.524742	0.524251	-0.279888	1	0.967779	12	-0.000146732
2	0	0	0	0	168.965	0.51474	0.514119	-0.326684	1	0.967474	12	-0.000167954
2	0	0	1	0	169.965	0.504738	0.504134	-0.36668	1	0.967125	12	-0.000184856
2	0	0	0	0	170.966	0.494735	0.494104	-0.400755	1	0.96674	12	-0.000198015
2	0	0	0	0	171.966	0.484733	0.484623	-0.42866	1	0.966324	12	-0.000207738
2	0	0	1	0	172.966	0.474731	0.475071	-0.450602	1	0.965883	12	-0.000214068
2	0	0	0	0	173.966	0.464728	0.465024	-0.467474	1	0.965422	12	-0.000217387
2	0	0	1	0	174.967	0.454726	0.454087	-0.480206	1	0.964947	12	-0.000218055
2	0	0	0	0	175.967	0.444724	0.445449	-0.48859	1	0.964461	12	-0.000217642
2	0	0	1	0	176.967	0.434721	0.434344	-0.493517	1	0.963969	12	-0.000214356
2	0	0	1	0	177.967	0.424719	0.423898	-0.494736	1	0.963474	12	-0.000209718
2	0	0	0	0	178.968	0.414717	0.414029	-0.493346	1	0.962979	12	-0.00020426
2	0	0	1	0	179.968	0.404714	0.404448	-0.489968	1	0.962486	12	-0.000198167
2	0	0	0	0	180.968	0.394712	0.394244	-0.484585	1	0.961998	12	-0.000191045
2	0	0	1	0	181.968	0.38471	0.385215	-0.478184	1	0.961515	12	-0.000184204
2	0	0	1	0	182.968	0.374707	0.374284	-0.470692	1	0.96104	12	-0.000176172
2	0	0	0	0	183.969	0.364705	0.364048	-0.462206	1	0.960573	12	-0.000168266
2	0	0	1	0	184.969	0.354702	0.353274	-0.453444	1	0.960115	12	-0.00016019
2	0	0	0	0	185.969	0.3447	0.344398	-0.444252	1	0.959665	12	-0.000152999
2	0	0	1	0	186.969	0.334698	0.333985	-0.435146	1	0.959225	12	-0.000145332
2	0	0	0	0	187.97	0.324695	0.324405	-0.425994	1	0.958794	12	-0.000138195
2	0	0	1	0	188.97	0.314694	0.314905	-0.416631	1	0.958372	12	-0.000131199
2	0	0	1	0	189.97	0.304691	0.304309	-0.407512	1	0.957959	12	-0.00012401
2	0	0	0	0	190.97	0.294688	0.294856	-0.398426	1	0.957556	12	-0.000117478
2	0	0	1	0	191.971	0.284686	0.283586	-0.389673	1	0.957161	12	-0.000110506
2	0	0	0	0	192.971	0.274684	0.274282	-0.38121	1	0.956776	12	-0.000104559
2	0	0	1	0	193.971	0.264681	0.263397	-0.373256	1	0.956398	12	-9.83147e-05
2	0	0	1	0	194.971	0.254679	0.253872	-0.365415	1	0.956028	12	-9.27688e-05
2	0	0	0	0	195.972	0.244677	0.244536	-0.358177	1	0.955666	12	-8.75871e-05
2	0	0	1	0	196.972	0.234674	0.235084	-0.350724	1	0.955311	12	-8.24496e-05
2	0	0	0	0	197.972	0.224672	0.224773	-0.344332	1	0.954963	12	-7.73966e-05
2	0	0	1	0	198.972	0.21467	0.214358	-0.337849	1	0.954622	12	-7.24206e-05
2	0	0	1	0	199.972	0.204667	0.204326	-0.331714	1	0.954286	12	-6.77777e-05
2	0	0	0	0	200.973	0.194665	0.194367	-0.325738	1	0.953957	12	-6.33128e-05
2	0	0	1	0	201.973	0.184663	0.184155	-0.321178	1	0.953633	12	-5.91464e-05
2	0	0	0	0	202.973	0.17466	0.17507	-0.316024	1	0.953314	12	-5.53264e-05
2	0	0	1	0	203.973	0.164658	0.163468	-0.311703	1	0.953	12	-5.09536e-05
2	0	0	0	0	204.974	0.154656	0.155483	-0.307454	1	0.95269	12	-4.78039e-05
2	0	0	1	0	205.974	0.144654	0.144273	-0.303636	1	0.952384	12	-4.38065e-05
2	0	0	1	0	206.974	0.134651	0.134394	-0.299957	1	0.952082	12	-4.03126e-05
2	0	0	0	0	207.974	0.124649	0.12478	-0.296773	1	0.951783	12	-3.70315e-05
2	0	0	1	0	208.975	0.114646	0.114377	-0.293777	1	0.951487	12	-3.36013e-05
2	0	0	0	0	209.975	0.104644	0.10511	-0.290983	1	0.951195	12	-3.05852e-05
2	0	0	1	0	210.975	0.0946415	0.0945474	-0.288263	1	0.950905	12	-2.72545e-05
2	0	0	1	0	211.975	0.0846391	0.0853692	-0.28634	1	0.950617	12	-2.44446e-05
2	0	0	0	0	212.976	0.0746368	0.0753117	-0.284113	1	0.950331	12	-2.1397e-05
2	0	0	1	0	213.976	0.0646344	0.0642073	-0.282536	1	0.950048	12	-1.81409e-05
2	0	0	0	0	214.976	0.0546321	0.0551172	-0.280744	1	0.949766	12	-1.54738e-05
2	0	0	1	0	215.976	0.0446297	0.0441252	-0.27934	1	0.949485	12	-1.23259e-05
2	0	0	1	0	216.976	0.0346265	0.0346445	-0.277914	1	0.949206	12	-9.62819e-06
2	0	0	0	0	217.977	0.0246251	0.0243486	-0.277155	1	0.948928	12	-6.74831e-06
2	0	0	1	0	218.977	0.0146227	0.0145223	-0.276123	1	0.948651	12	-4.00993e-06
2	0	0	0	0	219.977	0.00462037	0.00410415	-0.275523	1	0.948375	12	-1.13079e-06
2	0	0	0	1	220.798	0.00352011	0.00447433	-0.261226	2	0.948151	12	-1.16881e-06
2	0	0	1	1	221.798	0.0135225	0.0132091	-0.229836	2	0.947907	12	-3.03593e-06
2	0	0	0	1	222.798	0.0235248	0.0239932	-0.203489	2	0.947691	12	-4.88235e-06
2	0	0	1	1	223.799	0.0335272	0.0330876	-0.181076	2	0.947499	12	-5.99138e-06
2	0	0	1	1	224.799	0.0435295	0.0438685	-0.161972	2	0.947328	12	-7.10545e-06
2	0	0	0	1	225.799	0.0535318	0.0543004	-0.144878	2	0.947175	12	-7.86694e-06
2	0	0	1	1	226.799	0.0635342	0.0631848	-0.130592	2	0.947038	12	-8.25146e-06
2	0	0	0	1	227.8	0.0735365	0.0734152	-0.117324	2	0.946914	12	-8.61339e-06
2	0	0	1	1	228.8	0.0835389	0.0829381	-0.105877	2	0.946803	12	-8.78126e-06
2	0	0	1	1	229.8	0.0935417	0.0933233	-0.0953763	2	0.946703	12	-8.90083e-06
2	0	0	0	1	230.8	0.103544	0.103302	-0.0860838	2	0.946613	12	-8.89266e-06
2	0	0	1	1	231.801	0.113546	0.113741	-0.0774242	2	0.946531	12	-8.80627e-06
2	0	0	0	1	232.801	0.123548	0.123676	-0.0698535	2	0.946458	12	-8.63922e-06
2	0	0	1	1	233.801	0.133551	0.13293	-0.0626827	2	0.946392	12	-8.3324e-06
2	0	0	0	1	234.801	0.143553	0.143806	-0.0562295	2	0.946333	12	-8.08614e-06
2	0	0	1	1	235.801	0.153555	0.152944	-0.0496709	2	0.94628	12	-7.59688e-06
2	0	0	1	1	236.802	0.163558	0.163727	-0.0442394	2	0.946233	12	-7.24317e-06
2	0	0	0	1	237.802	0.17356	0.173345	-0.038952	2	0.946192	12	-6.75214e-06
2	0	0	1	1	238.802	0.183562	0.18261	-0.0339924	2	0.946156	12	-6.20737e-06
2	0	0	0	1	239.802	0.193565	0.193049	-0.0290322	2	0.946125	12	-5.60463e-06
2	0	0	1	1	240.803	0.203567	0.203368	-0.0244802	2	0.946098	12	-4.97849e-06
2	0	0	1	1	241.803	0.213569	0.213041	-0.0198602	2	0.946077	12	-4.23103e-06
2	1	0	0	1	242.803	0.223572	0.223158	-0.0150431	2	0.946059	12	-3.35697e-06
2	0	0	1	1	243.803	0.233574	0.233121	-0.0105477	2	0.946047	12	-2.45889e-06
2	1	0	0	1	244.804	0.243576	0.243001	-0.00487905	2	0.94604	12	-1.18561e-06
2	0	0	1	1	245.804	0.253579	0.25266	0.00020739	2	0.946038	12	5.23992e-08
2	1	0	1	1	246.804	0.263582	0.263607	0.00608111	2	0.946041	12	1.60302e-06
2	1	0	0	1	247.804	0.273583	0.272988	0.0122776	2	0.946051	12	3.35164e-06
2	1	0	1	1	248.805	0.283586	0.2833	0.0188055	2	0.946067	12	5.32759e-06
2	0	0	0	1	249.805	0.293588	0.294289	0.026287	2	0.946089	12	7.73596e-06
2	1	0	1	1	250.805	0.30359	0.302784	0.0342375	2	0.94612	12	1.03665e-05
2	1	0	0	1	251.805	0.313593	0.313988	0.0429013	2	0.946159	12	1.34705e-05
2	1	0	1	1	252.805	0.323595	0.323689	0.0524501	2	0.946207	12	1.69775e-05
2	1	0	1	1	253.806	0.333598	0.33422	0.0623706	2	0.946265	12	2.08455e-05
2	1	0	0	1	254.806	0.3436	0.343006	0.073901	2	0.946333	12	2.53485e-05
2	1	0	1	1	255.806	0.353602	0.353149	0.0856802	2	0.946413	12	3.02578e-05
2	1	0	0	1	256.806	0.363605	0.36362	0.0988227	2	0.946506	12	3.59339e-05
2	1	0	1	1	257.807	0.373607	0.373063	0.112816	2	0.946612	12	4.20874e-05
2	1	0	1	1	258.807	0.383609	0.3842	0.127725	2	0.946733	12	4.90719e-05
2	1	0	0	1	259.807	0.393612	0.393701	0.143807	2	0.946869	12	5.66171e-05
2	1	0	1	1	260.807	0.403614	0.403112	0.160913	2	0.947022	12	6.48658e-05
2	1	0	0	1	261.808	0.413616	0.415117	0.179713	2	0.947193	12	7.4602e-05
2	1	0	1	1	262.808	0.423619	0.42396	0.198964	2	0.947382	12	8.43526e-05
2	1	0	1	1	263.808	0.433622	0.434084	0.220076	2	0.947593	12	9.55318e-05
2	1	0	0	1	264.808	0.443623	0.443378	0.242403	2	0.947824	12	0.000107476
2	1	0	1	1	265.809	0.453626	0.45396	0.266073	2	0.948079	12	0.000120787
2	1	0	0	1	266.809	0.463628	0.463978	0.291859	2	0.948359	12	0.000135416
2	1	0	1	1	267.809	0.47363	0.474515	0.318156	2	0.948664	12	0.00015097
2	1	0	0	1	268.809	0.483633	0.484013	0.346726	2	0.948997	12	0.00016782
2	1	0	1	1	269.809	0.493635	0.493336	0.376828	2	0.94936	12	0.000185903
2	1	0	1	1	270.81	0.503637	0.502902	0.408857	2	0.949753	12	0.000205615
2	1	0	0	1	271.81	0.51364	0.513352	0.443777	2	0.95018	12	0.000227814
2	1	0	1	1	272.81	0.523642	0.523821	0.480857	2	0.950643	12	0.000251883
2	1	0	0	1	273.81	0.533644	0.533427	0.520682	2	0.951145	12	0.000277746
2	1	0	1	1	274.811	0.543647	0.542565	0.564311	2	0.951688	12	0.000306175
2	1	0	1	1	275.811	0.553648	0.554027	0.611524	2	0.952276	12	0.000338801
2	1	0	0	1	276.811	0.563651	0.562317	0.663136	2	0.952914	12	0.000372893
2	1	0	1	1	277.811	0.573654	0.573119	0.71883	2	0.953606	12	0.000411975
2	1	0	0	1	278.812	0.583656	0.58385	0.779285	2	0.954356	12	0.000454986
2	1	0	1	1	279.812	0.593659	0.592593	0.844332	2	0.955169	12	0.000500345
2	1	0	0	1	280.812	0.603661	0.603004	0.914756	2	0.956049	12	0.000551601
2	1	0	0	1	281.812	0.613663	0.612502	0.990216	2	0.957003	12	0.000606509
2	1	0	1	1	282.843	0.623966	0.624108	1.07545	2	0.958068	11	0.000671197
2	1	0	0	1	283.843	0.633968	0.633082	1.16346	2	0.959188	11	0.000736565
2	1	0	1	1	284.843	0.64397	0.643733	1.25783	2	0.9604	11	0.000809707
2	1	0	0	1	285.843	0.653973	0.653923	1.36734	2	0.961714	11	0.000894133
2	1	0	1	1	286.843	0.663975	0.662921	1.48418	2	0.96314	11	0.000983897
2	1	0	1	1	287.844	0.673977	0.674156	1.61705	2	0.964691	11	0.00109015
2	1	0	0	1	288.844	0.68398	0.684141	1.76416	2	0.966381	11	0.00120694
2	1	0	1	1	289.844	0.693982	0.6936	1.9284	2	0.968228	11	0.00133754
2	1	0	0	1	290.844	0.703984	0.703852	2.11502	2	0.970251	11	0.00148866
2	1	0	1	1	291.845	0.713987	0.713315	2.3242	2	0.97247	11	0.00165789
2	1	0	1	1	292.845	0.723988	0.723788	2.55988	2	0.974912	11	0.00185281
2	1	0	0	1	293.845	0.733991	0.733888	2.81968	2	0.977601	11	0.00206933
2	1	0	1	1	294.845	0.743994	0.74335	3.1109	2	0.980567	11	0.00231249
2	1	0	0	1	295.846	0.753996	0.754278	3.4364	2	0.983842	11	0.002592
2	1	0	1	1	296.846	0.763999	0.764141	3.79611	2	0.98746	11	0.00290076
2	1	0	0	1	297.846	0.774001	0.774497	4.19219	2	0.991453	11	0.00324684
2	1	0	0	1	298.846	0.784003	0.783006	4.63116	2	0.995862	11	0.00362623
2	1	0	1	1	299.847	0.794006	0.794258	5.09937	2	1.00073	11	0.00405022
2	1	0	0	1	300.847	0.804008	0.802886	5.61391	2	1.00608	11	0.00450733
2	1	0	1	1	301.847	0.81401	0.813554	6.17648	2	1.01198	11	0.0050249
2	1	0	0	1	302.847	0.824013	0.82332	6.76596	2	1.01845	11	0.00557055
2	1	0	1	1	303.847	0.834016	0.833642	7.39925	2	1.02553	11	0.00616833
2	1	0	1	1	304.848	0.844017	0.844399	8.05707	2	1.03326	11	0.00680338
2	1	0	0	1	305.848	0.85402	0.852586	8.77385	2	1.04168	11	0.00748046
2	1	0	1	1	306.848	0.864022	0.862777	9.51138	2	1.05083	11	0.0082062
2	1	0	0	1	307.848	0.874024	0.873033	10.2908	2	1.06074	11	0.0089842
2	1	0	1	1	308.879	0.884327	0.884341	11.1198	2	1.07177	10	0.00983372
2	1	0	1	1	309.879	0.894328	0.894468	11.9737	2	1.08333	10	0.0107101
2	1	0	0	1	310.879	0.904331	0.90425	12.8032	2	1.09573	10	0.0115773
2	1	0	1	1	311.879	0.914334	0.915257	13.6624	2	1.10897	10	0.0125046
2	1	0	0	1	312.88	0.924336	0.924084	14.5274	2	1.12308	10	0.0134246
2	1	0	1	1	313.88	0.934339	0.935328	15.4047	2	1.13805	10	0.0144084
2	1	0	0	1	314.88	0.944341	0.943529	16.2567	2	1.15388	10	0.0153387
2	1	0	0	1	315.88	0.954343	0.954288	17.0668	2	1.17056	10	0.0162867
2	1	0	1	1	316.881	0.964345	0.964008	17.8218	2	1.18803	10	0.0171804
2	1	0	0	1	317.881	0.974348	0.974056	18.5202	2	1.20622	10	0.0180397
2	1	0	1	1	318.881	0.98435	0.984852	19.159	2	1.22505	10	0.0188688
2	1	0	0	1	319.881	0.994353	0.994123	19.6987	2	1.2445	10	0.019583
2	1	0	1	1	320.702	0.997453	0.997901	19.5684	2	1.26076	10	0.0195274
2	1	0	1	1	321.702	0.987451	0.987682	18.143	2	1.27959	10	0.0179195
2	1	0	0	1	322.702	0.977449	0.977753	16.9086	2	1.29709	10	0.0165324
2	1	0	1	1	323.703	0.967446	0.967459	15.8333	2	1.31345	10	0.015318
2	1	0	0	1	324.703	0.957444	0.957583	14.7631	2	1.32874	10	0.0141369
2	1	0	1	1	325.703	0.947442	0.948203	13.8352	2	1.34307	10	0.0131186
2	1	0	0	1	326.703	0.937439	0.936695	12.91	2	1.35643	10	0.0120928
2	1	0	1	1	327.703	0.927438	0.92782	12.0648	2	1.3689	10	0.011194
2	1	0	1	1	328.704	0.917434	0.917022	11.2441	2	1.38055	10	0.0103111
2	1	0	0	1	329.704	0.907432	0.907694	10.4574	2	1.3914	10	0.00949211
2	1	0	1	1	330.704	0.89743	0.895968	9.71268	2	1.40148	10	0.00870226
2	1	0	0	1	331.704	0.887427	0.888355	9.01479	2	1.41085	10	0.00800833
2	1	0	1	1	332.705	0.877425	0.877249	8.33752	2	1.41951	10	0.00731408
2	1	0	1	1	333.705	0.867423	0.86784	7.68214	2	1.42752	10	0.00666686
2	1	0	0	1	334.705	0.85742	0.858306	7.07066	2	1.43489	10	0.0060688
2	1	0	1	1	335.705	0.847418	0.847258	6.49255	2	1.44167	10	0.00550087
2	1	0	0	1	336.706	0.837416	0.838046	5.96252	2	1.44789	10	0.00499686
2	1	0	1	1	337.706	0.827413	0.826561	5.46208	2	1.4536	10	0.00451474
2	1	0	1	1	338.706	0.817411	0.818318	4.97748	2	1.45881	10	0.00407317
2	1	0	0	1	339.706	0.807409	0.807637	4.53315	2	1.46356	10	0.00366114
2	1	0	1	1	340.737	0.797106	0.797925	4.10333	2	1.468	11	0.00327415
2	1	0	0	1	341.737	0.787104	0.787253	3.72066	2	1.47191	11	0.0029291
2	1	0	1	1	342.737	0.777102	0.776514	3.37203	2	1.47545	11	0.00261843
2	1	0	0	1	343.737	0.767099	0.766345	3.04557	2	1.47866	11	0.00233396
2	1	0	0	1	344.738	0.757097	0.756921	2.74404	2	1.48155	11	0.00207702
2	1	0	1	1	345.738	0.747095	0.746425	2.46193	2	1.48415	11	0.00183765
2	1	0	0	1	346.738	0.737092	0.736251	2.20597	2	1.48648	11	0.00162415
2	1	0	1	1	347.738	0.72709	0.726941	1.96968	2	1.48857	11	0.00143184
2	1	0	0	1	348.738	0.717088	0.717494	1.74999	2	1.49042	11	0.0012556
2	1	0	1	1	349.739	0.707084	0.707089	1.54764	2	1.49207	11	0.00109432
2	1	0	1	1	350.739	0.697083	0.696699	1.36026	2	1.49352	11	0.000947689
2	1	0	0	1	351.739	0.68708	0.686506	1.18934	2	1.49479	11	0.000816489
2	1	0	1	1	352.739	0.677078	0.675777	1.03271	2	1.4959	11	0.000697882
2	1	0	0	1	353.74	0.667076	0.666573	0.888073	2	1.49686	11	0.000591966
2	1	0	1	1	354.74	0.657073	0.657812	0.753314	2	1.49768	11	0.000495539
2	1	0	1	1	355.74	0.647071	0.64723	0.630233	2	1.49837	11	0.000407906
2	1	0	0	1	356.74	0.637069	0.636887	0.517622	2	1.49894	11	0.000329667
2	1	0	1	1	357.771	0.626766	0.626141	0.41017	2	1.49942	12	0.000256824
2	1	0	0	1	358.771	0.616764	0.615983	0.316154	2	1.49978	12	0.000194746
2	1	0	1	1	359.771	0.606762	0.606494	0.230748	2	1.50005	12	0.000139948
2	1	0	0	1	360.771	0.596759	0.596266	0.151305	2	1.50024	12	9.02183e-05
2	1	0	0	1	361.772	0.586757	0.586172	0.0793825	2	1.50035	12	4.65318e-05
2	1	0	1	1	362.772	0.576755	0.576819	0.0137647	2	1.5004	12	7.93977e-06
2	0	0	0	1	363.772	0.566752	0.565544	-0.0453869	2	1.50038	12	-2.56683e-05
2	0	0	1	1	364.772	0.55675	0.556967	-0.0996204	2	1.50031	12	-5.54853e-05
2	0	0	0	1	365.772	0.546748	0.548128	-0.148434	2	1.50018	12	-8.13609e-05
2	0	0	1	1	366.773	0.536744	0.535612	-0.19208	2	1.50001	12	-0.00010288
2	0	0	1	1	367.773	0.526743	0.527971	-0.231311	2	1.4998	12	-0.000122126
2	0	0	0	1	368.773	0.516741	0.517951	-0.266015	2	1.49955	12	-0.000137783
2	0	0	1	1	369.773	0.506738	0.506803	-0.297141	2	1.49926	12	-0.000150592
2	0	0	0	1	370.774	0.496736	0.496639	-0.323509	2	1.49895	12	-0.000160667
2	0	0	1	1	371.774	0.486733	0.486025	-0.346968	2	1.49862	12	-0.000168635
2	0	0	1	1	372.774	0.476731	0.4762	-0.366693	2	1.49826	12	-0.000174619
2	0	0	0	1	373.774	0.466729	0.467039	-0.382775	2	1.49788	12	-0.000178771
2	0	0	1	1	374.775	0.456726	0.457666	-0.396724	2	1.49749	12	-0.000181567
2	0	0	0	1	375.775	0.446724	0.445228	-0.407436	2	1.49709	12	-0.000181402
2	0	0	1	1	376.775	0.436722	0.43565	-0.415816	2	1.49667	12	-0.00018115
2	0	0	0	1	377.775	0.426719	0.427131	-0.421554	2	1.49626	12	-0.000180059
2	0	0	0	1	378.776	0.416717	0.416577	-0.425763	2	1.49583	12	-0.000177363
2	0	0	1	1	379.776	0.406715	0.409129	-0.428539	2	1.4954	12	-0.000175328
2	0	0	0	1	380.776	0.396712	0.396246	-0.429359	2	1.49497	12	-0.000170132
2	0	0	1	1	381.776	0.38671	0.385862	-0.429613	2	1.49454	12	-0.000165771
2	0	0	0	1	382.776	0.376708	0.376884	-0.427807	2	1.49411	12	-0.000161233
2	0	0	1	1	383.777	0.366705	0.364712	-0.42606	2	1.49369	12	-0.00015539
2	0	0	1	1	384.777	0.356703	0.358255	-0.423329	2	1.49326	12	-0.00015166
2	0	0	0	1	385.777	0.346701	0.347186	-0.419867	2	1.49284	12	-0.000145772
2	0	0	1	1	386.777	0.336698	0.337762	-0.416633	2	1.49242	12	-0.000140723
2	0	0	0	1	387.778	0.326696	0.326934	-0.412566	2	1.492	12	-0.000134882
2	0	0	1	1	388.778	0.316694	0.316351	-0.408384	2	1.49159	12	-0.000129193
2	0	0	1	1	389.778	0.306691	0.306037	-0.403789	2	1.49119	12	-0.000123574
2	0	0	0	1	390.778	0.296689	0.296477	-0.399477	2	1.49078	12	-0.000118436
2	0	0	1	1	391.779	0.286687	0.286844	-0.394833	2	1.49039	12	-0.000113256
2	0	0	0	1	392.779	0.276684	0.276353	-0.390058	2	1.48999	12	-0.000107794
2	0	0	1	1	393.779	0.266682	0.265119	-0.385175	2	1.48961	12	-0.000102117
2	0	0	0	1	394.779	0.256679	0.255937	-0.380125	2	1.48922	12	-9.72881e-05
2	0	0	1	1	395.779	0.246678	0.247957	-0.375561	2	1.48884	12	-9.3123e-05
2	0	0	1	1	396.78	0.236675	0.237018	-0.370886	2	1.48847	12	-8.79065e-05
2	0	0	0	1	397.78	0.226672	0.225574	-0.366423	2	1.4881	12	-8.26553e-05
2	0	0	1	1	398.78	0.21667	0.217286	-0.361968	2	1.48774	12	-7.86503e-05
2	0	0	0	1	399.78	0.206668	0.206762	-0.357247	2	1.48738	12	-7.38653e-05
2	0	0	1	1	400.781	0.196665	0.195064	-0.353357	2	1.48702	12	-6.89273e-05
2	0	0	1	1	401.781	0.186663	0.188493	-0.34912	2	1.48667	12	-6.58067e-05
2	0	0	0	1	402.781	0.176661	0.174026	-0.345083	2	1.48632	12	-6.00535e-05
2	0	0	1	1	403.781	0.166658	0.166641	-0.34111	2	1.48598	12	-5.68428e-05
2	0	0	0	1	404.782	0.156656	0.155283	-0.337408	2	1.48564	12	-5.23936e-05
2	0	0	1	1	405.782	0.146654	0.146492	-0.334021	2	1.4853	12	-4.89313e-05
2	0	0	1	1	406.782	0.136651	0.13682	-0.3306	2	1.48497	12	-4.52325e-05
2	0	0	0	1	407.782	0.126649	0.125721	-0.327076	2	1.48464	12	-4.11204e-05
2	0	0	1	1	408.783	0.116647	0.116371	-0.323939	2	1.48431	12	-3.76972e-05
2	0	0	0	1	409.783	0.106644	0.105739	-0.320626	2	1.48399	12	-3.39026e-05
2	0	0	1	1	410.783	0.096642	0.0967165	-0.317683	2	1.48367	12	-3.07252e-05
2	0	0	0	1	411.783	0.0866396	0.0877239	-0.314723	2	1.48336	12	-2.76088e-05
2	0	0	1	1	412.783	0.0766375	0.0761422	-0.312171	2	1.48304	12	-2.37694e-05
2	0	0	1	1	413.784	0.0666349	0.0654685	-0.309404	2	1.48273	12	-2.02562e-05
2	0	0	0	1	414.784	0.0566326	0.0557504	-0.306562	2	1.48242	12	-1.70909e-05
2	0	0	1	1	415.784	0.0466302	0.0461469	-0.304057	2	1.48212	12	-1.40313e-05
2	0	0	0	1	416.784	0.0366279	0.035506	-0.301654	2	1.48181	12	-1.07105e-05
2	0	0	1	1	417.785	0.0266255	0.025579	-0.299499	2	1.48151	12	-7.66088e-06
2	0	0	1	1	418.785	0.0166232	0.0168643	-0.297355	2	1.48121	12	-5.01468e-06
2	0	0	0	1	419.785	0.00662084	0.00490815	-0.295319	2	1.48092	12	-1.44947e-06
2	0	0	0	0	420.606	0.00151964	-2.08913e-05	-0.287578	3	1.48067	12	6.0079e-09
2	0	0	1	0	421.606	0.011522	0.0113657	-0.252836	3	1.48041	12	-2.87365e-06
2	0	0	0	0	422.606	0.0215243	0.020931	-0.224336	3	1.48017	12	-4.69558e-06
2	0	0	1	0	423.607	0.0315267	0.0319399	-0.200254	3	1.47996	12	-6.39609e-06
2	0	0	0	0	424.607	0.041529	0.0431006	-0.179713	3	1.47977	12	-7.74575e-06
2	0	0	1	0	425.607	0.0515305	0.0502853	-0.161939	3	1.4796	12	-8.14315e-06
2	0	0	1	0	426.607	0.0615337	0.0627298	-0.146294	3	1.47944	12	-9.17699e-06
2	0	0	0	0	427.608	0.0715361	0.0705587	-0.132127	3	1.4793	12	-9.3227e-06
2	0	0	1	0	428.608	0.0815384	0.0806969	-0.120222	3	1.47918	12	-9.70156e-06
2	0	0	0	0	429.608	0.0915408	0.0906493	-0.108991	3	1.47906	12	-9.87998e-06
2	0	0	1	0	430.608	0.101543	0.100202	-0.0993338	3	1.47896	12	-9.95344e-06
2	0	0	1	0	431.609	0.111545	0.112683	-0.0904627	3	1.47887	12	-1.01936e-05
2	0	0	0	0	432.609	0.121548	0.122066	-0.0820755	3	1.47878	12	-1.00186e-05
2	0	0	1	0	433.609	0.13155	0.13219	-0.0748229	3	1.4787	12	-9.89086e-06
2	0	0	0	0	434.609	0.141552	0.141335	-0.0678526	3	1.47863	12	-9.58992e-06
2	0	0	1	0	435.609	0.151555	0.151268	-0.061562	3	1.47857	12	-9.31236e-06
2	0	0	1	0	436.61	0.161558	0.161951	-0.0558767	3	1.47851	12	-9.04931e-06
2	0	0	0	0	437.61	0.17156	0.171368	-0.0503679	3	1.47846	12	-8.63145e-06
2	0	0	1	0	438.61	0.181562	0.181047	-0.0450829	3	1.47841	12	-8.16212e-06
2	0	0	0	0	439.61	0.191564	0.191361	-0.0404084	3	1.47836	12	-7.73261e-06
2	0	0	1	0	440.611	0.201567	0.200716	-0.0362287	3	1.47833	12	-7.2717e-06
2	1	0	0	0	441.611	0.211569	0.212215	-0.0316501	3	1.47829	12	-6.71665e-06
2	1	0	1	0	442.611	0.221571	0.220256	-0.0270663	3	1.47826	12	-5.96151e-06
2	0	0	1	0	443.611	0.231574	0.232855	-0.0227326	3	1.47824	12	-5.29342e-06
2	0	0	0	0	444.612	0.241576	0.241004	-0.0182209	3	1.47822	12	-4.39129e-06
2	1	0	1	0	445.612	0.251578	0.251444	-0.0137244	3	1.4782	12	-3.45091e-06
2	0	0	0	0	446.612	0.261581	0.26117	-0.00913768	3	1.47819	12	-2.38648e-06
2	0	0	1	0	447.612	0.271583	0.271404	-0.00407757	3	1.47819	12	-1.10667e-06
2	0	0	1	0	448.613	0.281585	0.279791	0.0011894	3	1.47819	12	3.32783e-07
2	1	0	0	0	449.613	0.291588	0.290757	0.00677564	3	1.47819	12	1.97006e-06
2	1	0	1	0	450.613	0.30159	0.302174	0.0124817	3	1.4782	12	3.77164e-06
2	1	0	0	0	451.613	0.311592	0.311403	0.0189739	3	1.47822	12	5.90852e-06
2	1	0	1	0	452.613	0.321595	0.320704	0.0258446	3	1.47824	12	8.28849e-06
2	1	0	1	0	453.614	0.331598	0.330641	0.0329834	3	1.47827	12	1.09057e-05
2	1	0	0	0	454.614	0.341599	0.341124	0.0412056	3	1.47831	12	1.40562e-05
2	1	0	1	0	455.614	0.351602	0.35191	0.049594	3	1.47835	12	1.74526e-05
2	1	0	0	0	456.614	0.361604	0.360888	0.0585627	3	1.47841	12	2.11345e-05
2	1	0	1	0	457.615	0.371606	0.371461	0.06807	3	1.47847	12	2.52853e-05
2	1	0	0	0	458.615	0.381609	0.381355	0.0785796	3	1.47854	12	2.99667e-05
2	1	0	1	0	459.615	0.391611	0.390519	0.0900029	3	1.47863	12	3.51478e-05
2	1	0	1	0	460.615	0.401614	0.401927	0.101729	3	1.47872	12	4.08878e-05
2	1	0	0	0	461.616	0.411616	0.410835	0.114509	3	1.47883	12	4.70441e-05
2	1	0	1	0	462.616	0.421618	0.421012	0.128046	3	1.47896	12	5.39087e-05
2	1	0	0	0	463.616	0.431621	0.43174	0.142958	3	1.47909	12	6.17208e-05
2	1	0	1	0	464.616	0.441623	0.440891	0.158451	3	1.47924	12	6.98599e-05
2	1	0	1	0	465.617	0.451625	0.452148	0.174901	3	1.47941	12	7.90812e-05
2	1	0	0	0	466.617	0.461628	0.460909	0.192617	3	1.47959	12	8.8779e-05
2	1	0	1	0	467.617	0.47163	0.473197	0.211251	3	1.4798	12	9.99631e-05
2	1	0	0	0	468.617	0.481632	0.481399	0.231332	3	1.48002	12	0.000111363
2	1	0	1	0	469.617	0.491635	0.491455	0.252327	3	1.48026	12	0.000124007
2	1	0	0	0	470.618	0.501637	0.501451	0.275278	3	1.48052	12	0.000138039
2	1	0	0	0	471.618	0.511639	0.511706	0.299759	3	1.48081	12	0.000153388
2	1	0	1	0	472.618	0.521642	0.521058	0.325807	3	1.48113	12	0.000169764
2	1	0	0	0	473.618	0.531644	0.531833	0.35421	3	1.48147	12	0.000188381
2	1	0	1	0	474.619	0.541646	0.542071	0.385089	3	1.48184	12	0.000208745
2	1	0	0	0	475.619	0.551649	0.55286	0.418945	3	1.48224	12	0.000231618
2	1	0	1	0	476.619	0.561652	0.56218	0.454793	3	1.48268	12	0.000255675
2	1	0	1	0	477.619	0.571653	0.571911	0.49396	3	1.48315	12	0.000282501
2	1	0	0	0	478.62	0.581656	0.581315	0.536266	3	1.48367	12	0.000311739
2	1	0	1	0	479.62	0.591658	0.590946	0.581459	3	1.48423	12	0.000343611
2	1	0	0	0	480.62	0.60166	0.601578	0.629884	3	1.48483	12	0.000378925
2	1	0	1	0	481.62	0.611663	0.610745	0.681648	3	1.48549	12	0.000416313
2	1	0	1	0	482.62	0.621665	0.62231	0.735869	3	1.4862	12	0.000457939
2	1	0	0	0	483.621	0.631667	0.631885	0.796068	3	1.48697	12	0.000503024
2	1	0	1	0	484.621	0.64167	0.642112	0.860468	3	1.4878	12	0.000552517
2	1	0	0	0	485.621	0.651672	0.651588	0.930731	3	1.48869	12	0.000606453
2	1	0	1	0	486.621	0.661675	0.661826	1.00799	3	1.48966	12	0.000667111
2	1	0	0	0	487.652	0.671977	0.671157	1.09845	3	1.49075	11	0.000737232
2	1	0	0	0	488.652	0.681979	0.681447	1.19402	3	1.4919	11	0.000813662
2	1	0	1	0	489.652	0.691982	0.691523	1.30211	3	1.49315	11	0.00090044
2	1	0	0	0	490.652	0.701984	0.701683	1.4244	3	1.49451	11	0.000999478
2	1	0	1	0	491.653	0.711986	0.711114	1.55787	3	1.496	11	0.00110782
2	1	0	0	0	492.653	0.721989	0.721864	1.71041	3	1.49763	11	0.00123468
2	1	0	1	0	493.653	0.731991	0.731334	1.87913	3	1.49943	11	0.00137427
2	1	0	1	0	494.653	0.741993	0.740866	2.0709	3	1.50141	11	0.00153426
2	1	0	0	0	495.654	0.751996	0.75221	2.28523	3	1.50358	11	0.00171898
2	1	0	1	0	496.654	0.761998	0.761911	2.52236	3	1.50599	11	0.00192181
2	1	0	0	0	497.654	0.772	0.771797	2.78841	3	1.50864	11	0.00215209
2	1	0	1	0	498.654	0.782003	0.781443	3.07975	3	1.51158	11	0.00240665
2	1	0	1	0	499.654	0.792005	0.791625	3.40441	3	1.51482	11	0.00269502
2	1	0	0	0	500.655	0.802007	0.801062	3.76477	3	1.5184	11	0.00301581
2	1	0	1	0	501.655	0.81201	0.812572	4.14916	3	1.52236	11	0.0033715
2	1	0	0	0	502.655	0.822012	0.822299	4.56827	3	1.52672	11	0.00375649
2	1	0	1	0	503.655	0.832014	0.831618	5.00416	3	1.53151	11	0.00416155
2	1	0	0	0	504.656	0.842017	0.841515	5.47972	3	1.53676	11	0.00461126
2	1	0	0	0	505.656	0.852019	0.850748	5.97937	3	1.54249	11	0.00508694
2	1	0	1	0	506.656	0.862021	0.861942	6.51373	3	1.54874	11	0.00561446
2	1	0	0	0	507.656	0.872024	0.87215	7.07832	3	1.55553	11	0.00617336
2	1	0	1	0	508.657	0.882026	0.881087	7.66614	3	1.5629	11	0.00675453
2	1	0	0	0	509.657	0.892028	0.892215	8.2598	3	1.57088	11	0.00736951
2	1	0	1	0	510.657	0.902032	0.900927	8.90044	3	1.57946	11	0.00801865
2	1	0	1	0	511.657	0.912033	0.911966	9.51876	3	1.58868	11	0.00868079
2	1	0	0	0	512.658	0.922036	0.921512	10.1939	3	1.59853	11	0.0093938
2	1	0	1	0	513.658	0.932038	0.931748	10.8351	3	1.60906	11	0.0100956
2	1	0	0	0	514.688	0.94234	0.94198	11.5141	3	1.62059	10	0.010846
2	1	0	1	0	515.688	0.952343	0.951635	12.171	3	1.63243	10	0.0115824
2	1	0	1	0	516.688	0.962344	0.96235	12.8448	3	1.64493	10	0.0123611
2	1	0	0	0	517.689	0.972347	0.972832	13.4576	3	1.65808	10	0.0130919
2	1	0	1	0	518.689	0.98235	0.981672	14.0558	3	1.67184	10	0.0137982
2	1	0	0	0	519.689	0.992352	0.992121	14.6443	3	1.68623	10	0.0145289
2	1	0	1	0	520.51	0.999454	0.999268	14.9718	3	1.69841	10	0.0149608
2	1	0	0	0	521.51	0.989451	0.989271	13.9187	3	1.71283	10	0.0137694
2	1	0	1	0	522.51	0.979449	0.97987	13.0062	3	1.72629	10	0.0127444
2	1	0	1	0	523.511	0.969447	0.969749	12.122	3	1.73886	10	0.0117553
2	1	0	0	0	524.511	0.959444	0.958909	11.3896	3	1.7506	10	0.0109216
2	1	0	1	0	525.511	0.949442	0.949471	10.6399	3	1.7616	10	0.0101023
2	1	0	0	0	526.511	0.93944	0.939751	9.94082	3	1.77187	10	0.00934189
2	1	0	1	0	527.511	0.929437	0.928562	9.2603	3	1.78145	10	0.00859877
2	1	0	1	0	528.512	0.919435	0.91872	8.59373	3	1.79038	10	0.00789523
2	1	0	0	0	529.512	0.909433	0.909582	7.95506	3	1.79866	10	0.00723578
2	1	0	1	0	530.512	0.89943	0.898263	7.37664	3	1.80631	10	0.00662616
2	1	0	0	0	531.512	0.889428	0.889512	6.80967	3	1.81339	10	0.00605728
2	1	0	1	0	532.513	0.879426	0.878712	6.26656	3	1.81993	10	0.0055065
2	1	0	0	0	533.513	0.869423	0.870266	5.74708	3	1.82594	10	0.00500149
2	1	0	1	0	534.513	0.859422	0.86013	5.2828	3	1.83145	10	0.00454389
2	1	0	1	0	535.513	0.849419	0.848693	4.83046	3	1.8365	10	0.00409958
2	1	0	0	0	536.544	0.839116	0.839949	4.37862	3	1.84124	11	0.00367782
2	1	0	1	0	537.544	0.829114	0.828278	3.97281	3	1.84542	11	0.00329059
2	1	0	0	0	538.544	0.819111	0.819431	3.60699	3	1.8492	11	0.00295568
2	1	0	1	0	539.544	0.809109	0.809065	3.26913	3	1.85264	11	0.00264493
2	1	0	1	0	540.545	0.799107	0.797725	2.95502	3	1.85575	11	0.00235729
2	1	0	0	0	541.545	0.789104	0.789222	2.66299	3	1.85855	11	0.00210169
2	1	0	1	0	542.545	0.779102	0.777892	2.39692	3	1.86108	11	0.00186454
2	1	0	0	0	543.545	0.7691	0.769887	2.15266	3	1.86335	11	0.0016573
2	1	0	1	0	544.545	0.759097	0.759236	1.93128	3	1.86539	11	0.0014663
2	1	0	1	0	545.546	0.749096	0.749909	1.7254	3	1.86722	11	0.00129389
2	1	0	0	0	546.546	0.739093	0.738671	1.54085	3	1.86885	11	0.00113818
2	1	0	1	0	547.546	0.72909	0.728811	1.3698	3	1.8703	11	0.000998324
2	1	0	0	0	548.546	0.719088	0.718943	1.21239	3	1.87159	11	0.000871642
2	1	0	1	0	549.547	0.709086	0.708796	1.07074	3	1.87273	11	0.000758934
2	1	0	0	0	550.547	0.699083	0.698277	0.94036	3	1.87373	11	0.000656632
2	1	0	0	0	551.547	0.689081	0.689656	0.822484	3	1.87461	11	0.000567231
2	1	0	1	0	552.547	0.679079	0.67915	0.712101	3	1.87538	11	0.000483623
2	1	0	0	0	553.548	0.669076	0.669999	0.611007	3	1.87604	11	0.000409374
2	1	0	1	0	554.548	0.659074	0.657426	0.520252	3	1.8766	11	0.000342027
2	1	0	0	0	555.563	0.648922	0.648899	0.438985	3	1.87708	11	0.000284857
2	1	0	1	0	556.578	0.638769	0.637908	0.355277	3	1.87748	12	0.000226634
2	1	0	1	0	557.579	0.628767	0.627718	0.284662	3	1.8778	12	0.000178688
2	1	0	0	0	558.579	0.618764	0.618908	0.220027	3	1.87805	12	0.000136177
2	1	0	1	0	559.579	0.608762	0.608573	0.161028	3	1.87824	12	9.79976e-05
2	1	0	0	0	560.579	0.59876	0.598205	0.106525	3	1.87837	12	6.37239e-05
2	1	0	1	0	561.579	0.588757	0.58703	0.0568645	3	1.87845	12	3.33811e-05
2	1	0	1	0	562.58	0.578756	0.578805	0.0106924	3	1.87849	12	6.1888e-06
2	1	0	0	0	563.58	0.568753	0.568521	-0.0311116	3	1.87848	12	-1.76876e-05
2	0	0	1	0	564.58	0.55875	0.557347	-0.0697146	3	1.87842	12	-3.88553e-05
2	0	0	0	0	565.58	0.548748	0.549126	-0.104684	3	1.87834	12	-5.74849e-05
2	0	0	1	0	566.581	0.538746	0.539097	-0.136325	3	1.87821	12	-7.34925e-05
2	0	0	0	0	567.581	0.528743	0.5287	-0.165422	3	1.87806	12	-8.74587e-05
2	0	0	0	0	568.581	0.518741	0.519021	-0.191618	3	1.87788	12	-9.94537e-05
2	0	0	1	0	569.581	0.508739	0.508126	-0.215132	3	1.87768	12	-0.000109314
2	0	0	0	0	570.582	0.498736	0.498694	-0.235798	3	1.87745	12	-0.000117591
2	0	0	1	0	571.582	0.488734	0.488449	-0.254463	3	1.87721	12	-0.000124292
2	0	0	0	0	572.582	0.478732	0.47866	-0.270894	3	1.87694	12	-0.000129666
2	0	0	1	0	573.582	0.468728	0.469711	-0.285295	3	1.87666	12	-0.000134006
2	0	0	1	0	574.583	0.458727	0.458364	-0.297733	3	1.87637	12	-0.00013647
2	0	0	0	0	575.583	0.448725	0.448584	-0.308226	3	1.87607	12	-0.000138265
2	0	0	1	0	576.583	0.438722	0.438356	-0.316915	3	1.87575	12	-0.000138922
2	0	0	0	0	577.583	0.42872	0.427594	-0.324317	3	1.87543	12	-0.000138676
2	0	0	1	0	578.583	0.418717	0.4183	-0.330687	3	1.8751	12	-0.000138326
2	0	0	1	0	579.584	0.408715	0.408523	-0.335368	3	1.87477	12	-0.000137006
2	0	0	0	0	580.584	0.398713	0.398968	-0.339091	3	1.87443	12	-0.000135286
2	0	0	1	0	581.584	0.38871	0.388549	-0.341629	3	1.87409	12	-0.00013274
2	0	0	0	0	582.584	0.378708	0.379642	-0.343989	3	1.87375	12	-0.000130593
2	0	0	1	0	583.585	0.368706	0.367906	-0.345406	3	1.8734	12	-0.000127077
2	0	0	0	0	584.585	0.358703	0.357866	-0.34606	3	1.87306	12	-0.000123843
2	0	0	0	0	585.585	0.348701	0.348096	-0.346228	3	1.87271	12	-0.00012052
2	0	0	1	0	586.585	0.338699	0.337855	-0.346589	3	1.87236	12	-0.000117097
2	0	0	0	0	587.586	0.328696	0.329065	-0.346166	3	1.87202	12	-0.000113911
2	0	0	1	0	588.586	0.318694	0.318945	-0.345532	3	1.87167	12	-0.000110205
2	0	0	0	0	589.586	0.308692	0.308804	-0.344653	3	1.87132	12	-0.00010643
2	0	0	1	0	590.586	0.298689	0.297449	-0.343249	3	1.87098	12	-0.000102099
2	0	0	1	0	591.587	0.288687	0.288052	-0.34224	3	1.87064	12	-9.85829e-05
2	0	0	0	0	592.587	0.278685	0.279371	-0.340454	3	1.87029	12	-9.51131e-05
2	0	0	1	0	593.587	0.268682	0.268736	-0.338976	3	1.86995	12	-9.1095e-05
2	0	0	0	0	594.587	0.25868	0.258816	-0.33746	3	1.86962	12	-8.73402e-05
2	0	0	1	0	595.587	0.248678	0.247776	-0.335391	3	1.86928	12	-8.3102e-05
2	0	0	1	0	596.588	0.238675	0.238622	-0.334075	3	1.86894	12	-7.97176e-05
2	0	0	0	0	597.588	0.228673	0.228945	-0.331984	3	1.86861	12	-7.6006e-05
2	0	0	1	0	598.588	0.218671	0.218241	-0.329936	3	1.86828	12	-7.20056e-05
2	0	0	0	0	599.588	0.208668	0.208496	-0.32823	3	1.86795	12	-6.84346e-05
2	0	0	1	0	600.589	0.198666	0.198839	-0.325935	3	1.86762	12	-6.48086e-05
2	0	0	0	0	601.589	0.188664	0.189134	-0.323886	3	1.8673	12	-6.12577e-05
2	0	0	1	0	602.589	0.178662	0.1783	-0.321769	3	1.86697	12	-5.73715e-05
2	0	0	1	0	603.589	0.168659	0.16812	-0.319902	3	1.86665	12	-5.3782e-05
2	0	0	0	0	604.59	0.158656	0.159617	-0.318174	3	1.86633	12	-5.07858e-05
2	0	0	1	0	605.59	0.148654	0.14773	-0.316293	3	1.86601	12	-4.67258e-05
2	0	0	0	0	606.59	0.138652	0.138524	-0.314171	3	1.8657	12	-4.35201e-05
2	0	0	1	0	607.59	0.128649	0.129111	-0.311895	3	1.86539	12	-4.02691e-05
2	0	0	1	0	608.591	0.118647	0.118957	-0.310255	3	1.86507	12	-3.6907e-05
2	0	0	0	0	609.591	0.108645	0.109137	-0.308271	3	1.86476	12	-3.36439e-05
2	0	0	1	0	610.591	0.0986424	0.0982513	-0.30613	3	1.86446	12	-3.00777e-05
2	0	0	0	0	611.591	0.0886401	0.0875574	-0.304109	3	1.86415	12	-2.6627e-05
2	0	0	1	0	612.591	0.0786377	0.0781512	-0.302216	3	1.86385	12	-2.36186e-05
2	0	0	1	0	613.592	0.0686345	0.0680586	-0.300285	3	1.86355	12	-2.0437e-05
2	0	0	0	0	614.592	0.058633	0.0587808	-0.298019	3	1.86325	12	-1.75178e-05
2	0	0	1	0	615.592	0.0486307	0.0484327	-0.296231	3	1.86295	12	-1.43472e-05
2	0	0	0	0	616.592	0.0386284	0.0389246	-0.293969	3	1.86265	12	-1.14426e-05
2	0	0	1	0	617.593	0.028626	0.0266598	-0.291648	3	1.86236	12	-7.77529e-06
2	0	0	0	0	618.593	0.0186237	0.0177298	-0.289663	3	1.86207	12	-5.13567e-06
2	0	0	1	0	619.593	0.00862131	0.00852657	-0.287538	3	1.86178	12	-2.45171e-06
2	0	0	0	1	620.459	-3.07233e-05	-0.000758074	-0.280985	3	1.86153	12	2.13007e-07
2	0	0	1	1	621.414	-0.00958297	-0.00924151	-0.28402	3	1.86126	12	2.62478e-06
2	0	0	0	1	622.414	-0.0195853	-0.0192714	-0.281712	3	1.86098	12	5.42899e-06
2	0	0	1	1	623.415	-0.0295877	-0.0292367	-0.27987	3	1.86069	12	8.18247e-06
2	0	0	0	1	624.415	-0.03959	-0.0394501	-0.278267	3	1.86041	12	1.09776e-05
2	0	0	1	1	625.415	-0.0495924	-0.0498003	-0.276234	3	1.86014	12	1.37566e-05
2	0	0	1	1	626.415	-0.0595945	-0.0603211	-0.274726	3	1.85986	12	1.65718e-05
2	0	0	0	1	627.416	-0.0695971	-0.0684526	-0.273191	3	1.85959	12	1.87007e-05
2	0	0	1	1	628.416	-0.0795994	-0.0799081	-0.272055	3	1.85931	12	2.17394e-05
2	0	0	0	1	629.416	-0.0896018	-0.0896708	-0.270478	3	1.85904	12	2.4254e-05
2	0	0	1	1	630.416	-0.0996041	-0.099846	-0.269714	3	1.85877	12	2.69298e-05
2	0	0	0	1	631.416	-0.109606	-0.109623	-0.268634	3	1.8585	12	2.94486e-05
2	0	0	0	1	632.417	-0.119609	-0.119099	-0.267722	3	1.85823	12	3.18853e-05
2	0	0	1	1	633.417	-0.129611	-0.129769	-0.267519	3	1.85797	12	3.47158e-05
2	0	0	0	1	634.417	-0.139614	-0.139597	-0.266592	3	1.8577	12	3.72153e-05
2	0	0	1	1	635.417	-0.149616	-0.149716	-0.265922	3	1.85743	12	3.98126e-05
2	0	0	0	1	636.418	-0.159618	-0.16039	-0.265821	3	1.85717	12	4.26352e-05
2	0	0	1	1	637.418	-0.169621	-0.169242	-0.264936	3	1.8569	12	4.48383e-05
2	0	0	1	1	638.418	-0.179623	-0.179839	-0.264467	3	1.85663	12	4.75615e-05
2	0	0	0	1	639.418	-0.189625	-0.189076	-0.263855	3	1.85637	12	4.98887e-05
2	0	0	1	1	640.419	-0.199628	-0.200441	-0.262778	3	1.85611	12	5.26716e-05
2	0	0	0	1	640.912	-0.204579	-0.204971	-0.257066	3	1.85598	12	5.26912e-05