File: Data_1mg/2022_01_30 CoNx 1mg ref309_set1_03_CP_C02.mpt
EC-Lab ASCII FILE
Nb header lines : 53

Chronopotentiometry

Run on channel : 2 (SN 12477)
User :
CE vs. WE compliance from -10 V to 10 V
Electrode connection : standard
Potential control : Ewe
Ewe ctrl range : min = -2.50 V, max = 2.50 V
Safety Limits :
	Do not start on E overload
Acquisition started on : 01/30/2023 10:32:13.088
Loaded Setting File :  C:\Users\grupogalan\Documents\EC-Lab\Data\Scott\_cyclic_pause_tafel.mps
Saved on :
	File : 2022_01_30 CoNx 1mg ref309_set1_03_CP_C02.mpr
	Directory : C:\Users\grupogalan\Documents\EC-Lab\Data\Scott\
	Host : 169.254.104.159
Device : VSP (SN 1176)
Address : USB
EC-Lab for windows v11.46 (software)
Internet server v11.40 (firmware)
Command interpretor v11.40 (firmware)
Electrode material :
Initial state :
Electrolyte :
Comments :
Electrode surface area : 0.000 cm²
Characteristic mass : 0.001 g
Equivalent Weight : 0.000 g/eq.
Density : 0.000 g/cm3
Volume (V) : 0.001 cm³
Cycle Definition : Charge/Discharge alternance
Ns                  0                   1                   2                   3                   4                   5                   6                   7                   8                   9                   10                  11                  12
Is                  10.000              18.000              32.000              56.000              100.000             178.000             316.000             562.000             1.000               1.778               3.162               5.623               10.000
unit Is             µA                  µA                  µA                  µA                  µA                  µA                  µA                  µA                  mA                  mA                  mA                  mA                  mA
vs.                 <None>              <None>              <None>              <None>              <None>              <None>              <None>              <None>              <None>              <None>              <None>              <None>              <None>
ts (h:m:s)          0:03:0.0000         0:03:0.0000         0:03:0.0000         0:03:0.0000         0:03:0.0000         0:03:0.0000         0:03:0.0000         0:03:0.0000         0:03:0.0000         0:03:0.0000         0:03:0.0000         0:03:0.0000         0:03:0.0000
EM (V)              pass                pass                pass                pass                pass                pass                pass                pass                pass                pass                pass                pass                pass
dQM                 500.000             900.000             1.600               2.800               5.000               8.900               15.800              28.100              50.000              88.900              158.100             281.150             500.000
unit dQM            nA.h                nA.h                µA.h                µA.h                µA.h                µA.h                µA.h                µA.h                µA.h                µA.h                µA.h                µA.h                µA.h
record              <Ewe>               <Ewe>               <Ewe>               <Ewe>               <Ewe>               <Ewe>               <Ewe>               <Ewe>               <Ewe>               <Ewe>               <Ewe>               <Ewe>               <Ewe>
dEs (mV)            0.00                0.00                0.00                0.00                0.00                0.00                0.00                0.00                0.00                0.00                0.00                0.00                0.00
dts (s)             1.0000              1.0000              1.0000              1.0000              1.0000              1.0000              1.0000              1.0000              1.0000              1.0000              1.0000              1.0000              1.0000
E range min (V)     -2.500              -2.500              -2.500              -2.500              -2.500              -2.500              -2.500              -2.500              -2.500              -2.500              -2.500              -2.500              -2.500
E range max (V)     2.500               2.500               2.500               2.500               2.500               2.500               2.500               2.500               2.500               2.500               2.500               2.500               2.500
I Range             10 mA               10 mA               10 mA               10 mA               10 mA               10 mA               10 mA               10 mA               10 mA               10 mA               10 mA               10 mA               10 mA
Bandwidth           5                   5                   5                   5                   5                   5                   5                   5                   5                   5                   5                   5                   5
goto Ns'            0                   0                   0                   0                   0                   0                   0                   0                   0                   0                   0                   0                   0
nc cycles           0                   0                   0                   0                   0                   0                   0                   0                   0                   0                   0                   0                   0

mode	ox/red	error	control changes	Ns changes	counter inc.	Ns	time/s	control/mA	<Ewe>/V	I/mA	dQ/C	(Q-Qo)/C	half cycle	Q charge/discharge/mA.h	I Range	Energy charge/W.h	Energy discharge/W.h	Capacitance charge/µF	Capacitance discharge/µF	Q discharge/mA.h	Q charge/mA.h	Capacity/mA.h	Efficiency/%	cycle number	P/W
1	1	0	1	0	0	0	1694.54	0.01	-0.131956	0.0115803	1.11053e-05	1.11053e-05	0	3.08481e-06	11	4.07061e-10	0.000000000000000E+000	0.000000000000000E+000	0.000000000000000E+000	0.000000000000000E+000	3.08481e-06	3.08481e-06	0.0000000E+000	0.000000000000000E+000	-1.5281e-06
1	1	0	1	0	0	0	1706.54	0.01	-0.11416	0.0117076	0.000151535	0.000151535	0	4.2093e-05	11	4.93121e-09	0.000000000000000E+000	8515.08	0.000000000000000E+000	0.000000000000000E+000	4.2093e-05	4.2093e-05	0.0000000E+000	0.000000000000000E+000	-1.33654e-06
1	1	0	1	0	0	0	1718.54	0.01	-0.110538	0.0115803	0.00029179	0.00029179	0	8.10527e-05	11	9.29596e-09	0.000000000000000E+000	13623.3	0.000000000000000E+000	0.000000000000000E+000	8.10527e-05	8.10527e-05	0.0000000E+000	0.000000000000000E+000	-1.28006e-06
1	1	0	1	0	0	0	1730.54	0.01	-0.109152	0.0118984	0.000432022	0.000432022	0	0.000120006	11	1.35675e-08	0.000000000000000E+000	18944.8	0.000000000000000E+000	0.000000000000000E+000	0.000120006	0.000120006	0.0000000E+000	0.000000000000000E+000	-1.29874e-06
1	1	0	1	0	0	0	1742.54	0.01	-0.108923	0.0117076	0.000572174	0.000572174	0	0.000158937	11	1.78078e-08	0.000000000000000E+000	24841.3	0.000000000000000E+000	0.000000000000000E+000	0.000158937	0.000158937	0.0000000E+000	0.000000000000000E+000	-1.27522e-06
1	1	0	1	0	0	0	1754.54	0.01	-0.109782	0.0118984	0.000712377	0.000712377	0	0.000197883	11	2.20638e-08	0.000000000000000E+000	32126.3	0.000000000000000E+000	0.000000000000000E+000	0.000197883	0.000197883	0.0000000E+000	0.000000000000000E+000	-1.30623e-06
1	1	0	1	0	0	0	1766.54	0.01	-0.111129	0.0110713	0.000852549	0.000852549	0	0.000236819	11	2.63628e-08	0.000000000000000E+000	40933.9	0.000000000000000E+000	0.000000000000000E+000	0.000236819	0.000236819	0.0000000E+000	0.000000000000000E+000	-1.23034e-06
1	1	0	1	0	0	0	1778.54	0.01	-0.113076	0.0118348	0.000992867	0.000992867	0	0.000275796	11	3.07292e-08	0.000000000000000E+000	52588.3	0.000000000000000E+000	0.000000000000000E+000	0.000275796	0.000275796	0.0000000E+000	0.000000000000000E+000	-1.33824e-06
1	1	0	1	0	0	0	1790.54	0.01	-0.115272	0.0116439	0.0011332	0.0011332	0	0.000314777	11	3.51775e-08	0.000000000000000E+000	67918.1	0.000000000000000E+000	0.000000000000000E+000	0.000314777	0.000314777	0.0000000E+000	0.000000000000000E+000	-1.34222e-06
1	1	0	1	0	0	0	1802.54	0.01	-0.11808	0.0112622	0.00127362	0.00127362	0	0.000353784	11	3.97309e-08	0.000000000000000E+000	91781.2	0.000000000000000E+000	0.000000000000000E+000	0.000353784	0.000353784	0.0000000E+000	0.000000000000000E+000	-1.32983e-06
1	1	0	1	0	0	0	1814.54	0.01	-0.120945	0.0115803	0.00141383	0.00141383	0	0.000392731	11	4.43871e-08	0.000000000000000E+000	128397	0.000000000000000E+000	0.000000000000000E+000	0.000392731	0.000392731	0.0000000E+000	0.000000000000000E+000	-1.40058e-06
1	1	0	1	0	0	0	1826.54	0.01	-0.124076	0.0113894	0.00155399	0.00155399	0	0.000431663	11	4.91607e-08	0.000000000000000E+000	197186	0.000000000000000E+000	0.000000000000000E+000	0.000431663	0.000431663	0.0000000E+000	0.000000000000000E+000	-1.41315e-06
1	1	0	1	0	0	0	1838.54	0.01	-0.127499	0.0113894	0.00169399	0.00169399	0	0.000470552	11	5.40552e-08	0.000000000000000E+000	380029	0.000000000000000E+000	0.000000000000000E+000	0.000470552	0.000470552	0.0000000E+000	0.000000000000000E+000	-1.45214e-06
1	1	0	1	0	0	0	1850.54	0.01	-0.131096	0.0115167	0.00183402	0.00183402	0	0.000509451	11	5.90865e-08	0.000000000000000E+000	2.13161e+06	0.000000000000000E+000	0.000000000000000E+000	0.000509451	0.000509451	0.0000000E+000	0.000000000000000E+000	-1.50979e-06
1	1	0	1	0	0	0	1862.54	0.01	-0.13475	0.0110077	0.00197404	0.00197404	0	0.000548343	11	6.42595e-08	0.000000000000000E+000	706546	0.000000000000000E+000	0.000000000000000E+000	0.000548343	0.000548343	0.0000000E+000	0.000000000000000E+000	-1.48329e-06
1	1	0	1	0	0	0	1873.59	0.01	-0.138308	0.0115803	0.00210311	0.00210311	0	0.000584197	11	6.91562e-08	0.000000000000000E+000	331106	0.000000000000000E+000	0.000000000000000E+000	0.000584197	0.000584197	0.0000000E+000	0.000000000000000E+000	-1.60165e-06
1	1	0	0	0	0	1	1885.59	0.018	-0.100036	0.0190244	0.000228629	0.00233174	0	0.000647705	11	7.5716e-08	0.000000000000000E+000	73047.5	0.000000000000000E+000	0.000000000000000E+000	0.000647705	0.000647705	0.0000000E+000	0.000000000000000E+000	-1.90312e-06
1	1	0	0	0	0	1	1897.59	0.018	-0.0935624	0.0189608	0.000457235	0.00256034	0	0.000711206	11	8.1843e-08	0.000000000000000E+000	66686	0.000000000000000E+000	0.000000000000000E+000	0.000711206	0.000711206	0.0000000E+000	0.000000000000000E+000	-1.77402e-06
1	1	0	0	0	0	1	1909.59	0.018	-0.0882375	0.0194062	0.000686007	0.00278911	0	0.000774754	11	8.76004e-08	0.000000000000000E+000	63796.6	0.000000000000000E+000	0.000000000000000E+000	0.000774754	0.000774754	0.0000000E+000	0.000000000000000E+000	-1.71235e-06
1	1	0	0	0	0	1	1921.59	0.018	-0.0837547	0.0187063	0.000914809	0.00301792	0	0.00083831	11	9.30473e-08	0.000000000000000E+000	62610.2	0.000000000000000E+000	0.000000000000000E+000	0.00083831	0.00083831	0.0000000E+000	0.000000000000000E+000	-1.56674e-06
1	1	0	0	0	0	1	1933.59	0.018	-0.0798547	0.0195971	0.00114378	0.00324688	0	0.000901912	11	9.82355e-08	0.000000000000000E+000	62318.2	0.000000000000000E+000	0.000000000000000E+000	0.000901912	0.000901912	0.0000000E+000	0.000000000000000E+000	-1.56492e-06
1	1	0	0	0	0	1	1945.59	0.018	-0.0766714	0.01877	0.00137257	0.00347568	0	0.000965466	11	1.03195e-07	0.000000000000000E+000	62868.3	0.000000000000000E+000	0.000000000000000E+000	0.000965466	0.000965466	0.0000000E+000	0.000000000000000E+000	-1.43912e-06
1	1	0	0	0	0	1	1957.59	0.018	-0.0736587	0.0186427	0.00160119	0.0037043	0	0.00102897	11	1.07954e-07	0.000000000000000E+000	63541	0.000000000000000E+000	0.000000000000000E+000	0.00102897	0.00102897	0.0000000E+000	0.000000000000000E+000	-1.3732e-06
1	1	0	0	0	0	1	1969.59	0.018	-0.0710118	0.0190881	0.00182993	0.00393304	0	0.00109251	11	1.12541e-07	0.000000000000000E+000	64534.7	0.000000000000000E+000	0.000000000000000E+000	0.00109251	0.00109251	0.0000000E+000	0.000000000000000E+000	-1.35548e-06
1	1	0	0	0	0	1	1981.59	0.018	-0.068737	0.0189608	0.0020588	0.00416191	0	0.00115609	11	1.16975e-07	0.000000000000000E+000	65832.8	0.000000000000000E+000	0.000000000000000E+000	0.00115609	0.00115609	0.0000000E+000	0.000000000000000E+000	-1.30331e-06
1	1	0	0	0	0	1	1993.59	0.018	-0.0667226	0.0194062	0.00228756	0.00439067	0	0.00121963	11	1.21275e-07	0.000000000000000E+000	67306.7	0.000000000000000E+000	0.000000000000000E+000	0.00121963	0.00121963	0.0000000E+000	0.000000000000000E+000	-1.29483e-06
1	1	0	0	0	0	1	2005.59	0.018	-0.0646958	0.0187063	0.00251661	0.00461972	0	0.00128326	11	1.25449e-07	0.000000000000000E+000	68684	0.000000000000000E+000	0.000000000000000E+000	0.00128326	0.00128326	0.0000000E+000	0.000000000000000E+000	-1.21022e-06
1	1	0	0	0	0	1	2017.59	0.018	-0.0631304	0.0191517	0.00274562	0.00484872	0	0.00134687	11	1.29515e-07	0.000000000000000E+000	70449	0.000000000000000E+000	0.000000000000000E+000	0.00134687	0.00134687	0.0000000E+000	0.000000000000000E+000	-1.20905e-06
1	1	0	0	0	0	1	2029.59	0.018	-0.0617319	0.0190244	0.00297441	0.00507752	0	0.00141042	11	1.3348e-07	0.000000000000000E+000	72304.1	0.000000000000000E+000	0.000000000000000E+000	0.00141042	0.00141042	0.0000000E+000	0.000000000000000E+000	-1.17441e-06
1	1	0	0	0	0	1	2041.59	0.018	-0.0604477	0.0185154	0.00320322	0.00530633	0	0.00147398	11	1.37357e-07	0.000000000000000E+000	74205.4	0.000000000000000E+000	0.000000000000000E+000	0.00147398	0.00147398	0.0000000E+000	0.000000000000000E+000	-1.11922e-06
1	1	0	0	0	0	1	2053.59	0.018	-0.059325	0.0184518	0.00343203	0.00553514	0	0.00153754	11	1.41153e-07	0.000000000000000E+000	76208.7	0.000000000000000E+000	0.000000000000000E+000	0.00153754	0.00153754	0.0000000E+000	0.000000000000000E+000	-1.09465e-06
1	1	0	1	0	0	2	2064.59	0.032	0.00419305	0.0341672	0.000365634	0.00590078	0	0.00163911	11	1.41764e-07	0.000000000000000E+000	43340.5	0.000000000000000E+000	0.000000000000000E+000	0.00163911	0.00163911	0.0000000E+000	0.000000000000000E+000	1.43265e-07
1	1	0	1	0	0	2	2076.59	0.032	0.025045	0.0325766	0.000764291	0.00629944	0	0.00174984	11	1.43499e-07	0.000000000000000E+000	40123.4	0.000000000000000E+000	0.000000000000000E+000	0.00174984	0.00174984	0.0000000E+000	0.000000000000000E+000	8.15882e-07
1	1	0	1	0	0	2	2088.59	0.032	0.0441252	0.0325766	0.001163	0.00669815	0	0.0018606	11	1.47428e-07	0.000000000000000E+000	38040	0.000000000000000E+000	0.000000000000000E+000	0.0018606	0.0018606	0.0000000E+000	0.000000000000000E+000	1.43745e-06
1	1	0	1	0	0	2	2100.59	0.032	0.0611787	0.0336582	0.00156172	0.00709687	0	0.00197135	11	1.53345e-07	0.000000000000000E+000	36745.6	0.000000000000000E+000	0.000000000000000E+000	0.00197135	0.00197135	0.0000000E+000	0.000000000000000E+000	2.05917e-06
1	1	0	1	0	0	2	2112.59	0.032	0.0768262	0.033022	0.00196033	0.00749548	0	0.00208208	11	1.61069e-07	0.000000000000000E+000	35900.9	0.000000000000000E+000	0.000000000000000E+000	0.00208208	0.00208208	0.0000000E+000	0.000000000000000E+000	2.53695e-06
1	1	0	1	0	0	2	2124.59	0.032	0.0916701	0.0334674	0.00235892	0.00789407	0	0.0021928	11	1.70476e-07	0.000000000000000E+000	35300.3	0.000000000000000E+000	0.000000000000000E+000	0.0021928	0.0021928	0.0000000E+000	0.000000000000000E+000	3.06796e-06
1	1	0	1	0	0	2	2136.59	0.032	0.105345	0.033531	0.00275751	0.00829265	0	0.00230351	11	1.81453e-07	0.000000000000000E+000	34945.7	0.000000000000000E+000	0.000000000000000E+000	0.00230351	0.00230351	0.0000000E+000	0.000000000000000E+000	3.53232e-06
1	1	0	1	0	0	2	2148.59	0.032	0.118075	0.033531	0.00315596	0.0086911	0	0.00241419	11	1.93884e-07	0.000000000000000E+000	34760.1	0.000000000000000E+000	0.000000000000000E+000	0.00241419	0.00241419	0.0000000E+000	0.000000000000000E+000	3.95916e-06
1	1	0	1	0	0	2	2160.59	0.032	0.130102	0.0328311	0.00355446	0.00908961	0	0.00252489	11	2.07685e-07	0.000000000000000E+000	34685.4	0.000000000000000E+000	0.000000000000000E+000	0.00252489	0.00252489	0.0000000E+000	0.000000000000000E+000	4.27139e-06
1	1	0	1	0	0	2	2172.59	0.032	0.141373	0.0328947	0.00395279	0.00948794	0	0.00263554	11	2.22754e-07	0.000000000000000E+000	34712.4	0.000000000000000E+000	0.000000000000000E+000	0.00263554	0.00263554	0.0000000E+000	0.000000000000000E+000	4.65044e-06
1	1	0	1	0	0	2	2184.59	0.032	0.151697	0.0334674	0.00435119	0.00988633	0	0.0027462	11	2.3902e-07	0.000000000000000E+000	34853.5	0.000000000000000E+000	0.000000000000000E+000	0.0027462	0.0027462	0.0000000E+000	0.000000000000000E+000	5.07691e-06
1	1	0	1	0	0	2	2196.59	0.032	0.161572	0.0329584	0.00474986	0.010285	0	0.00285695	11	2.56426e-07	0.000000000000000E+000	35039.2	0.000000000000000E+000	0.000000000000000E+000	0.00285695	0.00285695	0.0000000E+000	0.000000000000000E+000	5.32514e-06
1	1	0	1	0	0	2	2208.59	0.032	0.17071	0.0333401	0.00514843	0.0106836	0	0.00296766	11	2.74869e-07	0.000000000000000E+000	35298.1	0.000000000000000E+000	0.000000000000000E+000	0.00296766	0.00296766	0.0000000E+000	0.000000000000000E+000	5.6915e-06
1	1	0	1	0	0	2	2220.59	0.032	0.17932	0.0331492	0.00554684	0.011082	0	0.00307833	11	2.94279e-07	0.000000000000000E+000	35601.8	0.000000000000000E+000	0.000000000000000E+000	0.00307833	0.00307833	0.0000000E+000	0.000000000000000E+000	5.94431e-06
1	1	0	1	0	0	2	2232.59	0.032	0.187201	0.0328311	0.00594538	0.0114805	0	0.00318904	11	3.14607e-07	0.000000000000000E+000	35971.4	0.000000000000000E+000	0.000000000000000E+000	0.00318904	0.00318904	0.0000000E+000	0.000000000000000E+000	6.146e-06
1	1	0	0	0	0	3	2243.59	0.056	0.26298	0.0580903	0.000576269	0.01209	0	0.00335834	11	3.56591e-07	0.000000000000000E+000	30612.6	0.000000000000000E+000	0.000000000000000E+000	0.00335834	0.00335834	0.0000000E+000	0.000000000000000E+000	1.52766e-05
1	1	0	0	0	0	3	2255.59	0.056	0.29025	0.0585357	0.00126781	0.0127816	0	0.00355043	11	4.10066e-07	0.000000000000000E+000	30273.2	0.000000000000000E+000	0.000000000000000E+000	0.00355043	0.00355043	0.0000000E+000	0.000000000000000E+000	1.699e-05
1	1	0	0	0	0	3	2267.59	0.056	0.311445	0.0577085	0.00195944	0.0134732	0	0.00374255	11	4.6812e-07	0.000000000000000E+000	30386	0.000000000000000E+000	0.000000000000000E+000	0.00374255	0.00374255	0.0000000E+000	0.000000000000000E+000	1.7973e-05
1	1	0	0	0	0	3	2279.59	0.056	0.328017	0.0575177	0.00265109	0.0141648	0	0.00393468	11	5.29747e-07	0.000000000000000E+000	30794.9	0.000000000000000E+000	0.000000000000000E+000	0.00393468	0.00393468	0.0000000E+000	0.000000000000000E+000	1.88668e-05
1	1	0	0	0	0	3	2291.59	0.056	0.341272	0.057454	0.00334267	0.0148564	0	0.00412678	11	5.94196e-07	0.000000000000000E+000	31393.8	0.000000000000000E+000	0.000000000000000E+000	0.00412678	0.00412678	0.0000000E+000	0.000000000000000E+000	1.96075e-05
1	1	0	0	0	0	3	2303.59	0.056	0.352124	0.0581539	0.0040342	0.015548	0	0.00431888	11	6.60931e-07	0.000000000000000E+000	32118.5	0.000000000000000E+000	0.000000000000000E+000	0.00431888	0.00431888	0.0000000E+000	0.000000000000000E+000	2.04774e-05
1	1	0	0	0	0	3	2315.59	0.056	0.361167	0.0578358	0.00472571	0.0162395	0	0.00451096	11	7.29539e-07	0.000000000000000E+000	32931.8	0.000000000000000E+000	0.000000000000000E+000	0.00451096	0.00451096	0.0000000E+000	0.000000000000000E+000	2.08884e-05
1	1	0	0	0	0	3	2327.59	0.056	0.368724	0.0576449	0.00541716	0.0169309	0	0.00470303	11	7.99719e-07	0.000000000000000E+000	33815.8	0.000000000000000E+000	0.000000000000000E+000	0.00470303	0.00470303	0.0000000E+000	0.000000000000000E+000	2.12551e-05
1	1	0	0	0	0	3	2339.59	0.056	0.375273	0.0576449	0.00610865	0.0176224	0	0.00489511	11	8.71246e-07	0.000000000000000E+000	34742.4	0.000000000000000E+000	0.000000000000000E+000	0.00489511	0.00489511	0.0000000E+000	0.000000000000000E+000	2.16326e-05
1	1	0	0	0	0	3	2351.59	0.056	0.381015	0.058472	0.00680013	0.0183139	0	0.00508719	11	9.43942e-07	0.000000000000000E+000	35701.5	0.000000000000000E+000	0.000000000000000E+000	0.00508719	0.00508719	0.0000000E+000	0.000000000000000E+000	2.22788e-05
1	1	0	0	0	0	3	2363.59	0.056	0.386077	0.0575813	0.00749154	0.0190053	0	0.00527925	11	1.01765e-06	0.000000000000000E+000	36687.4	0.000000000000000E+000	0.000000000000000E+000	0.00527925	0.00527925	0.0000000E+000	0.000000000000000E+000	2.22308e-05
1	1	0	0	0	0	3	2375.59	0.056	0.390599	0.0578994	0.008183	0.0196967	0	0.00547132	11	1.09229e-06	0.000000000000000E+000	37693.1	0.000000000000000E+000	0.000000000000000E+000	0.00547132	0.00547132	0.0000000E+000	0.000000000000000E+000	2.26155e-05
1	1	0	0	0	0	3	2387.59	0.056	0.394782	0.0583448	0.00887459	0.0203883	0	0.00566343	11	1.16778e-06	0.000000000000000E+000	38706.8	0.000000000000000E+000	0.000000000000000E+000	0.00566343	0.00566343	0.0000000E+000	0.000000000000000E+000	2.30335e-05
1	1	0	0	0	0	3	2399.59	0.056	0.398567	0.0573904	0.00956608	0.0210798	0	0.00585551	11	1.244e-06	0.000000000000000E+000	39734	0.000000000000000E+000	0.000000000000000E+000	0.00585551	0.00585551	0.0000000E+000	0.000000000000000E+000	2.28739e-05
1	1	0	0	0	0	3	2411.59	0.056	0.402171	0.0576449	0.0102576	0.0217713	0	0.0060476	11	1.32094e-06	0.000000000000000E+000	40760.6	0.000000000000000E+000	0.000000000000000E+000	0.0060476	0.0060476	0.0000000E+000	0.000000000000000E+000	2.31831e-05
1	1	0	1	0	0	4	2422.59	0.1	0.467864	0.101292	0.000913042	0.0227997	0	0.00633324	11	1.45104e-06	0.000000000000000E+000	38010.8	0.000000000000000E+000	0.000000000000000E+000	0.00633324	0.00633324	0.0000000E+000	0.000000000000000E+000	4.73908e-05
1	1	0	1	0	0	4	2434.59	0.1	0.480708	0.101228	0.00213041	0.024017	0	0.0066714	11	1.61174e-06	0.000000000000000E+000	39201	0.000000000000000E+000	0.000000000000000E+000	0.0066714	0.0066714	0.0000000E+000	0.000000000000000E+000	4.86611e-05
1	1	0	1	0	0	4	2446.59	0.1	0.490432	0.10091	0.00334783	0.0252344	0	0.00700957	11	1.77615e-06	0.000000000000000E+000	40544.5	0.000000000000000E+000	0.000000000000000E+000	0.00700957	0.00700957	0.0000000E+000	0.000000000000000E+000	4.94895e-05
1	1	0	1	0	0	4	2458.59	0.1	0.498172	0.101101	0.00456521	0.0264518	0	0.00734773	11	1.94345e-06	0.000000000000000E+000	41978.5	0.000000000000000E+000	0.000000000000000E+000	0.00734773	0.00734773	0.0000000E+000	0.000000000000000E+000	5.03656e-05
1	1	0	1	0	0	4	2470.59	0.1	0.504953	0.10091	0.00578292	0.0276695	0	0.00768598	11	2.11325e-06	0.000000000000000E+000	43443.4	0.000000000000000E+000	0.000000000000000E+000	0.00768598	0.00768598	0.0000000E+000	0.000000000000000E+000	5.09548e-05
1	1	0	1	0	0	4	2482.59	0.1	0.511061	0.101419	0.00700045	0.0288871	0	0.00802418	11	2.28516e-06	0.000000000000000E+000	44924.2	0.000000000000000E+000	0.000000000000000E+000	0.00802418	0.00802418	0.0000000E+000	0.000000000000000E+000	5.18313e-05
1	1	0	1	0	0	4	2494.59	0.1	0.516581	0.101101	0.0082179	0.0301045	0	0.00836236	11	2.45902e-06	0.000000000000000E+000	46419.1	0.000000000000000E+000	0.000000000000000E+000	0.00836236	0.00836236	0.0000000E+000	0.000000000000000E+000	5.22268e-05
1	1	0	1	0	0	4	2506.59	0.1	0.521881	0.101801	0.00943539	0.031322	0	0.00870056	11	2.63472e-06	0.000000000000000E+000	47904.9	0.000000000000000E+000	0.000000000000000E+000	0.00870056	0.00870056	0.0000000E+000	0.000000000000000E+000	5.31279e-05
1	1	0	1	0	0	4	2518.59	0.1	0.526818	0.101292	0.0106529	0.0325395	0	0.00903875	11	2.81212e-06	0.000000000000000E+000	49394	0.000000000000000E+000	0.000000000000000E+000	0.00903875	0.00903875	0.0000000E+000	0.000000000000000E+000	5.33623e-05
1	1	0	1	0	0	4	2530.59	0.1	0.531535	0.10161	0.0118705	0.0337572	0	0.00937699	11	2.99118e-06	0.000000000000000E+000	50878.1	0.000000000000000E+000	0.000000000000000E+000	0.00937699	0.00937699	0.0000000E+000	0.000000000000000E+000	5.40092e-05
1	1	0	1	0	0	4	2542.59	0.1	0.536108	0.100783	0.0130881	0.0349747	0	0.0097152	11	3.1718e-06	0.000000000000000E+000	52352.3	0.000000000000000E+000	0.000000000000000E+000	0.0097152	0.0097152	0.0000000E+000	0.000000000000000E+000	5.40304e-05
1	1	0	1	0	0	4	2554.59	0.1	0.540545	0.101864	0.0143057	0.0361923	0	0.0100534	11	3.35393e-06	0.000000000000000E+000	53817.5	0.000000000000000E+000	0.000000000000000E+000	0.0100534	0.0100534	0.0000000E+000	0.000000000000000E+000	5.50623e-05
1	1	0	1	0	0	4	2566.59	0.1	0.544755	0.101355	0.0155233	0.0374099	0	0.0103916	11	3.53752e-06	0.000000000000000E+000	55281.9	0.000000000000000E+000	0.000000000000000E+000	0.0103916	0.0103916	0.0000000E+000	0.000000000000000E+000	5.52139e-05
1	1	0	1	0	0	4	2578.59	0.1	0.548755	0.101037	0.0167408	0.0386274	0	0.0107298	11	3.72249e-06	0.000000000000000E+000	56745.7	0.000000000000000E+000	0.000000000000000E+000	0.0107298	0.0107298	0.0000000E+000	0.000000000000000E+000	5.54447e-05
1	1	0	1	0	0	4	2590.59	0.1	0.552759	0.101864	0.0179583	0.0398449	0	0.011068	11	3.90881e-06	0.000000000000000E+000	58191.9	0.000000000000000E+000	0.000000000000000E+000	0.011068	0.011068	0.0000000E+000	0.000000000000000E+000	5.63065e-05
1	1	0	0	0	0	5	2601.59	0.178	0.608324	0.180123	0.00143432	0.0415836	0	0.011551	11	4.196e-06	0.000000000000000E+000	56172.8	0.000000000000000E+000	0.000000000000000E+000	0.011551	0.011551	0.0000000E+000	0.000000000000000E+000	0.000109573
1	1	0	0	0	0	5	2613.59	0.178	0.617451	0.180187	0.00358609	0.0437354	0	0.0121487	11	4.56278e-06	0.000000000000000E+000	58360	0.000000000000000E+000	0.000000000000000E+000	0.0121487	0.0121487	0.0000000E+000	0.000000000000000E+000	0.000111257
1	1	0	0	0	0	5	2625.59	0.178	0.62395	0.178978	0.00573771	0.045887	0	0.0127464	11	4.93399e-06	0.000000000000000E+000	60704.6	0.000000000000000E+000	0.000000000000000E+000	0.0127464	0.0127464	0.0000000E+000	0.000000000000000E+000	0.000111673
1	1	0	0	0	0	5	2637.59	0.178	0.628947	0.178342	0.00788929	0.0480386	0	0.0133441	11	5.30855e-06	0.000000000000000E+000	63133.6	0.000000000000000E+000	0.000000000000000E+000	0.0133441	0.0133441	0.0000000E+000	0.000000000000000E+000	0.000112168
1	1	0	0	0	0	5	2649.59	0.178	0.632949	0.179614	0.0100408	0.0501902	0	0.0139417	11	5.68577e-06	0.000000000000000E+000	65616.1	0.000000000000000E+000	0.000000000000000E+000	0.0139417	0.0139417	0.0000000E+000	0.000000000000000E+000	0.000113687
1	1	0	0	0	0	5	2661.59	0.178	0.636499	0.179169	0.0121924	0.0523417	0	0.0145394	11	6.06523e-06	0.000000000000000E+000	68112.9	0.000000000000000E+000	0.000000000000000E+000	0.0145394	0.0145394	0.0000000E+000	0.000000000000000E+000	0.000114041
1	1	0	0	0	0	5	2673.59	0.178	0.639305	0.179487	0.014344	0.0544933	0	0.015137	11	6.44655e-06	0.000000000000000E+000	70654.8	0.000000000000000E+000	0.000000000000000E+000	0.015137	0.015137	0.0000000E+000	0.000000000000000E+000	0.000114747
1	1	0	0	0	0	5	2685.59	0.178	0.641886	0.179233	0.0164956	0.0566449	0	0.0157347	11	6.82951e-06	0.000000000000000E+000	73199.6	0.000000000000000E+000	0.000000000000000E+000	0.0157347	0.0157347	0.0000000E+000	0.000000000000000E+000	0.000115047
1	1	0	0	0	0	5	2697.59	0.178	0.644106	0.179169	0.0186471	0.0587965	0	0.0163323	11	7.2139e-06	0.000000000000000E+000	75762.5	0.000000000000000E+000	0.000000000000000E+000	0.0163323	0.0163323	0.0000000E+000	0.000000000000000E+000	0.000115404
1	1	0	0	0	0	5	2709.59	0.178	0.646147	0.179678	0.0207985	0.0609478	0	0.0169299	11	7.59947e-06	0.000000000000000E+000	78328.7	0.000000000000000E+000	0.000000000000000E+000	0.0169299	0.0169299	0.0000000E+000	0.000000000000000E+000	0.000116098
1	1	0	0	0	0	5	2721.59	0.178	0.647888	0.179932	0.0229499	0.0630992	0	0.0175276	11	7.98617e-06	0.000000000000000E+000	80912.6	0.000000000000000E+000	0.000000000000000E+000	0.0175276	0.0175276	0.0000000E+000	0.000000000000000E+000	0.000116576
1	1	0	0	0	0	5	2733.59	0.178	0.64944	0.179042	0.0251015	0.0652508	0	0.0181252	11	8.37392e-06	0.000000000000000E+000	83505.4	0.000000000000000E+000	0.000000000000000E+000	0.0181252	0.0181252	0.0000000E+000	0.000000000000000E+000	0.000116277
1	1	0	0	0	0	5	2745.59	0.178	0.650927	0.178596	0.0272534	0.0674027	0	0.018723	11	8.7626e-06	0.000000000000000E+000	86095.6	0.000000000000000E+000	0.000000000000000E+000	0.018723	0.018723	0.0000000E+000	0.000000000000000E+000	0.000116253
1	1	0	0	0	0	5	2757.59	0.178	0.652126	0.179423	0.029405	0.0695543	0	0.0193206	11	9.15201e-06	0.000000000000000E+000	88707.9	0.000000000000000E+000	0.000000000000000E+000	0.0193206	0.0193206	0.0000000E+000	0.000000000000000E+000	0.000117007
1	1	0	0	0	0	5	2769.59	0.178	0.653284	0.179742	0.0315566	0.0717059	0	0.0199183	11	9.54217e-06	0.000000000000000E+000	91317.1	0.000000000000000E+000	0.000000000000000E+000	0.0199183	0.0199183	0.0000000E+000	0.000000000000000E+000	0.000117422
1	1	0	1	0	0	6	2780.59	0.316	0.696774	0.317363	0.00222199	0.0746451	0	0.0207348	11	1.01018e-05	0.000000000000000E+000	90071.7	0.000000000000000E+000	0.000000000000000E+000	0.0207348	0.0207348	0.0000000E+000	0.000000000000000E+000	0.00022113
1	1	0	1	0	0	6	2792.59	0.316	0.698684	0.317299	0.00603109	0.0784542	0	0.0217928	11	1.08403e-05	0.000000000000000E+000	94450.3	0.000000000000000E+000	0.000000000000000E+000	0.0217928	0.0217928	0.0000000E+000	0.000000000000000E+000	0.000221692
1	1	0	1	0	0	6	2804.59	0.316	0.700167	0.317808	0.00984005	0.0822632	0	0.0228509	11	1.15803e-05	0.000000000000000E+000	98859.3	0.000000000000000E+000	0.000000000000000E+000	0.0228509	0.0228509	0.0000000E+000	0.000000000000000E+000	0.000222519
1	1	0	1	0	0	6	2816.59	0.316	0.701299	0.316981	0.0136491	0.0860722	0	0.0239089	11	1.23218e-05	0.000000000000000E+000	103296	0.000000000000000E+000	0.000000000000000E+000	0.0239089	0.0239089	0.0000000E+000	0.000000000000000E+000	0.000222298
1	1	0	1	0	0	6	2828.59	0.316	0.702194	0.317554	0.0174581	0.0898812	0	0.024967	11	1.30643e-05	0.000000000000000E+000	107752	0.000000000000000E+000	0.000000000000000E+000	0.024967	0.024967	0.0000000E+000	0.000000000000000E+000	0.000222984
1	1	0	1	0	0	6	2840.59	0.316	0.702975	0.317745	0.021267	0.0936902	0	0.026025	11	1.38077e-05	0.000000000000000E+000	112213	0.000000000000000E+000	0.000000000000000E+000	0.026025	0.026025	0.0000000E+000	0.000000000000000E+000	0.000223366
1	1	0	1	0	0	6	2852.59	0.316	0.703733	0.317681	0.025076	0.0974991	0	0.0270831	11	1.45519e-05	0.000000000000000E+000	116669	0.000000000000000E+000	0.000000000000000E+000	0.0270831	0.0270831	0.0000000E+000	0.000000000000000E+000	0.000223563
1	1	0	1	0	0	6	2864.59	0.316	0.704233	0.317808	0.028885	0.101308	0	0.0281411	11	1.52968e-05	0.000000000000000E+000	121154	0.000000000000000E+000	0.000000000000000E+000	0.0281411	0.0281411	0.0000000E+000	0.000000000000000E+000	0.000223811
1	1	0	1	0	0	6	2876.59	0.316	0.704858	0.317554	0.032694	0.105117	0	0.0291992	11	1.60423e-05	0.000000000000000E+000	125616	0.000000000000000E+000	0.000000000000000E+000	0.0291992	0.0291992	0.0000000E+000	0.000000000000000E+000	0.00022383
1	1	0	1	0	0	6	2888.59	0.316	0.705461	0.317935	0.036503	0.108926	0	0.0302573	11	1.67884e-05	0.000000000000000E+000	130074	0.000000000000000E+000	0.000000000000000E+000	0.0302573	0.0302573	0.0000000E+000	0.000000000000000E+000	0.000224291
1	1	0	1	0	0	6	2900.59	0.316	0.705812	0.317108	0.040312	0.112735	0	0.0313153	11	1.7535e-05	0.000000000000000E+000	134566	0.000000000000000E+000	0.000000000000000E+000	0.0313153	0.0313153	0.0000000E+000	0.000000000000000E+000	0.000223819
1	1	0	1	0	0	6	2912.59	0.316	0.70632	0.316727	0.0441209	0.116544	0	0.0323733	11	1.82821e-05	0.000000000000000E+000	139028	0.000000000000000E+000	0.000000000000000E+000	0.0323733	0.0323733	0.0000000E+000	0.000000000000000E+000	0.00022371
1	1	0	1	0	0	6	2924.59	0.316	0.706826	0.317045	0.0479298	0.120353	0	0.0334314	11	1.90297e-05	0.000000000000000E+000	143485	0.000000000000000E+000	0.000000000000000E+000	0.0334314	0.0334314	0.0000000E+000	0.000000000000000E+000	0.000224096
1	1	0	1	0	0	6	2936.59	0.316	0.707103	0.317617	0.0517389	0.124162	0	0.0344895	11	1.97777e-05	0.000000000000000E+000	147978	0.000000000000000E+000	0.000000000000000E+000	0.0344895	0.0344895	0.0000000E+000	0.000000000000000E+000	0.000224588
1	1	0	1	0	0	6	2948.59	0.316	0.70765	0.317236	0.0555479	0.127971	0	0.0355475	11	2.05262e-05	0.000000000000000E+000	152418	0.000000000000000E+000	0.000000000000000E+000	0.0355475	0.0355475	0.0000000E+000	0.000000000000000E+000	0.000224492
1	1	0	0	0	0	7	2959.59	0.562	0.74818	0.563847	0.00338146	0.13294	0	0.0369277	11	2.15403e-05	0.000000000000000E+000	151044	0.000000000000000E+000	0.000000000000000E+000	0.0369277	0.0369277	0.0000000E+000	0.000000000000000E+000	0.000421859
1	1	0	0	0	0	7	2971.59	0.562	0.74918	0.563147	0.0101444	0.139703	0	0.0388063	11	2.29469e-05	0.000000000000000E+000	158548	0.000000000000000E+000	0.000000000000000E+000	0.0388063	0.0388063	0.0000000E+000	0.000000000000000E+000	0.000421898
1	1	0	0	0	0	7	2983.59	0.562	0.749936	0.56391	0.0169072	0.146465	0	0.0406848	11	2.43551e-05	0.000000000000000E+000	166081	0.000000000000000E+000	0.000000000000000E+000	0.0406848	0.0406848	0.0000000E+000	0.000000000000000E+000	0.000422897
1	1	0	0	0	0	7	2995.59	0.562	0.750759	0.563719	0.0236701	0.153228	0	0.0425634	11	2.57647e-05	0.000000000000000E+000	173587	0.000000000000000E+000	0.000000000000000E+000	0.0425634	0.0425634	0.0000000E+000	0.000000000000000E+000	0.000423218
1	1	0	0	0	0	7	3007.59	0.562	0.751414	0.563847	0.030433	0.159991	0	0.044442	11	2.71757e-05	0.000000000000000E+000	181115	0.000000000000000E+000	0.000000000000000E+000	0.044442	0.044442	0.0000000E+000	0.000000000000000E+000	0.000423682
1	1	0	0	0	0	7	3019.59	0.562	0.752256	0.56391	0.0371957	0.166754	0	0.0463205	11	2.85882e-05	0.000000000000000E+000	188590	0.000000000000000E+000	0.000000000000000E+000	0.0463205	0.0463205	0.0000000E+000	0.000000000000000E+000	0.000424205
1	1	0	0	0	0	7	3031.59	0.562	0.752902	0.563465	0.0439585	0.173517	0	0.0481991	11	3.0002e-05	0.000000000000000E+000	196095	0.000000000000000E+000	0.000000000000000E+000	0.0481991	0.0481991	0.0000000E+000	0.000000000000000E+000	0.000424234
1	1	0	0	0	0	7	3043.59	0.562	0.753118	0.563783	0.0507214	0.18028	0	0.0500777	11	3.14166e-05	0.000000000000000E+000	203689	0.000000000000000E+000	0.000000000000000E+000	0.0500777	0.0500777	0.0000000E+000	0.000000000000000E+000	0.000424595
1	1	0	0	0	0	7	3055.59	0.562	0.753738	0.563401	0.0574842	0.187042	0	0.0519562	11	3.28321e-05	0.000000000000000E+000	211182	0.000000000000000E+000	0.000000000000000E+000	0.0519562	0.0519562	0.0000000E+000	0.000000000000000E+000	0.000424657
1	1	0	0	0	0	7	3067.59	0.562	0.754069	0.563274	0.0642469	0.193805	0	0.0538348	11	3.42482e-05	0.000000000000000E+000	218735	0.000000000000000E+000	0.000000000000000E+000	0.0538348	0.0538348	0.0000000E+000	0.000000000000000E+000	0.000424748
1	1	0	0	0	0	7	3079.59	0.562	0.754396	0.562956	0.0710098	0.200568	0	0.0557133	11	3.56651e-05	0.000000000000000E+000	226285	0.000000000000000E+000	0.000000000000000E+000	0.0557133	0.0557133	0.0000000E+000	0.000000000000000E+000	0.000424691
1	1	0	0	0	0	7	3091.59	0.562	0.75499	0.56321	0.0777725	0.207331	0	0.0575919	11	3.70828e-05	0.000000000000000E+000	233758	0.000000000000000E+000	0.000000000000000E+000	0.0575919	0.0575919	0.0000000E+000	0.000000000000000E+000	0.000425218
1	1	0	0	0	0	7	3103.59	0.562	0.755252	0.563401	0.0845351	0.214093	0	0.0594704	11	3.85012e-05	0.000000000000000E+000	241311	0.000000000000000E+000	0.000000000000000E+000	0.0594704	0.0594704	0.0000000E+000	0.000000000000000E+000	0.00042551
1	1	0	0	0	0	7	3115.59	0.562	0.755672	0.563338	0.0912977	0.220856	0	0.0613489	11	3.99204e-05	0.000000000000000E+000	248816	0.000000000000000E+000	0.000000000000000E+000	0.0613489	0.0613489	0.0000000E+000	0.000000000000000E+000	0.000425699
1	1	0	0	0	0	7	3127.59	0.562	0.756231	0.562701	0.0980606	0.227619	0	0.0632274	11	4.13406e-05	0.000000000000000E+000	256273	0.000000000000000E+000	0.000000000000000E+000	0.0632274	0.0632274	0.0000000E+000	0.000000000000000E+000	0.000425532
1	1	0	1	0	0	8	3138.59	1	0.797203	1.0007	0.00500671	0.236007	0	0.0655575	11	4.31586e-05	0.000000000000000E+000	254001	0.000000000000000E+000	0.000000000000000E+000	0.0655575	0.0655575	0.0000000E+000	0.000000000000000E+000	0.000797759
1	1	0	1	0	0	8	3150.59	1	0.799104	1.00216	0.017023	0.248023	0	0.0688954	11	4.58225e-05	0.000000000000000E+000	266388	0.000000000000000E+000	0.000000000000000E+000	0.0688954	0.0688954	0.0000000E+000	0.000000000000000E+000	0.00080083
1	1	0	1	0	0	8	3162.59	1	0.800111	1.00184	0.0290393	0.26004	0	0.0722332	11	4.84914e-05	0.000000000000000E+000	278992	0.000000000000000E+000	0.000000000000000E+000	0.0722332	0.0722332	0.0000000E+000	0.000000000000000E+000	0.000801585
1	1	0	1	0	0	8	3174.59	1	0.800645	1.00089	0.0410557	0.272056	0	0.0755711	11	5.11633e-05	0.000000000000000E+000	291717	0.000000000000000E+000	0.000000000000000E+000	0.0755711	0.0755711	0.0000000E+000	0.000000000000000E+000	0.000801356
1	1	0	1	0	0	8	3186.59	1	0.802098	1.00127	0.0530719	0.284072	0	0.078909	11	5.38378e-05	0.000000000000000E+000	304128	0.000000000000000E+000	0.000000000000000E+000	0.078909	0.078909	0.0000000E+000	0.000000000000000E+000	0.000803116
1	1	0	1	0	0	8	3198.59	1	0.802729	1.00146	0.0650881	0.296088	0	0.0822468	11	5.65164e-05	0.000000000000000E+000	316779	0.000000000000000E+000	0.000000000000000E+000	0.0822468	0.0822468	0.0000000E+000	0.000000000000000E+000	0.000803901
1	1	0	1	0	0	8	3210.59	1	0.803554	1.00178	0.0771044	0.308105	0	0.0855847	11	5.91975e-05	0.000000000000000E+000	329344	0.000000000000000E+000	0.000000000000000E+000	0.0855847	0.0855847	0.0000000E+000	0.000000000000000E+000	0.000804983
1	1	0	1	0	0	8	3222.59	1	0.804029	1.00178	0.0891206	0.320121	0	0.0889225	11	6.18804e-05	0.000000000000000E+000	342015	0.000000000000000E+000	0.000000000000000E+000	0.0889225	0.0889225	0.0000000E+000	0.000000000000000E+000	0.000805459
1	1	0	1	0	0	8	3234.59	1	0.804674	1.00197	0.101137	0.332137	0	0.0922603	11	6.45653e-05	0.000000000000000E+000	354608	0.000000000000000E+000	0.000000000000000E+000	0.0922603	0.0922603	0.0000000E+000	0.000000000000000E+000	0.000806259
1	1	0	1	0	0	8	3246.59	1	0.805317	1.00089	0.113153	0.344153	0	0.0955981	11	6.72521e-05	0.000000000000000E+000	367186	0.000000000000000E+000	0.000000000000000E+000	0.0955981	0.0955981	0.0000000E+000	0.000000000000000E+000	0.000806032
1	1	0	1	0	0	8	3258.59	1	0.805829	1.00102	0.125169	0.35617	0	0.098936	11	6.99409e-05	0.000000000000000E+000	379799	0.000000000000000E+000	0.000000000000000E+000	0.098936	0.098936	0.0000000E+000	0.000000000000000E+000	0.000806647
1	1	0	1	0	0	8	3270.59	1	0.806191	1.00146	0.137186	0.368186	0	0.102274	11	7.26312e-05	0.000000000000000E+000	392461	0.000000000000000E+000	0.000000000000000E+000	0.102274	0.102274	0.0000000E+000	0.000000000000000E+000	0.000807368
1	1	0	1	0	0	8	3282.59	1	0.806888	1.00197	0.149202	0.380202	0	0.105612	11	7.53236e-05	0.000000000000000E+000	404969	0.000000000000000E+000	0.000000000000000E+000	0.105612	0.105612	0.0000000E+000	0.000000000000000E+000	0.000808477
1	1	0	1	0	0	8	3294.59	1	0.807771	1.00108	0.161219	0.392219	0	0.10895	11	7.8019e-05	0.000000000000000E+000	417375	0.000000000000000E+000	0.000000000000000E+000	0.10895	0.10895	0.0000000E+000	0.000000000000000E+000	0.000808643
1	1	0	1	0	0	8	3306.59	1	0.80813	1.00178	0.173235	0.404235	0	0.112288	11	8.07158e-05	0.000000000000000E+000	429998	0.000000000000000E+000	0.000000000000000E+000	0.112288	0.112288	0.0000000E+000	0.000000000000000E+000	0.000809568
1	1	0	0	0	0	9	3317.59	1.778	0.851516	1.7789	0.0071153	0.418361	0	0.116211	11	8.39714e-05	0.000000000000000E+000	425391	0.000000000000000E+000	0.000000000000000E+000	0.116211	0.116211	0.0000000E+000	0.000000000000000E+000	0.00151476
1	1	0	0	0	0	9	3329.59	1.778	0.853457	1.77947	0.0284617	0.439707	0	0.122141	11	8.90274e-05	0.000000000000000E+000	446216	0.000000000000000E+000	0.000000000000000E+000	0.122141	0.122141	0.0000000E+000	0.000000000000000E+000	0.0015187
1	1	0	0	0	0	9	3341.59	1.778	0.854562	1.77947	0.0498081	0.461053	0	0.12807	11	9.40909e-05	0.000000000000000E+000	467354	0.000000000000000E+000	0.000000000000000E+000	0.12807	0.12807	0.0000000E+000	0.000000000000000E+000	0.00152067
1	1	0	0	0	0	9	3353.59	1.778	0.855607	1.77858	0.0711544	0.4824	0	0.134	11	9.91613e-05	0.000000000000000E+000	488475	0.000000000000000E+000	0.000000000000000E+000	0.134	0.134	0.0000000E+000	0.000000000000000E+000	0.00152176
1	1	0	0	0	0	9	3365.59	1.778	0.85638	1.77979	0.0925007	0.503746	0	0.139929	11	0.000104238	0.000000000000000E+000	509691	0.000000000000000E+000	0.000000000000000E+000	0.139929	0.139929	0.0000000E+000	0.000000000000000E+000	0.00152417
1	1	0	0	0	0	9	3377.59	1.778	0.857467	1.77845	0.113847	0.525092	0	0.145859	11	0.000109319	0.000000000000000E+000	530706	0.000000000000000E+000	0.000000000000000E+000	0.145859	0.145859	0.0000000E+000	0.000000000000000E+000	0.00152496
1	1	0	0	0	0	9	3389.59	1.778	0.857952	1.77883	0.135194	0.546439	0	0.151789	11	0.000114405	0.000000000000000E+000	552010	0.000000000000000E+000	0.000000000000000E+000	0.151789	0.151789	0.0000000E+000	0.000000000000000E+000	0.00152615
1	1	0	0	0	0	9	3401.59	1.778	0.858685	1.77839	0.15654	0.567785	0	0.157718	11	0.000119495	0.000000000000000E+000	573149	0.000000000000000E+000	0.000000000000000E+000	0.157718	0.157718	0.0000000E+000	0.000000000000000E+000	0.00152707
1	1	0	0	0	0	9	3413.59	1.778	0.859294	1.77909	0.177887	0.589132	0	0.163648	11	0.00012459	0.000000000000000E+000	594332	0.000000000000000E+000	0.000000000000000E+000	0.163648	0.163648	0.0000000E+000	0.000000000000000E+000	0.00152876
1	1	0	0	0	0	9	3425.59	1.778	0.859633	1.77941	0.199233	0.610478	0	0.169577	11	0.000129688	0.000000000000000E+000	615657	0.000000000000000E+000	0.000000000000000E+000	0.169577	0.169577	0.0000000E+000	0.000000000000000E+000	0.00152963
1	1	0	0	0	0	9	3437.59	1.778	0.860677	1.77839	0.220579	0.631825	0	0.175507	11	0.000134788	0.000000000000000E+000	636514	0.000000000000000E+000	0.000000000000000E+000	0.175507	0.175507	0.0000000E+000	0.000000000000000E+000	0.00153062
1	1	0	0	0	0	9	3449.59	1.778	0.860893	1.77921	0.241926	0.653171	0	0.181436	11	0.000139892	0.000000000000000E+000	657875	0.000000000000000E+000	0.000000000000000E+000	0.181436	0.181436	0.0000000E+000	0.000000000000000E+000	0.00153171
1	1	0	0	0	0	9	3461.59	1.778	0.861063	1.77858	0.263272	0.674517	0	0.187366	11	0.000144998	0.000000000000000E+000	679259	0.000000000000000E+000	0.000000000000000E+000	0.187366	0.187366	0.0000000E+000	0.000000000000000E+000	0.00153147
1	1	0	0	0	0	9	3473.59	1.778	0.861644	1.77864	0.284618	0.695864	0	0.193295	11	0.000150106	0.000000000000000E+000	700346	0.000000000000000E+000	0.000000000000000E+000	0.193295	0.193295	0.0000000E+000	0.000000000000000E+000	0.00153256
1	1	0	0	0	0	9	3485.59	1.778	0.862398	1.77877	0.305965	0.71721	0	0.199225	11	0.000155218	0.000000000000000E+000	721282	0.000000000000000E+000	0.000000000000000E+000	0.199225	0.199225	0.0000000E+000	0.000000000000000E+000	0.00153401
1	1	0	1	0	0	10	3496.59	3.162	0.913797	3.16274	0.00948927	0.740931	0	0.205814	11	0.000161034	0.000000000000000E+000	708514	0.000000000000000E+000	0.000000000000000E+000	0.205814	0.205814	0.0000000E+000	0.000000000000000E+000	0.0028901
1	1	0	1	0	0	10	3508.59	3.162	0.919717	3.16332	0.0474475	0.778889	0	0.216358	11	0.000170704	0.000000000000000E+000	740618	0.000000000000000E+000	0.000000000000000E+000	0.216358	0.216358	0.0000000E+000	0.000000000000000E+000	0.00290936
1	1	0	1	0	0	10	3520.59	3.162	0.925603	3.16402	0.0854058	0.816847	0	0.226902	11	0.000180436	0.000000000000000E+000	772389	0.000000000000000E+000	0.000000000000000E+000	0.226902	0.226902	0.0000000E+000	0.000000000000000E+000	0.00292862
1	1	0	1	0	0	10	3532.59	3.162	0.930589	3.16243	0.123364	0.854805	0	0.237446	11	0.000190223	0.000000000000000E+000	804488	0.000000000000000E+000	0.000000000000000E+000	0.237446	0.237446	0.0000000E+000	0.000000000000000E+000	0.00294292
1	1	0	1	0	0	10	3544.59	3.162	0.935316	3.16376	0.161322	0.892763	0	0.24799	11	0.00020006	0.000000000000000E+000	836490	0.000000000000000E+000	0.000000000000000E+000	0.24799	0.24799	0.0000000E+000	0.000000000000000E+000	0.00295912
1	1	0	1	0	0	10	3556.59	3.162	0.940066	3.16281	0.19928	0.930721	0	0.258534	11	0.000209949	0.000000000000000E+000	868192	0.000000000000000E+000	0.000000000000000E+000	0.258534	0.258534	0.0000000E+000	0.000000000000000E+000	0.00297325
1	1	0	1	0	0	10	3568.59	3.162	0.944929	3.16357	0.237238	0.96868	0	0.269078	11	0.000219891	0.000000000000000E+000	899520	0.000000000000000E+000	0.000000000000000E+000	0.269078	0.269078	0.0000000E+000	0.000000000000000E+000	0.00298935
1	1	0	1	0	0	10	3580.59	3.162	0.949375	3.16293	0.275197	1.00664	0	0.279622	11	0.000229879	0.000000000000000E+000	930925	0.000000000000000E+000	0.000000000000000E+000	0.279622	0.279622	0.0000000E+000	0.000000000000000E+000	0.00300281
1	1	0	1	0	0	10	3592.59	3.162	0.953073	3.16268	0.313154	1.0446	0	0.290165	11	0.000239907	0.000000000000000E+000	962735	0.000000000000000E+000	0.000000000000000E+000	0.290165	0.290165	0.0000000E+000	0.000000000000000E+000	0.00301426
1	1	0	1	0	0	10	3604.59	3.162	0.956758	3.163	0.351113	1.08255	0	0.300709	11	0.000249978	0.000000000000000E+000	994341	0.000000000000000E+000	0.000000000000000E+000	0.300709	0.300709	0.0000000E+000	0.000000000000000E+000	0.00302622
1	1	0	1	0	0	10	3616.59	3.162	0.960247	3.16255	0.389071	1.12051	0	0.311253	11	0.000260084	0.000000000000000E+000	1.02592e+06	0.000000000000000E+000	0.000000000000000E+000	0.311253	0.311253	0.0000000E+000	0.000000000000000E+000	0.00303683
1	1	0	1	0	0	10	3628.59	3.162	0.962797	3.16363	0.427029	1.15847	0	0.321797	11	0.000270223	0.000000000000000E+000	1.0582e+06	0.000000000000000E+000	0.000000000000000E+000	0.321797	0.321797	0.0000000E+000	0.000000000000000E+000	0.00304594
1	1	0	1	0	0	10	3640.59	3.162	0.965478	3.16268	0.464987	1.19643	0	0.332341	11	0.000280391	0.000000000000000E+000	1.09021e+06	0.000000000000000E+000	0.000000000000000E+000	0.332341	0.332341	0.0000000E+000	0.000000000000000E+000	0.0030535
1	1	0	1	0	0	10	3652.59	3.162	0.968392	3.16281	0.502945	1.23439	0	0.342885	11	0.000290589	0.000000000000000E+000	1.12181e+06	0.000000000000000E+000	0.000000000000000E+000	0.342885	0.342885	0.0000000E+000	0.000000000000000E+000	0.00306284
1	1	0	1	0	0	10	3664.59	3.162	0.971471	3.16344	0.540904	1.27234	0	0.353429	11	0.000300813	0.000000000000000E+000	1.15308e+06	0.000000000000000E+000	0.000000000000000E+000	0.353429	0.353429	0.0000000E+000	0.000000000000000E+000	0.00307319
1	1	0	0	0	0	11	3675.59	5.623	1.07607	5.62383	0.0112476	1.31206	0	0.364462	11	0.000311854	0.000000000000000E+000	1.08612e+06	0.000000000000000E+000	0.000000000000000E+000	0.364462	0.364462	0.0000000E+000	0.000000000000000E+000	0.00605162
1	1	0	0	0	0	11	3687.59	5.623	1.09682	5.62357	0.0787361	1.37955	0	0.383208	11	0.000332269	0.000000000000000E+000	1.12271e+06	0.000000000000000E+000	0.000000000000000E+000	0.383208	0.383208	0.0000000E+000	0.000000000000000E+000	0.00616803
1	1	0	0	0	0	11	3699.59	5.623	1.11176	5.62408	0.146224	1.44704	0	0.401955	11	0.000352994	0.000000000000000E+000	1.16348e+06	0.000000000000000E+000	0.000000000000000E+000	0.401955	0.401955	0.0000000E+000	0.000000000000000E+000	0.00625265
1	1	0	0	0	0	11	3711.59	5.623	1.11957	5.62383	0.213713	1.51453	0	0.420702	11	0.000373923	0.000000000000000E+000	1.21015e+06	0.000000000000000E+000	0.000000000000000E+000	0.420702	0.420702	0.0000000E+000	0.000000000000000E+000	0.00629625
1	1	0	0	0	0	11	3723.59	5.623	1.12866	5.62459	0.281201	1.58201	0	0.439449	11	0.000395022	0.000000000000000E+000	1.25496e+06	0.000000000000000E+000	0.000000000000000E+000	0.439449	0.439449	0.0000000E+000	0.000000000000000E+000	0.00634822
1	1	0	0	0	0	11	3735.59	5.623	1.13442	5.62402	0.348689	1.6495	0	0.458195	11	0.000416224	0.000000000000000E+000	1.30253e+06	0.000000000000000E+000	0.000000000000000E+000	0.458195	0.458195	0.0000000E+000	0.000000000000000E+000	0.00638002
1	1	0	0	0	0	11	3747.59	5.623	1.13846	5.62421	0.416178	1.71699	0	0.476942	11	0.000437527	0.000000000000000E+000	1.35152e+06	0.000000000000000E+000	0.000000000000000E+000	0.476942	0.476942	0.0000000E+000	0.000000000000000E+000	0.00640292
1	1	0	0	0	0	11	3759.59	5.623	1.14366	5.62453	0.483666	1.78448	0	0.495689	11	0.000458942	0.000000000000000E+000	1.39892e+06	0.000000000000000E+000	0.000000000000000E+000	0.495689	0.495689	0.0000000E+000	0.000000000000000E+000	0.00643252
1	1	0	0	0	0	11	3771.59	5.623	1.14643	5.62434	0.551154	1.85197	0	0.514436	11	0.000480417	0.000000000000000E+000	1.44868e+06	0.000000000000000E+000	0.000000000000000E+000	0.514436	0.514436	0.0000000E+000	0.000000000000000E+000	0.0064479
1	1	0	0	0	0	11	3783.59	5.623	1.15054	5.62396	0.618643	1.91946	0	0.533182	11	0.000501985	0.000000000000000E+000	1.49665e+06	0.000000000000000E+000	0.000000000000000E+000	0.533182	0.533182	0.0000000E+000	0.000000000000000E+000	0.00647061
1	1	0	0	0	0	11	3795.59	5.623	1.15813	5.62345	0.686131	1.98695	0	0.551929	11	0.000523632	0.000000000000000E+000	1.54016e+06	0.000000000000000E+000	0.000000000000000E+000	0.551929	0.551929	0.0000000E+000	0.000000000000000E+000	0.00651271
1	1	0	0	0	0	11	3807.59	5.623	1.16021	5.62427	0.75362	2.05443	0	0.570676	11	0.00054536	0.000000000000000E+000	1.58991e+06	0.000000000000000E+000	0.000000000000000E+000	0.570676	0.570676	0.0000000E+000	0.000000000000000E+000	0.00652536
1	1	0	0	0	0	11	3819.59	5.623	1.16459	5.62383	0.821108	2.12192	0	0.589423	11	0.000567152	0.000000000000000E+000	1.6366e+06	0.000000000000000E+000	0.000000000000000E+000	0.589423	0.589423	0.0000000E+000	0.000000000000000E+000	0.00654944
1	1	0	0	0	0	11	3831.59	5.623	1.16797	5.62459	0.888596	2.18941	0	0.60817	11	0.000589051	0.000000000000000E+000	1.68426e+06	0.000000000000000E+000	0.000000000000000E+000	0.60817	0.60817	0.0000000E+000	0.000000000000000E+000	0.00656934
1	1	0	0	0	0	11	3843.59	5.623	1.17513	5.62491	0.956084	2.2569	0	0.626916	11	0.000611029	0.000000000000000E+000	1.72666e+06	0.000000000000000E+000	0.000000000000000E+000	0.626916	0.626916	0.0000000E+000	0.000000000000000E+000	0.00661001
1	1	0	1	1	0	12	3854.59	10	1.34205	10.0013	0.0100005	2.32314	0	0.645317	11	0.000633116	0.000000000000000E+000	1.57608e+06	0.000000000000000E+000	0.000000000000000E+000	0.645317	0.645317	0.0000000E+000	0.000000000000000E+000	0.0134222
1	1	0	1	0	0	12	3866.59	10	1.36037	10.0005	0.130018	2.44316	0	0.678655	11	0.000678125	0.000000000000000E+000	1.63715e+06	0.000000000000000E+000	0.000000000000000E+000	0.678655	0.678655	0.0000000E+000	0.000000000000000E+000	0.0136043
1	1	0	1	0	0	12	3878.59	10	1.37736	10.001	0.250035	2.56317	0	0.711993	11	0.000723805	0.000000000000000E+000	1.69823e+06	0.000000000000000E+000	0.000000000000000E+000	0.711993	0.711993	0.0000000E+000	0.000000000000000E+000	0.013775
1	1	0	1	0	0	12	3890.59	10	1.39646	10.0015	0.370052	2.68319	0	0.745331	11	0.000770097	0.000000000000000E+000	1.75554e+06	0.000000000000000E+000	0.000000000000000E+000	0.745331	0.745331	0.0000000E+000	0.000000000000000E+000	0.0139667
1	1	0	1	0	0	12	3902.59	10	1.4114	10.0015	0.490069	2.80321	0	0.778669	11	0.000816926	0.000000000000000E+000	1.81631e+06	0.000000000000000E+000	0.000000000000000E+000	0.778669	0.778669	0.0000000E+000	0.000000000000000E+000	0.0141161
1	1	0	1	0	0	12	3914.59	10	1.42994	10.0011	0.610086	2.92323	0	0.812007	11	0.000864328	0.000000000000000E+000	1.87158e+06	0.000000000000000E+000	0.000000000000000E+000	0.812007	0.812007	0.0000000E+000	0.000000000000000E+000	0.014301
1	1	0	1	0	0	12	3926.59	10	1.44729	10.0017	0.730104	3.04324	0	0.845345	11	0.000912318	0.000000000000000E+000	1.92702e+06	0.000000000000000E+000	0.000000000000000E+000	0.845345	0.845345	0.0000000E+000	0.000000000000000E+000	0.0144755
1	1	0	1	0	0	12	3938.59	10	1.46255	10.0016	0.850121	3.16326	0	0.878684	11	0.000960818	0.000000000000000E+000	1.98384e+06	0.000000000000000E+000	0.000000000000000E+000	0.878684	0.878684	0.0000000E+000	0.000000000000000E+000	0.0146279
1	1	0	1	0	0	12	3950.59	10	1.48017	10.0016	0.970138	3.28328	0	0.912022	11	0.00100984	0.000000000000000E+000	2.03661e+06	0.000000000000000E+000	0.000000000000000E+000	0.912022	0.912022	0.0000000E+000	0.000000000000000E+000	0.014804
1	1	0	1	0	0	12	3962.59	10	1.49289	10.0014	1.09016	3.40329	0	0.94536	11	0.0010594	0.000000000000000E+000	2.09453e+06	0.000000000000000E+000	0.000000000000000E+000	0.94536	0.94536	0.0000000E+000	0.000000000000000E+000	0.014931
1	1	0	1	0	0	12	3974.59	10	1.51117	10.0017	1.21017	3.52331	0	0.978698	11	0.00110949	0.000000000000000E+000	2.14428e+06	0.000000000000000E+000	0.000000000000000E+000	0.978698	0.978698	0.0000000E+000	0.000000000000000E+000	0.0151143
1	1	0	1	0	0	12	3986.59	10	1.52555	10.001	1.33019	3.64333	0	1.01204	11	0.00116015	0.000000000000000E+000	2.19807e+06	0.000000000000000E+000	0.000000000000000E+000	1.01204	1.01204	0.0000000E+000	0.000000000000000E+000	0.0152571
1	1	0	1	0	0	12	3998.59	10	1.54259	10.0016	1.45021	3.76335	0	1.04537	11	0.00121133	0.000000000000000E+000	2.24739e+06	0.000000000000000E+000	0.000000000000000E+000	1.04537	1.04537	0.0000000E+000	0.000000000000000E+000	0.0154283
1	1	0	1	0	0	12	4010.59	10	1.55664	10.0016	1.57022	3.88336	0	1.07871	11	0.00126302	0.000000000000000E+000	2.29975e+06	0.000000000000000E+000	0.000000000000000E+000	1.07871	1.07871	0.0000000E+000	0.000000000000000E+000	0.0155689
1	1	0	1	0	0	12	4022.59	10	1.56891	10.001	1.69024	4.00338	0	1.11205	11	0.00131523	0.000000000000000E+000	2.35372e+06	0.000000000000000E+000	0.000000000000000E+000	1.11205	1.11205	0.0000000E+000	0.000000000000000E+000	0.0156907
1	1	0	1	0	0	12	4033.59	10	1.58234	10.0021	1.80026	4.1134	0	1.14261	11	0.00136341	0.000000000000000E+000	2.39946e+06	0.000000000000000E+000	0.000000000000000E+000	1.14261	1.14261	0.0000000E+000	0.000000000000000E+000	0.0158267