File: Data_1mg/2022_01_27 Ni60Co30Fe10Ox 1mg ref309__03_CP_C02.mpt
EC-Lab ASCII FILE
Nb header lines : 53

Chronopotentiometry

Run on channel : 2 (SN 12477)
User :
CE vs. WE compliance from -10 V to 10 V
Electrode connection : standard
Potential control : Ewe
Ewe ctrl range : min = -2.50 V, max = 2.50 V
Safety Limits :
	Do not start on E overload
Acquisition started on : 01/27/2023 11:35:24.466
Loaded Setting File :  C:\Users\grupogalan\Documents\EC-Lab\Data\Scott\_cyclic_pause_tafel.mps
Saved on :
	File : 2022_01_27 Ni60Co30Fe10Ox 1mg ref309__03_CP_C02.mpr
	Directory : C:\Users\grupogalan\Documents\EC-Lab\Data\Scott\
	Host : 169.254.104.159
Device : VSP (SN 1176)
Address : USB
EC-Lab for windows v11.46 (software)
Internet server v11.40 (firmware)
Command interpretor v11.40 (firmware)
Electrode material :
Initial state :
Electrolyte :
Comments :
Electrode surface area : 0.000 cm²
Characteristic mass : 0.001 g
Equivalent Weight : 0.000 g/eq.
Density : 0.000 g/cm3
Volume (V) : 0.001 cm³
Cycle Definition : Charge/Discharge alternance
Ns                  0                   1                   2                   3                   4                   5                   6                   7                   8                   9                   10                  11                  12
Is                  10.000              18.000              32.000              56.000              100.000             178.000             316.000             562.000             1.000               1.778               3.162               5.623               10.000
unit Is             µA                  µA                  µA                  µA                  µA                  µA                  µA                  µA                  mA                  mA                  mA                  mA                  mA
vs.                 <None>              <None>              <None>              <None>              <None>              <None>              <None>              <None>              <None>              <None>              <None>              <None>              <None>
ts (h:m:s)          0:03:0.0000         0:03:0.0000         0:03:0.0000         0:03:0.0000         0:03:0.0000         0:03:0.0000         0:03:0.0000         0:03:0.0000         0:03:0.0000         0:03:0.0000         0:03:0.0000         0:03:0.0000         0:03:0.0000
EM (V)              pass                pass                pass                pass                pass                pass                pass                pass                pass                pass                pass                pass                pass
dQM                 500.000             900.000             1.600               2.800               5.000               8.900               15.800              28.100              50.000              88.900              158.100             281.150             500.000
unit dQM            nA.h                nA.h                µA.h                µA.h                µA.h                µA.h                µA.h                µA.h                µA.h                µA.h                µA.h                µA.h                µA.h
record              <Ewe>               <Ewe>               <Ewe>               <Ewe>               <Ewe>               <Ewe>               <Ewe>               <Ewe>               <Ewe>               <Ewe>               <Ewe>               <Ewe>               <Ewe>
dEs (mV)            0.00                0.00                0.00                0.00                0.00                0.00                0.00                0.00                0.00                0.00                0.00                0.00                0.00
dts (s)             1.0000              1.0000              1.0000              1.0000              1.0000              1.0000              1.0000              1.0000              1.0000              1.0000              1.0000              1.0000              1.0000
E range min (V)     -2.500              -2.500              -2.500              -2.500              -2.500              -2.500              -2.500              -2.500              -2.500              -2.500              -2.500              -2.500              -2.500
E range max (V)     2.500               2.500               2.500               2.500               2.500               2.500               2.500               2.500               2.500               2.500               2.500               2.500               2.500
I Range             10 mA               10 mA               10 mA               10 mA               10 mA               10 mA               10 mA               10 mA               10 mA               10 mA               10 mA               10 mA               10 mA
Bandwidth           5                   5                   5                   5                   5                   5                   5                   5                   5                   5                   5                   5                   5
goto Ns'            0                   0                   0                   0                   0                   0                   0                   0                   0                   0                   0                   0                   0
nc cycles           0                   0                   0                   0                   0                   0                   0                   0                   0                   0                   0                   0                   0

mode	ox/red	error	control changes	Ns changes	counter inc.	Ns	time/s	control/mA	<Ewe>/V	I/mA	dQ/C	(Q-Qo)/C	half cycle	Q charge/discharge/mA.h	I Range	Energy charge/W.h	Energy discharge/W.h	Capacitance charge/µF	Capacitance discharge/µF	Q discharge/mA.h	Q charge/mA.h	Capacity/mA.h	Efficiency/%	cycle number	P/W
1	1	0	0	0	0	0	628.598	0.01	0.308236	0.0122166	1.08995e-05	1.08995e-05	0	3.02763e-06	11	9.33224e-10	0.000000000000000E+000	0.000000000000000E+000	0.000000000000000E+000	0.000000000000000E+000	3.02763e-06	3.02763e-06	0.0000000E+000	0.000000000000000E+000	3.76558e-06
1	1	0	0	0	0	0	640.598	0.01	0.581999	0.0118348	0.000148735	0.000148735	0	4.13153e-05	11	2.24767e-08	0.000000000000000E+000	543.298	0.000000000000000E+000	0.000000000000000E+000	4.13153e-05	4.13153e-05	0.0000000E+000	0.000000000000000E+000	6.88785e-06
1	1	0	0	0	0	0	652.598	0.01	0.575349	0.0109441	0.000286257	0.000286257	0	7.95159e-05	11	4.45982e-08	0.000000000000000E+000	1071.67	0.000000000000000E+000	0.000000000000000E+000	7.95159e-05	7.95159e-05	0.0000000E+000	0.000000000000000E+000	6.29665e-06
1	1	0	0	0	0	0	664.598	0.01	0.564787	0.0113894	0.000423827	0.000423827	0	0.00011773	11	6.63644e-08	0.000000000000000E+000	1652.02	0.000000000000000E+000	0.000000000000000E+000	0.00011773	0.00011773	0.0000000E+000	0.000000000000000E+000	6.43261e-06
1	1	0	0	0	0	0	676.598	0.01	0.552475	0.0110713	0.000561354	0.000561354	0	0.000155932	11	8.76859e-08	0.000000000000000E+000	2298.38	0.000000000000000E+000	0.000000000000000E+000	0.000155932	0.000155932	0.0000000E+000	0.000000000000000E+000	6.11662e-06
1	1	0	0	0	0	0	688.598	0.01	0.539548	0.0120257	0.000698735	0.000698735	0	0.000194093	11	1.08502e-07	0.000000000000000E+000	3020.74	0.000000000000000E+000	0.000000000000000E+000	0.000194093	0.000194093	0.0000000E+000	0.000000000000000E+000	6.48844e-06
1	1	0	0	0	0	0	700.598	0.01	0.526214	0.0111986	0.000836285	0.000836285	0	0.000232301	11	1.28841e-07	0.000000000000000E+000	3836.56	0.000000000000000E+000	0.000000000000000E+000	0.000232301	0.000232301	0.0000000E+000	0.000000000000000E+000	5.89284e-06
1	1	0	0	0	0	0	712.598	0.01	0.512135	0.0110713	0.000974131	0.000974131	0	0.000270592	11	1.48694e-07	0.000000000000000E+000	4777.51	0.000000000000000E+000	0.000000000000000E+000	0.000270592	0.000270592	0.0000000E+000	0.000000000000000E+000	5.67001e-06
1	1	0	0	0	0	0	724.598	0.01	0.497764	0.0111349	0.00111174	0.00111174	0	0.000308817	11	1.67971e-07	0.000000000000000E+000	5865.84	0.000000000000000E+000	0.000000000000000E+000	0.000308817	0.000308817	0.0000000E+000	0.000000000000000E+000	5.54257e-06
1	1	0	0	0	0	0	736.598	0.01	0.483289	0.0115803	0.00124916	0.00124916	0	0.00034699	11	1.86679e-07	0.000000000000000E+000	7135.9	0.000000000000000E+000	0.000000000000000E+000	0.00034699	0.00034699	0.0000000E+000	0.000000000000000E+000	5.59664e-06
1	1	0	0	0	0	0	748.598	0.01	0.469032	0.0117712	0.00138657	0.00138657	0	0.000385159	11	2.04833e-07	0.000000000000000E+000	8623.18	0.000000000000000E+000	0.000000000000000E+000	0.000385159	0.000385159	0.0000000E+000	0.000000000000000E+000	5.52106e-06
1	1	0	0	0	0	0	760.598	0.01	0.454954	0.0110077	0.00152393	0.00152393	0	0.000423314	11	2.2244e-07	0.000000000000000E+000	10386.8	0.000000000000000E+000	0.000000000000000E+000	0.000423314	0.000423314	0.0000000E+000	0.000000000000000E+000	5.00799e-06
1	1	0	0	0	0	0	772.598	0.01	0.440736	0.0115803	0.00166135	0.00166135	0	0.000461485	11	2.39511e-07	0.000000000000000E+000	12538.5	0.000000000000000E+000	0.000000000000000E+000	0.000461485	0.000461485	0.0000000E+000	0.000000000000000E+000	5.10386e-06
1	1	0	0	0	0	0	784.598	0.01	0.426319	0.0117712	0.00179873	0.00179873	0	0.000499648	11	2.56034e-07	0.000000000000000E+000	15232.7	0.000000000000000E+000	0.000000000000000E+000	0.000499648	0.000499648	0.0000000E+000	0.000000000000000E+000	5.01828e-06
1	1	0	0	0	0	0	796.598	0.01	0.412045	0.0110713	0.00193601	0.00193601	0	0.000537781	11	2.71999e-07	0.000000000000000E+000	18649.7	0.000000000000000E+000	0.000000000000000E+000	0.000537781	0.000537781	0.0000000E+000	0.000000000000000E+000	4.56188e-06
1	1	0	0	0	0	0	807.651	0.01	0.398857	0.0111349	0.00206253	0.00206253	0	0.000572926	11	2.86245e-07	0.000000000000000E+000	22760	0.000000000000000E+000	0.000000000000000E+000	0.000572926	0.000572926	0.0000000E+000	0.000000000000000E+000	4.44124e-06
1	1	0	1	0	0	1	819.651	0.018	0.452131	0.0183882	0.000225937	0.00228847	0	0.000635686	11	3.14776e-07	0.000000000000000E+000	15903.7	0.000000000000000E+000	0.000000000000000E+000	0.000635686	0.000635686	0.0000000E+000	0.000000000000000E+000	8.31388e-06
1	1	0	1	0	0	1	831.651	0.018	0.446822	0.0183246	0.000452061	0.00251459	0	0.000698498	11	3.43002e-07	0.000000000000000E+000	18144.7	0.000000000000000E+000	0.000000000000000E+000	0.000698498	0.000698498	0.0000000E+000	0.000000000000000E+000	8.18781e-06
1	1	0	1	0	0	1	843.651	0.018	0.440403	0.0194062	0.000678244	0.00274078	0	0.000761327	11	3.70865e-07	0.000000000000000E+000	20737.2	0.000000000000000E+000	0.000000000000000E+000	0.000761327	0.000761327	0.0000000E+000	0.000000000000000E+000	8.54655e-06
1	1	0	1	0	0	1	855.651	0.018	0.433242	0.0188336	0.000904321	0.00296686	0	0.000824126	11	3.98277e-07	0.000000000000000E+000	23733.7	0.000000000000000E+000	0.000000000000000E+000	0.000824126	0.000824126	0.0000000E+000	0.000000000000000E+000	8.15949e-06
1	1	0	1	0	0	1	867.651	0.018	0.425428	0.01877	0.00113043	0.00319297	0	0.000886936	11	4.25227e-07	0.000000000000000E+000	27245.7	0.000000000000000E+000	0.000000000000000E+000	0.000886936	0.000886936	0.0000000E+000	0.000000000000000E+000	7.98526e-06
1	1	0	1	0	0	1	879.651	0.018	0.417587	0.019279	0.0013565	0.00341904	0	0.000949733	11	4.51681e-07	0.000000000000000E+000	31266.5	0.000000000000000E+000	0.000000000000000E+000	0.000949733	0.000949733	0.0000000E+000	0.000000000000000E+000	8.05065e-06
1	1	0	1	0	0	1	891.651	0.018	0.409316	0.0188336	0.00158244	0.00364497	0	0.00101249	11	4.7761e-07	0.000000000000000E+000	36060.4	0.000000000000000E+000	0.000000000000000E+000	0.00101249	0.00101249	0.0000000E+000	0.000000000000000E+000	7.70888e-06
1	1	0	1	0	0	1	903.651	0.018	0.401288	0.0187063	0.00180847	0.003871	0	0.00107528	11	5.03039e-07	0.000000000000000E+000	41600.4	0.000000000000000E+000	0.000000000000000E+000	0.00107528	0.00107528	0.0000000E+000	0.000000000000000E+000	7.50663e-06
1	1	0	1	0	0	1	915.651	0.018	0.393234	0.0198516	0.0020345	0.00409703	0	0.00113806	11	5.27957e-07	0.000000000000000E+000	48201.4	0.000000000000000E+000	0.000000000000000E+000	0.00113806	0.00113806	0.0000000E+000	0.000000000000000E+000	7.80632e-06
1	1	0	1	0	0	1	927.651	0.018	0.384939	0.0188972	0.00226051	0.00432305	0	0.00120085	11	5.52361e-07	0.000000000000000E+000	56360.5	0.000000000000000E+000	0.000000000000000E+000	0.00120085	0.00120085	0.0000000E+000	0.000000000000000E+000	7.27428e-06
1	1	0	1	0	0	1	939.651	0.018	0.37668	0.0184518	0.00248644	0.00454898	0	0.0012636	11	5.76238e-07	0.000000000000000E+000	66462.6	0.000000000000000E+000	0.000000000000000E+000	0.0012636	0.0012636	0.0000000E+000	0.000000000000000E+000	6.95044e-06
1	1	0	1	0	0	1	951.651	0.018	0.368467	0.0185791	0.00271238	0.00477491	0	0.00132636	11	5.99602e-07	0.000000000000000E+000	79276.8	0.000000000000000E+000	0.000000000000000E+000	0.00132636	0.00132636	0.0000000E+000	0.000000000000000E+000	6.84577e-06
1	1	0	1	0	0	1	963.651	0.018	0.360832	0.0185791	0.00293836	0.0050009	0	0.00138914	11	6.22478e-07	0.000000000000000E+000	95081.7	0.000000000000000E+000	0.000000000000000E+000	0.00138914	0.00138914	0.0000000E+000	0.000000000000000E+000	6.70392e-06
1	1	0	1	0	0	1	975.651	0.018	0.352956	0.0182609	0.00316447	0.005227	0	0.00145195	11	6.44872e-07	0.000000000000000E+000	116882	0.000000000000000E+000	0.000000000000000E+000	0.00145195	0.00145195	0.0000000E+000	0.000000000000000E+000	6.44532e-06
1	1	0	1	0	0	1	987.651	0.018	0.345306	0.0191517	0.00339062	0.00545316	0	0.00151477	11	6.66781e-07	0.000000000000000E+000	147105	0.000000000000000E+000	0.000000000000000E+000	0.00151477	0.00151477	0.0000000E+000	0.000000000000000E+000	6.6132e-06
1	1	0	0	0	0	2	998.651	0.032	0.415786	0.032513	0.000363161	0.00581632	0	0.00161565	11	7.08318e-07	0.000000000000000E+000	54080	0.000000000000000E+000	0.000000000000000E+000	0.00161565	0.00161565	0.0000000E+000	0.000000000000000E+000	1.35185e-05
1	1	0	0	0	0	2	1010.65	0.032	0.426781	0.0338491	0.000759262	0.00621242	0	0.00172567	11	7.54747e-07	0.000000000000000E+000	52405.7	0.000000000000000E+000	0.000000000000000E+000	0.00172567	0.00172567	0.0000000E+000	0.000000000000000E+000	1.44462e-05
1	1	0	0	0	0	2	1022.65	0.032	0.435408	0.0328311	0.00115536	0.00660852	0	0.0018357	11	8.0224e-07	0.000000000000000E+000	51965.3	0.000000000000000E+000	0.000000000000000E+000	0.0018357	0.0018357	0.0000000E+000	0.000000000000000E+000	1.42949e-05
1	1	0	0	0	0	2	1034.65	0.032	0.44247	0.0334037	0.00155149	0.00700466	0	0.00194574	11	8.50585e-07	0.000000000000000E+000	52182.5	0.000000000000000E+000	0.000000000000000E+000	0.00194574	0.00194574	0.0000000E+000	0.000000000000000E+000	1.47801e-05
1	1	0	0	0	0	2	1046.65	0.032	0.448307	0.0321312	0.00194749	0.00740065	0	0.00205574	11	8.99613e-07	0.000000000000000E+000	52834.9	0.000000000000000E+000	0.000000000000000E+000	0.00205574	0.00205574	0.0000000E+000	0.000000000000000E+000	1.44047e-05
1	1	0	0	0	0	2	1058.65	0.032	0.453334	0.0327675	0.00234363	0.00779679	0	0.00216577	11	9.49254e-07	0.000000000000000E+000	53734.6	0.000000000000000E+000	0.000000000000000E+000	0.00216577	0.00216577	0.0000000E+000	0.000000000000000E+000	1.48546e-05
1	1	0	0	0	0	2	1070.65	0.032	0.45774	0.0332765	0.00273993	0.00819309	0	0.00227586	11	9.99424e-07	0.000000000000000E+000	54802	0.000000000000000E+000	0.000000000000000E+000	0.00227586	0.00227586	0.0000000E+000	0.000000000000000E+000	1.5232e-05
1	1	0	0	0	0	2	1082.65	0.032	0.461565	0.0330856	0.00313611	0.00858927	0	0.00238591	11	1.05003e-06	0.000000000000000E+000	56018.5	0.000000000000000E+000	0.000000000000000E+000	0.00238591	0.00238591	0.0000000E+000	0.000000000000000E+000	1.52712e-05
1	1	0	0	0	0	2	1094.65	0.032	0.465081	0.033022	0.0035324	0.00898557	0	0.00249599	11	1.10105e-06	0.000000000000000E+000	57289.5	0.000000000000000E+000	0.000000000000000E+000	0.00249599	0.00249599	0.0000000E+000	0.000000000000000E+000	1.53579e-05
1	1	0	0	0	0	2	1106.65	0.032	0.468155	0.0323221	0.00392865	0.00938181	0	0.00260606	11	1.15242e-06	0.000000000000000E+000	58666.2	0.000000000000000E+000	0.000000000000000E+000	0.00260606	0.00260606	0.0000000E+000	0.000000000000000E+000	1.51317e-05
1	1	0	0	0	0	2	1118.65	0.032	0.470953	0.0331492	0.00432472	0.00977788	0	0.00271608	11	1.20409e-06	0.000000000000000E+000	60091.1	0.000000000000000E+000	0.000000000000000E+000	0.00271608	0.00271608	0.0000000E+000	0.000000000000000E+000	1.56117e-05
1	1	0	0	0	0	2	1130.65	0.032	0.473408	0.0325766	0.00472076	0.0101739	0	0.00282609	11	1.25606e-06	0.000000000000000E+000	61595.9	0.000000000000000E+000	0.000000000000000E+000	0.00282609	0.00282609	0.0000000E+000	0.000000000000000E+000	1.5422e-05
1	1	0	0	0	0	2	1142.65	0.032	0.475854	0.0335946	0.00511684	0.01057	0	0.00293611	11	1.3083e-06	0.000000000000000E+000	63060	0.000000000000000E+000	0.000000000000000E+000	0.00293611	0.00293611	0.0000000E+000	0.000000000000000E+000	1.59861e-05
1	1	0	0	0	0	2	1154.65	0.032	0.478018	0.0324494	0.00551294	0.0109661	0	0.00304614	11	1.36078e-06	0.000000000000000E+000	64589.4	0.000000000000000E+000	0.000000000000000E+000	0.00304614	0.00304614	0.0000000E+000	0.000000000000000E+000	1.55114e-05
1	1	0	0	0	0	2	1166.65	0.032	0.48017	0.0319404	0.00590897	0.0113621	0	0.00315615	11	1.41349e-06	0.000000000000000E+000	66084.1	0.000000000000000E+000	0.000000000000000E+000	0.00315615	0.00315615	0.0000000E+000	0.000000000000000E+000	1.53368e-05
1	1	0	1	0	0	3	1177.65	0.056	0.562942	0.0580267	0.000574444	0.0119696	0	0.00332488	11	1.50626e-06	0.000000000000000E+000	46993.8	0.000000000000000E+000	0.000000000000000E+000	0.00332488	0.00332488	0.0000000E+000	0.000000000000000E+000	3.26656e-05
1	1	0	1	0	0	3	1189.65	0.056	0.589021	0.0571995	0.00126401	0.0126591	0	0.00351643	11	1.61686e-06	0.000000000000000E+000	45084.8	0.000000000000000E+000	0.000000000000000E+000	0.00351643	0.00351643	0.0000000E+000	0.000000000000000E+000	3.36917e-05
1	1	0	1	0	0	3	1201.65	0.056	0.610981	0.0575177	0.00195373	0.0133489	0	0.00370802	11	1.73204e-06	0.000000000000000E+000	44092.8	0.000000000000000E+000	0.000000000000000E+000	0.00370802	0.00370802	0.0000000E+000	0.000000000000000E+000	3.51422e-05
1	1	0	1	0	0	3	1213.65	0.056	0.629298	0.0583448	0.00264318	0.0140383	0	0.00389953	11	1.851e-06	0.000000000000000E+000	43724.6	0.000000000000000E+000	0.000000000000000E+000	0.00389953	0.00389953	0.0000000E+000	0.000000000000000E+000	3.67163e-05
1	1	0	1	0	0	3	1225.65	0.056	0.644583	0.0573268	0.00333252	0.0147277	0	0.00409102	11	1.97314e-06	0.000000000000000E+000	43787	0.000000000000000E+000	0.000000000000000E+000	0.00409102	0.00409102	0.0000000E+000	0.000000000000000E+000	3.69519e-05
1	1	0	1	0	0	3	1237.65	0.056	0.656839	0.0570723	0.0040219	0.015417	0	0.00428251	11	2.09788e-06	0.000000000000000E+000	44225.1	0.000000000000000E+000	0.000000000000000E+000	0.00428251	0.00428251	0.0000000E+000	0.000000000000000E+000	3.74873e-05
1	1	0	1	0	0	3	1249.65	0.056	0.666762	0.0580903	0.00471129	0.0161064	0	0.00447401	11	2.22473e-06	0.000000000000000E+000	44924	0.000000000000000E+000	0.000000000000000E+000	0.00447401	0.00447401	0.0000000E+000	0.000000000000000E+000	3.87324e-05
1	1	0	1	0	0	3	1261.65	0.056	0.674591	0.0575813	0.00540067	0.0167958	0	0.0046655	11	2.35325e-06	0.000000000000000E+000	45845.8	0.000000000000000E+000	0.000000000000000E+000	0.0046655	0.0046655	0.0000000E+000	0.000000000000000E+000	3.88438e-05
1	1	0	1	0	0	3	1273.65	0.056	0.680962	0.0573268	0.00608998	0.0174851	0	0.00485698	11	2.4831e-06	0.000000000000000E+000	46911.4	0.000000000000000E+000	0.000000000000000E+000	0.00485698	0.00485698	0.0000000E+000	0.000000000000000E+000	3.90374e-05
1	1	0	1	0	0	3	1285.65	0.056	0.686139	0.0579631	0.00677924	0.0181744	0	0.00504844	11	2.61403e-06	0.000000000000000E+000	48092.8	0.000000000000000E+000	0.000000000000000E+000	0.00504844	0.00504844	0.0000000E+000	0.000000000000000E+000	3.97707e-05
1	1	0	1	0	0	3	1297.65	0.056	0.690376	0.0568178	0.00746843	0.0188636	0	0.00523988	11	2.74584e-06	0.000000000000000E+000	49363	0.000000000000000E+000	0.000000000000000E+000	0.00523988	0.00523988	0.0000000E+000	0.000000000000000E+000	3.92256e-05
1	1	0	1	0	0	3	1309.65	0.056	0.694019	0.056945	0.00815773	0.0195529	0	0.00543135	11	2.87841e-06	0.000000000000000E+000	50683.6	0.000000000000000E+000	0.000000000000000E+000	0.00543135	0.00543135	0.0000000E+000	0.000000000000000E+000	3.9521e-05
1	1	0	1	0	0	3	1321.65	0.056	0.697134	0.0578358	0.00884708	0.0202422	0	0.00562284	11	3.01164e-06	0.000000000000000E+000	52050.3	0.000000000000000E+000	0.000000000000000E+000	0.00562284	0.00562284	0.0000000E+000	0.000000000000000E+000	4.03193e-05
1	1	0	1	0	0	3	1333.65	0.056	0.699761	0.0575177	0.00953642	0.0209316	0	0.00581432	11	3.14539e-06	0.000000000000000E+000	53461.6	0.000000000000000E+000	0.000000000000000E+000	0.00581432	0.00581432	0.0000000E+000	0.000000000000000E+000	4.02486e-05
1	1	0	1	0	0	3	1345.65	0.056	0.701989	0.0575813	0.0102256	0.0216207	0	0.00600576	11	3.27959e-06	0.000000000000000E+000	54909.4	0.000000000000000E+000	0.000000000000000E+000	0.00600576	0.00600576	0.0000000E+000	0.000000000000000E+000	4.04214e-05
1	1	0	0	0	0	4	1356.65	0.1	0.74999	0.101292	0.00091136	0.022647	0	0.00629082	11	3.49161e-06	0.000000000000000E+000	51266	0.000000000000000E+000	0.000000000000000E+000	0.00629082	0.00629082	0.0000000E+000	0.000000000000000E+000	7.59678e-05
1	1	0	0	0	0	4	1368.65	0.1	0.754313	0.101165	0.00212648	0.0238621	0	0.00662836	11	3.74558e-06	0.000000000000000E+000	53493.2	0.000000000000000E+000	0.000000000000000E+000	0.00662836	0.00662836	0.0000000E+000	0.000000000000000E+000	7.63097e-05
1	1	0	0	0	0	4	1380.65	0.1	0.757551	0.101419	0.00334154	0.0250771	0	0.00696587	11	4.0008e-06	0.000000000000000E+000	55811.9	0.000000000000000E+000	0.000000000000000E+000	0.00696587	0.00696587	0.0000000E+000	0.000000000000000E+000	7.68301e-05
1	1	0	0	0	0	4	1392.65	0.1	0.75996	0.100656	0.00455663	0.0262922	0	0.0073034	11	4.25696e-06	0.000000000000000E+000	58204.2	0.000000000000000E+000	0.000000000000000E+000	0.0073034	0.0073034	0.0000000E+000	0.000000000000000E+000	7.64942e-05
1	1	0	0	0	0	4	1404.65	0.1	0.761877	0.101546	0.00577177	0.0275074	0	0.00764094	11	4.51384e-06	0.000000000000000E+000	60636.8	0.000000000000000E+000	0.000000000000000E+000	0.00764094	0.00764094	0.0000000E+000	0.000000000000000E+000	7.73658e-05
1	1	0	0	0	0	4	1416.65	0.1	0.763425	0.101483	0.00698699	0.0287226	0	0.0079785	11	4.77131e-06	0.000000000000000E+000	63100.4	0.000000000000000E+000	0.000000000000000E+000	0.0079785	0.0079785	0.0000000E+000	0.000000000000000E+000	7.74744e-05
1	1	0	0	0	0	4	1428.65	0.1	0.764861	0.10161	0.00820227	0.0299379	0	0.00831608	11	5.02929e-06	0.000000000000000E+000	65563.3	0.000000000000000E+000	0.000000000000000E+000	0.00831608	0.00831608	0.0000000E+000	0.000000000000000E+000	7.77175e-05
1	1	0	0	0	0	4	1440.65	0.1	0.765997	0.101165	0.00941776	0.0311534	0	0.00865371	11	5.28775e-06	0.000000000000000E+000	68056	0.000000000000000E+000	0.000000000000000E+000	0.00865371	0.00865371	0.0000000E+000	0.000000000000000E+000	7.74917e-05
1	1	0	0	0	0	4	1452.65	0.1	0.767102	0.101101	0.010633	0.0323686	0	0.00899127	11	5.54653e-06	0.000000000000000E+000	70540.4	0.000000000000000E+000	0.000000000000000E+000	0.00899127	0.00899127	0.0000000E+000	0.000000000000000E+000	7.75547e-05
1	1	0	0	0	0	4	1464.65	0.1	0.767999	0.102564	0.0118483	0.0335839	0	0.00932885	11	5.80566e-06	0.000000000000000E+000	73046.1	0.000000000000000E+000	0.000000000000000E+000	0.00932885	0.00932885	0.0000000E+000	0.000000000000000E+000	7.87692e-05
1	1	0	0	0	0	4	1476.65	0.1	0.768823	0.100719	0.0130633	0.0347989	0	0.00966636	11	6.06503e-06	0.000000000000000E+000	75553.3	0.000000000000000E+000	0.000000000000000E+000	0.00966636	0.00966636	0.0000000E+000	0.000000000000000E+000	7.74353e-05
1	1	0	0	0	0	4	1488.65	0.1	0.769555	0.101355	0.0142785	0.0360141	0	0.0100039	11	6.32469e-06	0.000000000000000E+000	78067.8	0.000000000000000E+000	0.000000000000000E+000	0.0100039	0.0100039	0.0000000E+000	0.000000000000000E+000	7.79985e-05
1	1	0	0	0	0	4	1500.65	0.1	0.770332	0.101228	0.0154938	0.0372294	0	0.0103415	11	6.58461e-06	0.000000000000000E+000	80566.2	0.000000000000000E+000	0.000000000000000E+000	0.0103415	0.0103415	0.0000000E+000	0.000000000000000E+000	7.79793e-05
1	1	0	0	0	0	4	1512.65	0.1	0.770842	0.101355	0.016709	0.0384446	0	0.0106791	11	6.84476e-06	0.000000000000000E+000	83104.5	0.000000000000000E+000	0.000000000000000E+000	0.0106791	0.0106791	0.0000000E+000	0.000000000000000E+000	7.8129e-05
1	1	0	0	0	0	4	1524.65	0.1	0.771509	0.100592	0.017924	0.0396597	0	0.0110166	11	7.10507e-06	0.000000000000000E+000	85607.5	0.000000000000000E+000	0.000000000000000E+000	0.0110166	0.0110166	0.0000000E+000	0.000000000000000E+000	7.76076e-05
1	1	0	1	0	0	5	1535.65	0.178	0.812767	0.178342	0.00143276	0.0413962	0	0.0114989	11	7.49363e-06	0.000000000000000E+000	82048.9	0.000000000000000E+000	0.000000000000000E+000	0.0114989	0.0114989	0.0000000E+000	0.000000000000000E+000	0.00014495
1	1	0	1	0	0	5	1547.65	0.178	0.81445	0.179169	0.00358193	0.0435454	0	0.0120959	11	7.97939e-06	0.000000000000000E+000	86021.6	0.000000000000000E+000	0.000000000000000E+000	0.0120959	0.0120959	0.0000000E+000	0.000000000000000E+000	0.000145924
1	1	0	1	0	0	5	1559.65	0.178	0.815781	0.179105	0.0057311	0.0456945	0	0.0126929	11	8.46607e-06	0.000000000000000E+000	90030.6	0.000000000000000E+000	0.000000000000000E+000	0.0126929	0.0126929	0.0000000E+000	0.000000000000000E+000	0.000146111
1	1	0	1	0	0	5	1571.65	0.178	0.816818	0.178914	0.0078804	0.0478438	0	0.01329	11	8.95349e-06	0.000000000000000E+000	94073.1	0.000000000000000E+000	0.000000000000000E+000	0.01329	0.01329	0.0000000E+000	0.000000000000000E+000	0.00014614
1	1	0	1	0	0	5	1583.65	0.178	0.817739	0.178787	0.0100296	0.049993	0	0.0138869	11	9.44145e-06	0.000000000000000E+000	98121	0.000000000000000E+000	0.000000000000000E+000	0.0138869	0.0138869	0.0000000E+000	0.000000000000000E+000	0.000146201
1	1	0	1	0	0	5	1595.65	0.178	0.818517	0.179169	0.0121789	0.0521423	0	0.014484	11	9.92994e-06	0.000000000000000E+000	102184	0.000000000000000E+000	0.000000000000000E+000	0.014484	0.014484	0.0000000E+000	0.000000000000000E+000	0.000146653
1	1	0	1	0	0	5	1607.65	0.178	0.819062	0.178978	0.0143281	0.0542916	0	0.015081	11	1.04188e-05	0.000000000000000E+000	106282	0.000000000000000E+000	0.000000000000000E+000	0.015081	0.015081	0.0000000E+000	0.000000000000000E+000	0.000146594
1	1	0	1	0	0	5	1619.65	0.178	0.81997	0.179233	0.0164774	0.0564408	0	0.015678	11	1.09081e-05	0.000000000000000E+000	110293	0.000000000000000E+000	0.000000000000000E+000	0.015678	0.015678	0.0000000E+000	0.000000000000000E+000	0.000146965
1	1	0	1	0	0	5	1631.65	0.178	0.82052	0.179614	0.0186267	0.0585901	0	0.016275	11	1.13978e-05	0.000000000000000E+000	114370	0.000000000000000E+000	0.000000000000000E+000	0.016275	0.016275	0.0000000E+000	0.000000000000000E+000	0.000147377
1	1	0	1	0	0	5	1643.65	0.178	0.821133	0.178787	0.020776	0.0607395	0	0.0168721	11	1.18879e-05	0.000000000000000E+000	118424	0.000000000000000E+000	0.000000000000000E+000	0.0168721	0.0168721	0.0000000E+000	0.000000000000000E+000	0.000146808
1	1	0	1	0	0	5	1655.65	0.178	0.821612	0.179105	0.0229253	0.0628887	0	0.0174691	11	1.23783e-05	0.000000000000000E+000	122500	0.000000000000000E+000	0.000000000000000E+000	0.0174691	0.0174691	0.0000000E+000	0.000000000000000E+000	0.000147155
1	1	0	1	0	0	5	1667.65	0.178	0.822119	0.179169	0.0250744	0.0650379	0	0.0180661	11	1.28689e-05	0.000000000000000E+000	126562	0.000000000000000E+000	0.000000000000000E+000	0.0180661	0.0180661	0.0000000E+000	0.000000000000000E+000	0.000147298
1	1	0	1	0	0	5	1679.65	0.178	0.822426	0.179169	0.0272236	0.067187	0	0.0186631	11	1.33598e-05	0.000000000000000E+000	130666	0.000000000000000E+000	0.000000000000000E+000	0.0186631	0.0186631	0.0000000E+000	0.000000000000000E+000	0.000147353
1	1	0	1	0	0	5	1691.65	0.178	0.822952	0.178914	0.029373	0.0693365	0	0.0192601	11	1.3851e-05	0.000000000000000E+000	134708	0.000000000000000E+000	0.000000000000000E+000	0.0192601	0.0192601	0.0000000E+000	0.000000000000000E+000	0.000147238
1	1	0	1	0	0	5	1703.65	0.178	0.823165	0.179551	0.0315224	0.0714858	0	0.0198572	11	1.43423e-05	0.000000000000000E+000	138826	0.000000000000000E+000	0.000000000000000E+000	0.0198572	0.0198572	0.0000000E+000	0.000000000000000E+000	0.0001478
1	1	0	0	0	0	6	1714.65	0.316	0.869548	0.318381	0.00222069	0.074423	0	0.0206731	11	1.50423e-05	0.000000000000000E+000	132588	0.000000000000000E+000	0.000000000000000E+000	0.0206731	0.0206731	0.0000000E+000	0.000000000000000E+000	0.000276847
1	1	0	0	0	0	6	1726.65	0.316	0.8711	0.317045	0.00602744	0.0782297	0	0.0217305	11	1.59627e-05	0.000000000000000E+000	138985	0.000000000000000E+000	0.000000000000000E+000	0.0217305	0.0217305	0.0000000E+000	0.000000000000000E+000	0.000276178
1	1	0	0	0	0	6	1738.65	0.316	0.872535	0.317299	0.0098342	0.0820365	0	0.0227879	11	1.68846e-05	0.000000000000000E+000	145378	0.000000000000000E+000	0.000000000000000E+000	0.0227879	0.0227879	0.0000000E+000	0.000000000000000E+000	0.000276855
1	1	0	0	0	0	6	1750.65	0.316	0.873875	0.317872	0.013641	0.0858433	0	0.0238454	11	1.78082e-05	0.000000000000000E+000	151763	0.000000000000000E+000	0.000000000000000E+000	0.0238454	0.0238454	0.0000000E+000	0.000000000000000E+000	0.00027778
1	1	0	0	0	0	6	1762.65	0.316	0.87515	0.316854	0.0174478	0.0896501	0	0.0249028	11	1.87331e-05	0.000000000000000E+000	158137	0.000000000000000E+000	0.000000000000000E+000	0.0249028	0.0249028	0.0000000E+000	0.000000000000000E+000	0.000277295
1	1	0	0	0	0	6	1774.65	0.316	0.876248	0.317108	0.0212546	0.0934569	0	0.0259602	11	1.96592e-05	0.000000000000000E+000	164533	0.000000000000000E+000	0.000000000000000E+000	0.0259602	0.0259602	0.0000000E+000	0.000000000000000E+000	0.000277866
1	1	0	0	0	0	6	1786.65	0.316	0.877066	0.316663	0.0250615	0.0972638	0	0.0270177	11	2.05861e-05	0.000000000000000E+000	170989	0.000000000000000E+000	0.000000000000000E+000	0.0270177	0.0270177	0.0000000E+000	0.000000000000000E+000	0.000277734
1	1	0	0	0	0	6	1798.65	0.316	0.878171	0.31749	0.0288683	0.101071	0	0.0280752	11	2.15142e-05	0.000000000000000E+000	177337	0.000000000000000E+000	0.000000000000000E+000	0.0280752	0.0280752	0.0000000E+000	0.000000000000000E+000	0.000278811
1	1	0	0	0	0	6	1810.65	0.316	0.878853	0.317808	0.0326752	0.104878	0	0.0291326	11	2.24431e-05	0.000000000000000E+000	183797	0.000000000000000E+000	0.000000000000000E+000	0.0291326	0.0291326	0.0000000E+000	0.000000000000000E+000	0.000279307
1	1	0	0	0	0	6	1822.65	0.316	0.879804	0.317617	0.0364821	0.108684	0	0.0301901	11	2.33728e-05	0.000000000000000E+000	190151	0.000000000000000E+000	0.000000000000000E+000	0.0301901	0.0301901	0.0000000E+000	0.000000000000000E+000	0.000279441
1	1	0	0	0	0	6	1834.65	0.316	0.88076	0.316727	0.0402891	0.112491	0	0.0312476	11	2.43037e-05	0.000000000000000E+000	196483	0.000000000000000E+000	0.000000000000000E+000	0.0312476	0.0312476	0.0000000E+000	0.000000000000000E+000	0.00027896
1	1	0	0	0	0	6	1846.65	0.316	0.881338	0.317172	0.044096	0.116298	0	0.0323051	11	2.52354e-05	0.000000000000000E+000	202928	0.000000000000000E+000	0.000000000000000E+000	0.0323051	0.0323051	0.0000000E+000	0.000000000000000E+000	0.000279536
1	1	0	0	0	0	6	1858.65	0.316	0.881903	0.317045	0.047903	0.120105	0	0.0333626	11	2.61676e-05	0.000000000000000E+000	209364	0.000000000000000E+000	0.000000000000000E+000	0.0333626	0.0333626	0.0000000E+000	0.000000000000000E+000	0.000279603
1	1	0	0	0	0	6	1870.65	0.316	0.882705	0.317108	0.05171	0.123912	0	0.0344201	11	2.71006e-05	0.000000000000000E+000	215699	0.000000000000000E+000	0.000000000000000E+000	0.0344201	0.0344201	0.0000000E+000	0.000000000000000E+000	0.000279913
1	1	0	0	0	0	6	1882.65	0.316	0.883114	0.317681	0.055517	0.127719	0	0.0354776	11	2.80344e-05	0.000000000000000E+000	222168	0.000000000000000E+000	0.000000000000000E+000	0.0354776	0.0354776	0.0000000E+000	0.000000000000000E+000	0.000280548
1	1	0	1	0	0	7	1893.65	0.562	0.948126	0.563719	0.00338034	0.132686	0	0.0368572	11	2.93122e-05	0.000000000000000E+000	207357	0.000000000000000E+000	0.000000000000000E+000	0.0368572	0.0368572	0.0000000E+000	0.000000000000000E+000	0.000534477
1	1	0	1	0	0	7	1905.65	0.562	0.952464	0.563592	0.0101412	0.139447	0	0.0387352	11	3.10972e-05	0.000000000000000E+000	216456	0.000000000000000E+000	0.000000000000000E+000	0.0387352	0.0387352	0.0000000E+000	0.000000000000000E+000	0.000536801
1	1	0	1	0	0	7	1917.65	0.562	0.956125	0.563083	0.0169018	0.146207	0	0.0406132	11	3.28902e-05	0.000000000000000E+000	225668	0.000000000000000E+000	0.000000000000000E+000	0.0406132	0.0406132	0.0000000E+000	0.000000000000000E+000	0.000538378
1	1	0	1	0	0	7	1929.65	0.562	0.959863	0.563592	0.0236626	0.152968	0	0.0424912	11	3.46899e-05	0.000000000000000E+000	234748	0.000000000000000E+000	0.000000000000000E+000	0.0424912	0.0424912	0.0000000E+000	0.000000000000000E+000	0.000540971
1	1	0	1	0	0	7	1941.65	0.562	0.963194	0.562638	0.0304235	0.159729	0	0.0443692	11	3.64959e-05	0.000000000000000E+000	243877	0.000000000000000E+000	0.000000000000000E+000	0.0443692	0.0443692	0.0000000E+000	0.000000000000000E+000	0.00054193
1	1	0	1	0	0	7	1953.65	0.562	0.966165	0.563719	0.0371843	0.16649	0	0.0462472	11	3.83077e-05	0.000000000000000E+000	253052	0.000000000000000E+000	0.000000000000000E+000	0.0462472	0.0462472	0.0000000E+000	0.000000000000000E+000	0.000544646
1	1	0	1	0	0	7	1965.65	0.562	0.968907	0.563529	0.0439452	0.173251	0	0.0481252	11	4.01248e-05	0.000000000000000E+000	262235	0.000000000000000E+000	0.000000000000000E+000	0.0481252	0.0481252	0.0000000E+000	0.000000000000000E+000	0.000546007
1	1	0	1	0	0	7	1977.65	0.562	0.971573	0.56302	0.0507059	0.180012	0	0.0500032	11	4.19467e-05	0.000000000000000E+000	271373	0.000000000000000E+000	0.000000000000000E+000	0.0500032	0.0500032	0.0000000E+000	0.000000000000000E+000	0.000547014
1	1	0	1	0	0	7	1989.65	0.562	0.974991	0.562511	0.0574666	0.186772	0	0.0518812	11	4.37748e-05	0.000000000000000E+000	280121	0.000000000000000E+000	0.000000000000000E+000	0.0518812	0.0518812	0.0000000E+000	0.000000000000000E+000	0.000548443
1	1	0	1	0	0	7	2001.65	0.562	0.977607	0.56302	0.0642274	0.193533	0	0.0537592	11	4.56086e-05	0.000000000000000E+000	289127	0.000000000000000E+000	0.000000000000000E+000	0.0537592	0.0537592	0.0000000E+000	0.000000000000000E+000	0.000550412
1	1	0	1	0	0	7	2013.65	0.562	0.979785	0.563338	0.0709883	0.200294	0	0.0556372	11	4.74467e-05	0.000000000000000E+000	298257	0.000000000000000E+000	0.000000000000000E+000	0.0556372	0.0556372	0.0000000E+000	0.000000000000000E+000	0.00055195
1	1	0	1	0	0	7	2025.65	0.562	0.981533	0.562701	0.077749	0.207055	0	0.0575152	11	4.92889e-05	0.000000000000000E+000	307524	0.000000000000000E+000	0.000000000000000E+000	0.0575152	0.0575152	0.0000000E+000	0.000000000000000E+000	0.00055231
1	1	0	1	0	0	7	2037.65	0.562	0.984094	0.563147	0.0845098	0.213815	0	0.0593932	11	5.11353e-05	0.000000000000000E+000	316362	0.000000000000000E+000	0.000000000000000E+000	0.0593932	0.0593932	0.0000000E+000	0.000000000000000E+000	0.000554189
1	1	0	1	0	0	7	2049.65	0.562	0.986552	0.564483	0.0912706	0.220576	0	0.0612712	11	5.2986e-05	0.000000000000000E+000	325182	0.000000000000000E+000	0.000000000000000E+000	0.0612712	0.0612712	0.0000000E+000	0.000000000000000E+000	0.000556892
1	1	0	1	0	0	7	2061.65	0.562	0.988665	0.56321	0.0980314	0.227337	0	0.0631492	11	5.48406e-05	0.000000000000000E+000	334108	0.000000000000000E+000	0.000000000000000E+000	0.0631492	0.0631492	0.0000000E+000	0.000000000000000E+000	0.000556827
1	1	0	0	0	0	8	2072.65	1	1.09371	1.00197	0.00500592	0.235724	0	0.0654788	11	5.72862e-05	0.000000000000000E+000	300102	0.000000000000000E+000	0.000000000000000E+000	0.0654788	0.0654788	0.0000000E+000	0.000000000000000E+000	0.00109587
1	1	0	0	0	0	8	2084.65	1	1.10423	1.00076	0.0170203	0.247738	0	0.0688161	11	6.09568e-05	0.000000000000000E+000	311232	0.000000000000000E+000	0.000000000000000E+000	0.0688161	0.0688161	0.0000000E+000	0.000000000000000E+000	0.00110507
1	1	0	0	0	0	8	2096.65	1	1.11023	1.00146	0.0290348	0.259752	0	0.0721535	11	6.46542e-05	0.000000000000000E+000	323885	0.000000000000000E+000	0.000000000000000E+000	0.0721535	0.0721535	0.0000000E+000	0.000000000000000E+000	0.00111185
1	1	0	0	0	0	8	2108.65	1	1.11788	1.00133	0.0410494	0.271767	0	0.0754908	11	6.83739e-05	0.000000000000000E+000	335664	0.000000000000000E+000	0.000000000000000E+000	0.0754908	0.0754908	0.0000000E+000	0.000000000000000E+000	0.00111937
1	1	0	0	0	0	8	2120.65	1	1.12272	1.00133	0.0530639	0.283782	0	0.0788282	11	7.21109e-05	0.000000000000000E+000	348417	0.000000000000000E+000	0.000000000000000E+000	0.0788282	0.0788282	0.0000000E+000	0.000000000000000E+000	0.00112422
1	1	0	0	0	0	8	2132.65	1	1.12429	1.00267	0.0650784	0.295796	0	0.0821656	11	7.58651e-05	0.000000000000000E+000	362471	0.000000000000000E+000	0.000000000000000E+000	0.0821656	0.0821656	0.0000000E+000	0.000000000000000E+000	0.00112729
1	1	0	0	0	0	8	2144.65	1	1.12658	1.00152	0.0770928	0.30781	0	0.0855029	11	7.96236e-05	0.000000000000000E+000	376140	0.000000000000000E+000	0.000000000000000E+000	0.0855029	0.0855029	0.0000000E+000	0.000000000000000E+000	0.00112829
1	1	0	0	0	0	8	2156.65	1	1.12928	1.00114	0.0891072	0.319825	0	0.0888402	11	8.33882e-05	0.000000000000000E+000	389536	0.000000000000000E+000	0.000000000000000E+000	0.0888402	0.0888402	0.0000000E+000	0.000000000000000E+000	0.00113057
1	1	0	0	0	0	8	2168.65	1	1.13009	1.00159	0.101122	0.331839	0	0.0921776	11	8.71573e-05	0.000000000000000E+000	403769	0.000000000000000E+000	0.000000000000000E+000	0.0921776	0.0921776	0.0000000E+000	0.000000000000000E+000	0.00113189
1	1	0	0	0	0	8	2180.65	1	1.13225	1.00012	0.113136	0.343853	0	0.0955148	11	9.09356e-05	0.000000000000000E+000	417290	0.000000000000000E+000	0.000000000000000E+000	0.0955148	0.0955148	0.0000000E+000	0.000000000000000E+000	0.00113239
1	1	0	0	0	0	8	2192.65	1	1.13512	1.00095	0.12515	0.355868	0	0.0988521	11	9.47217e-05	0.000000000000000E+000	430371	0.000000000000000E+000	0.000000000000000E+000	0.0988521	0.0988521	0.0000000E+000	0.000000000000000E+000	0.0011362
1	1	0	0	0	0	8	2204.65	1	1.13685	1.00184	0.137164	0.367882	0	0.102189	11	9.85129e-05	0.000000000000000E+000	443975	0.000000000000000E+000	0.000000000000000E+000	0.102189	0.102189	0.0000000E+000	0.000000000000000E+000	0.00113894
1	1	0	0	0	0	8	2216.65	1	1.14224	1.00152	0.149178	0.379896	0	0.105527	11	0.000102319	0.000000000000000E+000	455506	0.000000000000000E+000	0.000000000000000E+000	0.105527	0.105527	0.0000000E+000	0.000000000000000E+000	0.00114399
1	1	0	0	0	0	8	2228.65	1	1.14499	1.00146	0.161193	0.39191	0	0.108864	11	0.000106134	0.000000000000000E+000	468370	0.000000000000000E+000	0.000000000000000E+000	0.108864	0.108864	0.0000000E+000	0.000000000000000E+000	0.00114666
1	1	0	0	0	0	8	2240.65	1	1.14707	1.00082	0.173207	0.403924	0	0.112201	11	0.000109959	0.000000000000000E+000	481532	0.000000000000000E+000	0.000000000000000E+000	0.112201	0.112201	0.0000000E+000	0.000000000000000E+000	0.00114801
1	1	0	1	0	0	9	2251.65	1.778	1.28172	1.77864	0.00711469	0.418048	0	0.116124	11	0.000114729	0.000000000000000E+000	429433	0.000000000000000E+000	0.000000000000000E+000	0.116124	0.116124	0.0000000E+000	0.000000000000000E+000	0.00227973
1	1	0	1	0	0	9	2263.65	1.778	1.27807	1.77826	0.0284592	0.439392	0	0.122053	11	0.000122312	0.000000000000000E+000	453058	0.000000000000000E+000	0.000000000000000E+000	0.122053	0.122053	0.0000000E+000	0.000000000000000E+000	0.00227275
1	1	0	1	0	0	9	2275.65	1.778	1.27633	1.77813	0.0498037	0.460737	0	0.127982	11	0.000129884	0.000000000000000E+000	475923	0.000000000000000E+000	0.000000000000000E+000	0.127982	0.127982	0.0000000E+000	0.000000000000000E+000	0.00226948
1	1	0	1	0	0	9	2287.65	1.778	1.27856	1.77858	0.0711482	0.482081	0	0.133911	11	0.000137458	0.000000000000000E+000	496824	0.000000000000000E+000	0.000000000000000E+000	0.133911	0.133911	0.0000000E+000	0.000000000000000E+000	0.00227402
1	1	0	1	0	0	9	2299.65	1.778	1.28105	1.77781	0.0924929	0.503426	0	0.139841	11	0.000145045	0.000000000000000E+000	517494	0.000000000000000E+000	0.000000000000000E+000	0.139841	0.139841	0.0000000E+000	0.000000000000000E+000	0.00227747
1	1	0	1	0	0	9	2311.65	1.778	1.28259	1.77915	0.113837	0.52477	0	0.14577	11	0.00015264	0.000000000000000E+000	538582	0.000000000000000E+000	0.000000000000000E+000	0.14577	0.14577	0.0000000E+000	0.000000000000000E+000	0.00228193
1	1	0	1	0	0	9	2323.65	1.778	1.2836	1.77941	0.135182	0.546115	0	0.151699	11	0.000160245	0.000000000000000E+000	559908	0.000000000000000E+000	0.000000000000000E+000	0.151699	0.151699	0.0000000E+000	0.000000000000000E+000	0.00228405
1	1	0	1	0	0	9	2335.65	1.778	1.28755	1.77845	0.156527	0.567459	0	0.157628	11	0.000167867	0.000000000000000E+000	579446	0.000000000000000E+000	0.000000000000000E+000	0.157628	0.157628	0.0000000E+000	0.000000000000000E+000	0.00228984
1	1	0	1	0	0	9	2347.65	1.778	1.28973	1.77826	0.177871	0.588804	0	0.163557	11	0.000175501	0.000000000000000E+000	599907	0.000000000000000E+000	0.000000000000000E+000	0.163557	0.163557	0.0000000E+000	0.000000000000000E+000	0.00229347
1	1	0	1	0	0	9	2359.65	1.778	1.29344	1.77953	0.199215	0.610148	0	0.169486	11	0.000183154	0.000000000000000E+000	619313	0.000000000000000E+000	0.000000000000000E+000	0.169486	0.169486	0.0000000E+000	0.000000000000000E+000	0.00230171
1	1	0	1	0	0	9	2371.65	1.778	1.29432	1.77832	0.22056	0.631493	0	0.175415	11	0.000190827	0.000000000000000E+000	640404	0.000000000000000E+000	0.000000000000000E+000	0.175415	0.175415	0.0000000E+000	0.000000000000000E+000	0.00230172
1	1	0	1	0	0	9	2383.65	1.778	1.29645	1.7782	0.241904	0.652837	0	0.181344	11	0.000198514	0.000000000000000E+000	660620	0.000000000000000E+000	0.000000000000000E+000	0.181344	0.181344	0.0000000E+000	0.000000000000000E+000	0.00230535
1	1	0	1	0	0	9	2395.65	1.778	1.29407	1.77864	0.263248	0.674181	0	0.187273	11	0.000206192	0.000000000000000E+000	683868	0.000000000000000E+000	0.000000000000000E+000	0.187273	0.187273	0.0000000E+000	0.000000000000000E+000	0.00230169
1	1	0	1	0	0	9	2407.65	1.778	1.29318	1.7789	0.284593	0.695526	0	0.193202	11	0.000213857	0.000000000000000E+000	706160	0.000000000000000E+000	0.000000000000000E+000	0.193202	0.193202	0.0000000E+000	0.000000000000000E+000	0.00230043
1	1	0	1	0	0	9	2419.65	1.778	1.29764	1.77826	0.305937	0.71687	0	0.199131	11	0.000221538	0.000000000000000E+000	724544	0.000000000000000E+000	0.000000000000000E+000	0.199131	0.199131	0.0000000E+000	0.000000000000000E+000	0.00230755
1	1	0	0	0	0	10	2430.65	3.162	1.44731	3.16287	0.0094889	0.740589	0	0.205719	11	0.00023049	0.000000000000000E+000	650165	0.000000000000000E+000	0.000000000000000E+000	0.205719	0.205719	0.0000000E+000	0.000000000000000E+000	0.00457767
1	1	0	0	0	0	10	2442.65	3.162	1.4418	3.16376	0.0474457	0.778546	0	0.216263	11	0.0002457	0.000000000000000E+000	686811	0.000000000000000E+000	0.000000000000000E+000	0.216263	0.216263	0.0000000E+000	0.000000000000000E+000	0.00456152
1	1	0	0	0	0	10	2454.65	3.162	1.44639	3.16325	0.0854025	0.816503	0	0.226806	11	0.000260916	0.000000000000000E+000	717395	0.000000000000000E+000	0.000000000000000E+000	0.226806	0.226806	0.0000000E+000	0.000000000000000E+000	0.00457528
1	1	0	0	0	0	10	2466.65	3.162	1.45594	3.16325	0.123359	0.854459	0	0.23735	11	0.000276204	0.000000000000000E+000	744496	0.000000000000000E+000	0.000000000000000E+000	0.23735	0.23735	0.0000000E+000	0.000000000000000E+000	0.0046055
1	1	0	0	0	0	10	2478.65	3.162	1.4611	3.16351	0.161316	0.892416	0	0.247893	11	0.000291579	0.000000000000000E+000	774085	0.000000000000000E+000	0.000000000000000E+000	0.247893	0.247893	0.0000000E+000	0.000000000000000E+000	0.0046222
1	1	0	0	0	0	10	2490.65	3.162	1.46808	3.16338	0.199272	0.930372	0	0.258437	11	0.000307026	0.000000000000000E+000	802156	0.000000000000000E+000	0.000000000000000E+000	0.258437	0.258437	0.0000000E+000	0.000000000000000E+000	0.00464408
1	1	0	0	0	0	10	2502.65	3.162	1.46488	3.16395	0.237229	0.968329	0	0.26898	11	0.000322498	0.000000000000000E+000	837188	0.000000000000000E+000	0.000000000000000E+000	0.26898	0.26898	0.0000000E+000	0.000000000000000E+000	0.00463481
1	1	0	0	0	0	10	2514.65	3.162	1.47248	3.16389	0.275185	1.00629	0	0.279524	11	0.000337997	0.000000000000000E+000	864324	0.000000000000000E+000	0.000000000000000E+000	0.279524	0.279524	0.0000000E+000	0.000000000000000E+000	0.00465877
1	1	0	0	0	0	10	2526.65	3.162	1.48263	3.16255	0.313142	1.04424	0	0.290067	11	0.000353596	0.000000000000000E+000	889173	0.000000000000000E+000	0.000000000000000E+000	0.290067	0.290067	0.0000000E+000	0.000000000000000E+000	0.0046889
1	1	0	0	0	0	10	2538.65	3.162	1.49291	3.16363	0.351099	1.0822	0	0.300611	11	0.000369297	0.000000000000000E+000	913498	0.000000000000000E+000	0.000000000000000E+000	0.300611	0.300611	0.0000000E+000	0.000000000000000E+000	0.00472303
1	1	0	0	0	0	10	2550.65	3.162	1.49568	3.16376	0.389055	1.12016	0	0.311154	11	0.000385069	0.000000000000000E+000	943332	0.000000000000000E+000	0.000000000000000E+000	0.311154	0.311154	0.0000000E+000	0.000000000000000E+000	0.00473198
1	1	0	0	0	0	10	2562.65	3.162	1.49634	3.16281	0.427012	1.15811	0	0.321698	11	0.00040081	0.000000000000000E+000	974753	0.000000000000000E+000	0.000000000000000E+000	0.321698	0.321698	0.0000000E+000	0.000000000000000E+000	0.00473265
1	1	0	0	0	0	10	2574.65	3.162	1.50827	3.16332	0.464968	1.19607	0	0.332241	11	0.000416676	0.000000000000000E+000	996698	0.000000000000000E+000	0.000000000000000E+000	0.332241	0.332241	0.0000000E+000	0.000000000000000E+000	0.00477112
1	1	0	0	0	0	10	2586.65	3.162	1.51242	3.16344	0.502924	1.23402	0	0.342785	11	0.000432619	0.000000000000000E+000	1.02478e+06	0.000000000000000E+000	0.000000000000000E+000	0.342785	0.342785	0.0000000E+000	0.000000000000000E+000	0.00478446
1	1	0	0	0	0	10	2598.65	3.162	1.51947	3.16281	0.540881	1.27198	0	0.353328	11	0.000448622	0.000000000000000E+000	1.05015e+06	0.000000000000000E+000	0.000000000000000E+000	0.353328	0.353328	0.0000000E+000	0.000000000000000E+000	0.0048058
1	1	0	1	0	0	11	2609.65	5.623	1.70231	5.6251	0.0112473	1.3117	0	0.36436	11	0.000465986	0.000000000000000E+000	940906	0.000000000000000E+000	0.000000000000000E+000	0.36436	0.36436	0.0000000E+000	0.000000000000000E+000	0.00957569
1	1	0	1	0	0	11	2621.65	5.623	1.73599	5.62453	0.0787345	1.37918	0	0.383106	11	0.000498188	0.000000000000000E+000	965980	0.000000000000000E+000	0.000000000000000E+000	0.383106	0.383106	0.0000000E+000	0.000000000000000E+000	0.00976413
1	1	0	1	0	0	11	2633.65	5.623	1.77304	5.62402	0.146222	1.44667	0	0.401853	11	0.000531098	0.000000000000000E+000	987618	0.000000000000000E+000	0.000000000000000E+000	0.401853	0.401853	0.0000000E+000	0.000000000000000E+000	0.00997163
1	1	0	1	0	0	11	2645.65	5.623	1.81105	5.62376	0.213708	1.51416	0	0.420599	11	0.000564739	0.000000000000000E+000	1.00755e+06	0.000000000000000E+000	0.000000000000000E+000	0.420599	0.420599	0.0000000E+000	0.000000000000000E+000	0.0101849
1	1	0	1	0	0	11	2657.65	5.623	1.86752	5.62446	0.281196	1.58164	0	0.439346	11	0.000599238	0.000000000000000E+000	1.01434e+06	0.000000000000000E+000	0.000000000000000E+000	0.439346	0.439346	0.0000000E+000	0.000000000000000E+000	0.0105038
1	1	0	1	0	0	11	2669.65	5.623	1.92971	5.62427	0.348683	1.64913	0	0.458092	11	0.000634885	0.000000000000000E+000	1.01705e+06	0.000000000000000E+000	0.000000000000000E+000	0.458092	0.458092	0.0000000E+000	0.000000000000000E+000	0.0108532
1	1	0	1	0	0	11	2681.65	5.623	1.99342	5.62338	0.41617	1.71662	0	0.476838	11	0.000671719	0.000000000000000E+000	1.01865e+06	0.000000000000000E+000	0.000000000000000E+000	0.476838	0.476838	0.0000000E+000	0.000000000000000E+000	0.0112098
1	1	0	1	0	0	11	2693.65	5.623	2.05882	5.62383	0.483657	1.78411	0	0.495585	11	0.000709765	0.000000000000000E+000	1.01915e+06	0.000000000000000E+000	0.000000000000000E+000	0.495585	0.495585	0.0000000E+000	0.000000000000000E+000	0.0115784
1	1	0	1	0	0	11	2705.65	5.623	2.11529	5.62396	0.551144	1.85159	0	0.514331	11	0.000748944	0.000000000000000E+000	1.02465e+06	0.000000000000000E+000	0.000000000000000E+000	0.514331	0.514331	0.0000000E+000	0.000000000000000E+000	0.0118963
1	1	0	1	0	0	11	2717.65	5.623	2.16859	5.6244	0.618631	1.91908	0	0.533078	11	0.000789174	0.000000000000000E+000	1.03156e+06	0.000000000000000E+000	0.000000000000000E+000	0.533078	0.533078	0.0000000E+000	0.000000000000000E+000	0.012197
1	1	0	1	0	0	11	2729.65	5.623	2.22498	5.62389	0.686118	1.98657	0	0.551824	11	0.000830453	0.000000000000000E+000	1.03643e+06	0.000000000000000E+000	0.000000000000000E+000	0.551824	0.551824	0.0000000E+000	0.000000000000000E+000	0.012513
1	1	0	1	0	0	11	2741.65	5.623	2.28407	5.62415	0.753605	2.05405	0	0.57057	11	0.000872776	0.000000000000000E+000	1.03959e+06	0.000000000000000E+000	0.000000000000000E+000	0.57057	0.57057	0.0000000E+000	0.000000000000000E+000	0.0128459
1	1	0	1	0	0	11	2753.65	5.623	2.34084	5.62421	0.821092	2.12154	0	0.589317	11	0.000916171	0.000000000000000E+000	1.04376e+06	0.000000000000000E+000	0.000000000000000E+000	0.589317	0.589317	0.0000000E+000	0.000000000000000E+000	0.0131654
1	1	0	1	0	0	11	2765.65	5.623	2.39434	5.62357	0.888579	2.18903	0	0.608063	11	0.000960585	0.000000000000000E+000	1.04934e+06	0.000000000000000E+000	0.000000000000000E+000	0.608063	0.608063	0.0000000E+000	0.000000000000000E+000	0.0134648
1	1	0	1	0	0	11	2777.65	5.623	2.45173	5.6237	0.956066	2.25651	0	0.62681	11	0.00100607	0.000000000000000E+000	1.05273e+06	0.000000000000000E+000	0.000000000000000E+000	0.62681	0.62681	0.0000000E+000	0.000000000000000E+000	0.0137878
1	1	0	0	1	0	12	2788.65	10	2.69717	10.0019	0.0100005	2.32276	0	0.64521	11	0.00105222	0.000000000000000E+000	972300	0.000000000000000E+000	0.000000000000000E+000	0.64521	0.64521	0.0000000E+000	0.000000000000000E+000	0.0269769
1	1	0	0	0	0	12	2800.65	10	2.87216	10.0012	0.130017	2.44277	0	0.678548	11	0.00114517	0.000000000000000E+000	952748	0.000000000000000E+000	0.000000000000000E+000	0.678548	0.678548	0.0000000E+000	0.000000000000000E+000	0.028725
1	1	0	0	0	0	12	2812.65	10	3.0556	10.0014	0.250033	2.56279	0	0.711885	11	0.0012443	0.000000000000000E+000	932817	0.000000000000000E+000	0.000000000000000E+000	0.711885	0.711885	0.0000000E+000	0.000000000000000E+000	0.0305602
1	1	0	0	0	0	12	2824.65	10	3.25897	10.002	0.370049	2.6828	0	0.745223	11	0.00134988	0.000000000000000E+000	909199	0.000000000000000E+000	0.000000000000000E+000	0.745223	0.745223	0.0000000E+000	0.000000000000000E+000	0.0325962
1	1	0	0	0	0	12	2836.65	10	3.45891	10.0009	0.490065	2.80282	0	0.778561	11	0.00146213	0.000000000000000E+000	889595	0.000000000000000E+000	0.000000000000000E+000	0.778561	0.778561	0.0000000E+000	0.000000000000000E+000	0.0345922
1	1	0	0	0	0	12	2848.65	10	3.65418	10.0012	0.610082	2.92284	0	0.811899	11	0.00158097	0.000000000000000E+000	873546	0.000000000000000E+000	0.000000000000000E+000	0.811899	0.811899	0.0000000E+000	0.000000000000000E+000	0.0365463
1	1	0	0	0	0	12	2860.65	10	3.84257	10.0013	0.730098	3.04285	0	0.845237	11	0.00170619	0.000000000000000E+000	860942	0.000000000000000E+000	0.000000000000000E+000	0.845237	0.845237	0.0000000E+000	0.000000000000000E+000	0.0384307
1	1	0	0	0	0	12	2872.65	10	4.01669	10.0026	0.850114	3.16287	0	0.878575	11	0.00183749	0.000000000000000E+000	852880	0.000000000000000E+000	0.000000000000000E+000	0.878575	0.878575	0.0000000E+000	0.000000000000000E+000	0.0401773
1	1	0	0	0	0	12	2884.65	10	4.1795	10.0016	0.97013	3.28288	0	0.911912	11	0.00197432	0.000000000000000E+000	848014	0.000000000000000E+000	0.000000000000000E+000	0.911912	0.911912	0.0000000E+000	0.000000000000000E+000	0.0418015
1	1	0	0	0	0	12	2896.65	10	4.33106	10.0017	1.09015	3.4029	0	0.94525	11	0.00211641	0.000000000000000E+000	845899	0.000000000000000E+000	0.000000000000000E+000	0.94525	0.94525	0.0000000E+000	0.000000000000000E+000	0.0433179
1	1	0	0	0	0	12	2908.65	10	4.45825	10.0008	1.21016	3.52292	0	0.978588	11	0.00226308	0.000000000000000E+000	848893	0.000000000000000E+000	0.000000000000000E+000	0.978588	0.978588	0.0000000E+000	0.000000000000000E+000	0.044586
1	1	0	0	0	0	12	2920.65	10	4.55279	10.0014	1.33018	3.64293	0	1.01193	11	0.00241365	0.000000000000000E+000	858260	0.000000000000000E+000	0.000000000000000E+000	1.01193	1.01193	0.0000000E+000	0.000000000000000E+000	0.0455344
1	1	0	0	0	0	12	2932.65	10	4.66371	10.0007	1.45019	3.76295	0	1.04526	11	0.0025676	0.000000000000000E+000	863958	0.000000000000000E+000	0.000000000000000E+000	1.04526	1.04526	0.0000000E+000	0.000000000000000E+000	0.0466402
1	1	0	0	0	0	12	2944.65	10	4.74809	10.0012	1.57021	3.88297	0	1.0786	11	0.00272463	0.000000000000000E+000	874571	0.000000000000000E+000	0.000000000000000E+000	1.0786	1.0786	0.0000000E+000	0.000000000000000E+000	0.0474864
1	1	0	0	0	0	12	2956.65	10	4.82097	10.0009	1.69023	4.00298	0	1.11194	11	0.00288427	0.000000000000000E+000	887042	0.000000000000000E+000	0.000000000000000E+000	1.11194	1.11194	0.0000000E+000	0.000000000000000E+000	0.0482141
1	1	0	0	0	0	12	2967.65	10	4.88002	10.0009	1.80024	4.113	0	1.1425	11	0.00303256	0.000000000000000E+000	899648	0.000000000000000E+000	0.000000000000000E+000	1.1425	1.1425	0.0000000E+000	0.000000000000000E+000	0.0488047