File: Data_1mg/2022_01_27 FeNx 1mg ref309_set1_bulk_C02.mpt
EC-Lab ASCII FILE
Nb header lines : 52

Chronopotentiometry

Run on channel : 2 (SN 12477)
User :
CE vs. WE compliance from -10 V to 10 V
Electrode connection : standard
Potential control : Ewe
Ewe ctrl range : min = -2.50 V, max = 2.50 V
Safety Limits :
	Do not start on E overload
Acquisition started on : 01/27/2023 14:29:04.806
Loaded Setting File :  NONE
Saved on :
	File : 2022_01_27 FeNx 1mg ref309_set1_bulk_C02.mpr
	Directory : C:\Users\grupogalan\Documents\EC-Lab\Data\Scott\
	Host : 169.254.104.159
Device : VSP (SN 1176)
Address : USB
EC-Lab for windows v11.46 (software)
Internet server v11.40 (firmware)
Command interpretor v11.40 (firmware)
Electrode material :
Initial state :
Electrolyte :
Comments :
Electrode surface area : 0.000 cm²
Characteristic mass : 0.001 g
Equivalent Weight : 0.000 g/eq.
Density : 0.000 g/cm3
Volume (V) : 0.001 cm³
Cycle Definition : Charge/Discharge alternance
Is                  10.000
unit Is             mA
vs.                 <None>
ts (h:m:s)          2:00:0.0000
EM (V)              pass
dQM                 20.000
unit dQM            mA.h
record              <Ewe>
dEs (mV)            0.00
dts (s)             1.0000
E range min (V)     -2.500
E range max (V)     2.500
I Range             10 mA
Bandwidth           5
goto Ns'            0
nc cycles           0

mode	ox/red	error	control changes	Ns changes	counter inc.	Ns	time/s	control/mA	<Ewe>/V	I/mA	dQ/C	(Q-Qo)/C	half cycle	Q charge/discharge/mA.h	I Range	Energy charge/W.h	Energy discharge/W.h	Capacitance charge/µF	Capacitance discharge/µF	Q discharge/mA.h	Q charge/mA.h	Capacity/mA.h	Efficiency/%	cycle number	P/W
1	1	0	0	0	0	0	1	10	1.1104	10.0017	0.0094993	0.0094993	0	0.0026387	11	2.93e-06	0.000000000000000E+000	0.000000000000000E+000	0.000000000000000E+000	0.000000000000000E+000	0.0026387	0.0026387	0.0000000E+000	0.000000000000000E+000	0.0111059
1	1	0	0	0	0	0	33	10	1.12945	10.0021	0.329546	0.329546	0	0.0915405	11	0.000102902	0.000000000000000E+000	1.72964e+07	0.000000000000000E+000	0.000000000000000E+000	0.0915405	0.0915405	0.0000000E+000	0.000000000000000E+000	0.0112969
1	1	0	0	0	0	0	65	10	1.14868	10.001	0.649591	0.649591	0	0.180442	11	0.000204115	0.000000000000000E+000	1.69675e+07	0.000000000000000E+000	0.000000000000000E+000	0.180442	0.180442	0.0000000E+000	0.000000000000000E+000	0.0114879
1	1	0	0	0	0	0	97	10	1.17771	10.0009	0.969637	0.969637	0	0.269344	11	0.000307498	0.000000000000000E+000	1.44051e+07	0.000000000000000E+000	0.000000000000000E+000	0.269344	0.269344	0.0000000E+000	0.000000000000000E+000	0.0117781
1	1	0	0	0	0	0	129	10	1.21794	10.0016	1.28968	1.28968	0	0.358245	11	0.000413951	0.000000000000000E+000	1.19924e+07	0.000000000000000E+000	0.000000000000000E+000	0.358245	0.358245	0.0000000E+000	0.000000000000000E+000	0.0121813
1	1	0	0	0	0	0	161	10	1.26956	10.001	1.60973	1.60973	0	0.447147	11	0.00052457	0.000000000000000E+000	1.01135e+07	0.000000000000000E+000	0.000000000000000E+000	0.447147	0.447147	0.0000000E+000	0.000000000000000E+000	0.012697
1	1	0	0	0	0	0	193	10	1.32461	10.0013	1.92977	1.92977	0	0.536048	11	0.000639936	0.000000000000000E+000	9.00856e+06	0.000000000000000E+000	0.000000000000000E+000	0.536048	0.536048	0.0000000E+000	0.000000000000000E+000	0.0132479
1	1	0	0	0	0	0	225	10	1.38155	10.0016	2.24982	2.24982	0	0.62495	11	0.000760274	0.000000000000000E+000	8.29739e+06	0.000000000000000E+000	0.000000000000000E+000	0.62495	0.62495	0.0000000E+000	0.000000000000000E+000	0.0138177
1	1	0	0	0	0	0	257	10	1.4402	10.0017	2.56987	2.56987	0	0.713852	11	0.000885733	0.000000000000000E+000	7.79224e+06	0.000000000000000E+000	0.000000000000000E+000	0.713852	0.713852	0.0000000E+000	0.000000000000000E+000	0.0144045
1	1	0	0	0	0	0	289	10	1.50375	10.001	2.88991	2.88991	0	0.802753	11	0.00101665	0.000000000000000E+000	7.34685e+06	0.000000000000000E+000	0.000000000000000E+000	0.802753	0.802753	0.0000000E+000	0.000000000000000E+000	0.0150391
1	1	0	0	0	0	0	321	10	1.57271	10.0021	3.20996	3.20996	0	0.891655	11	0.00115351	0.000000000000000E+000	6.94319e+06	0.000000000000000E+000	0.000000000000000E+000	0.891655	0.891655	0.0000000E+000	0.000000000000000E+000	0.0157304
1	1	0	0	0	0	0	353	10	1.64576	10.0017	3.53	3.53	0	0.980556	11	0.00129659	0.000000000000000E+000	6.59361e+06	0.000000000000000E+000	0.000000000000000E+000	0.980556	0.980556	0.0000000E+000	0.000000000000000E+000	0.0164604
1	1	0	0	0	0	0	385	10	1.72374	10.0014	3.85005	3.85005	0	1.06946	11	0.00144643	0.000000000000000E+000	6.27717e+06	0.000000000000000E+000	0.000000000000000E+000	1.06946	1.06946	0.0000000E+000	0.000000000000000E+000	0.0172397
1	1	0	0	0	0	0	417	10	1.80853	10.0015	4.17009	4.17009	0	1.15836	11	0.00160348	0.000000000000000E+000	5.97322e+06	0.000000000000000E+000	0.000000000000000E+000	1.15836	1.15836	0.0000000E+000	0.000000000000000E+000	0.018088
1	1	0	0	0	0	0	449	10	1.9055	10.0017	4.49014	4.49014	0	1.24726	11	0.00176861	0.000000000000000E+000	5.64725e+06	0.000000000000000E+000	0.000000000000000E+000	1.24726	1.24726	0.0000000E+000	0.000000000000000E+000	0.0190583
1	1	0	0	0	0	0	481	10	2.00401	10.0024	4.81019	4.81019	0	1.33616	11	0.0019425	0.000000000000000E+000	5.38288e+06	0.000000000000000E+000	0.000000000000000E+000	1.33616	1.33616	0.0000000E+000	0.000000000000000E+000	0.020045
1	1	0	0	0	0	0	513	10	2.10564	10.0016	5.13023	5.13023	0	1.42506	11	0.00212534	0.000000000000000E+000	5.15476e+06	0.000000000000000E+000	0.000000000000000E+000	1.42506	1.42506	0.0000000E+000	0.000000000000000E+000	0.0210598
1	1	0	0	0	0	0	545	10	2.21098	10.0013	5.45028	5.45028	0	1.51397	11	0.00231726	0.000000000000000E+000	4.95218e+06	0.000000000000000E+000	0.000000000000000E+000	1.51397	1.51397	0.0000000E+000	0.000000000000000E+000	0.0221127
1	1	0	0	0	0	0	577	10	2.31448	10.0016	5.77032	5.77032	0	1.60287	11	0.00251872	0.000000000000000E+000	4.79228e+06	0.000000000000000E+000	0.000000000000000E+000	1.60287	1.60287	0.0000000E+000	0.000000000000000E+000	0.0231486
1	1	0	0	0	0	0	609	10	2.43221	10.0013	6.09037	6.09037	0	1.69177	11	0.00273003	0.000000000000000E+000	4.6076e+06	0.000000000000000E+000	0.000000000000000E+000	1.69177	1.69177	0.0000000E+000	0.000000000000000E+000	0.0243252
1	1	0	0	0	0	0	641	10	2.55421	10.0014	6.41042	6.41042	0	1.78067	11	0.00295179	0.000000000000000E+000	4.43992e+06	0.000000000000000E+000	0.000000000000000E+000	1.78067	1.78067	0.0000000E+000	0.000000000000000E+000	0.0255456
1	1	0	0	0	0	0	673	10	2.67701	10.0013	6.73046	6.73046	0	1.86957	11	0.00318433	0.000000000000000E+000	4.29618e+06	0.000000000000000E+000	0.000000000000000E+000	1.86957	1.86957	0.0000000E+000	0.000000000000000E+000	0.0267736
1	1	0	0	0	0	0	705	10	2.80717	10.0014	7.05051	7.05051	0	1.95847	11	0.00342816	0.000000000000000E+000	4.15524e+06	0.000000000000000E+000	0.000000000000000E+000	1.95847	1.95847	0.0000000E+000	0.000000000000000E+000	0.0280757
1	1	0	0	0	0	0	737	10	2.94271	10.0016	7.37055	7.37055	0	2.04738	11	0.00368385	0.000000000000000E+000	4.02255e+06	0.000000000000000E+000	0.000000000000000E+000	2.04738	2.04738	0.0000000E+000	0.000000000000000E+000	0.0294317
1	1	0	0	0	0	0	769	10	3.08661	10.0014	7.6906	7.6906	0	2.13628	11	0.00395192	0.000000000000000E+000	3.89159e+06	0.000000000000000E+000	0.000000000000000E+000	2.13628	2.13628	0.0000000E+000	0.000000000000000E+000	0.0308705
1	1	0	0	0	0	0	801	10	3.23516	10.0016	8.01064	8.01064	0	2.22518	11	0.00423307	0.000000000000000E+000	3.77014e+06	0.000000000000000E+000	0.000000000000000E+000	2.22518	2.22518	0.0000000E+000	0.000000000000000E+000	0.0323566
1	1	0	0	0	0	0	833	10	3.38912	10.0016	8.33069	8.33069	0	2.31408	11	0.0045277	0.000000000000000E+000	3.65586e+06	0.000000000000000E+000	0.000000000000000E+000	2.31408	2.31408	0.0000000E+000	0.000000000000000E+000	0.0338965
1	1	0	0	0	0	0	865	10	3.54413	10.002	8.65074	8.65074	0	2.40298	11	0.00483607	0.000000000000000E+000	3.55451e+06	0.000000000000000E+000	0.000000000000000E+000	2.40298	2.40298	0.0000000E+000	0.000000000000000E+000	0.0354484
1	1	0	0	0	0	0	897	10	3.69807	10.0017	8.97078	8.97078	0	2.49188	11	0.00515819	0.000000000000000E+000	3.46674e+06	0.000000000000000E+000	0.000000000000000E+000	2.49188	2.49188	0.0000000E+000	0.000000000000000E+000	0.0369869
1	1	0	0	0	0	0	929	10	3.84932	10.0018	9.29083	9.29083	0	2.58079	11	0.0054939	0.000000000000000E+000	3.39214e+06	0.000000000000000E+000	0.000000000000000E+000	2.58079	2.58079	0.0000000E+000	0.000000000000000E+000	0.0385002
1	1	0	0	0	0	0	961	10	3.99571	10.0024	9.61088	9.61088	0	2.66969	11	0.00584285	0.000000000000000E+000	3.33096e+06	0.000000000000000E+000	0.000000000000000E+000	2.66969	2.66969	0.0000000E+000	0.000000000000000E+000	0.0399667
1	1	0	0	0	0	0	993	10	4.13666	10.0012	9.93092	9.93092	0	2.75859	11	0.00620456	0.000000000000000E+000	3.28158e+06	0.000000000000000E+000	0.000000000000000E+000	2.75859	2.75859	0.0000000E+000	0.000000000000000E+000	0.0413715
1	1	0	0	0	0	0	1025	10	4.26729	10.0014	10.251	10.251	0	2.84749	11	0.00657833	0.000000000000000E+000	3.24717e+06	0.000000000000000E+000	0.000000000000000E+000	2.84749	2.84749	0.0000000E+000	0.000000000000000E+000	0.0426787
1	1	0	0	0	0	0	1057	10	4.39187	10.0006	10.571	10.571	0	2.93639	11	0.00696348	0.000000000000000E+000	3.22142e+06	0.000000000000000E+000	0.000000000000000E+000	2.93639	2.93639	0.0000000E+000	0.000000000000000E+000	0.0439214
1	1	0	0	0	0	0	1089	10	4.50691	10.0011	10.8911	10.8911	0	3.02529	11	0.00735926	0.000000000000000E+000	3.20655e+06	0.000000000000000E+000	0.000000000000000E+000	3.02529	3.02529	0.0000000E+000	0.000000000000000E+000	0.0450741
1	1	0	0	0	0	0	1121	10	4.61195	10.001	11.2111	11.2111	0	3.1142	11	0.00776485	0.000000000000000E+000	3.20176e+06	0.000000000000000E+000	0.000000000000000E+000	3.1142	3.1142	0.0000000E+000	0.000000000000000E+000	0.046124
1	1	0	0	0	0	0	1153	10	4.70652	10.0012	11.5312	11.5312	0	3.2031	11	0.00817926	0.000000000000000E+000	3.20655e+06	0.000000000000000E+000	0.000000000000000E+000	3.2031	3.2031	0.0000000E+000	0.000000000000000E+000	0.047071
1	1	0	0	0	0	0	1185	10	4.78953	10.001	11.8512	11.8512	0	3.292	11	0.00860156	0.000000000000000E+000	3.22119e+06	0.000000000000000E+000	0.000000000000000E+000	3.292	3.292	0.0000000E+000	0.000000000000000E+000	0.0479004
1	1	0	0	0	0	0	1217	10	4.86405	10.0013	12.1712	12.1712	0	3.3809	11	0.00903085	0.000000000000000E+000	3.2425e+06	0.000000000000000E+000	0.000000000000000E+000	3.3809	3.3809	0.0000000E+000	0.000000000000000E+000	0.0486469
1	1	0	0	0	0	0	1249	10	4.92895	10.0013	12.4913	12.4913	0	3.4698	11	0.00946629	0.000000000000000E+000	3.27121e+06	0.000000000000000E+000	0.000000000000000E+000	3.4698	3.4698	0.0000000E+000	0.000000000000000E+000	0.0492959
1	1	0	0	0	0	0	1281	10	4.986	10.0012	12.8113	12.8113	0	3.5587	11	0.00990716	0.000000000000000E+000	3.30564e+06	0.000000000000000E+000	0.000000000000000E+000	3.5587	3.5587	0.0000000E+000	0.000000000000000E+000	0.0498658
1	1	0	0	0	0	0	1313	10	5.03626	10.0019	13.1314	13.1314	0	3.64761	11	0.0103528	0.000000000000000E+000	3.34484e+06	0.000000000000000E+000	0.000000000000000E+000	3.64761	3.64761	0.0000000E+000	0.000000000000000E+000	0.050372
1	1	0	0	0	0	0	1345	10	5.08221	10.001	13.4514	13.4514	0	3.73651	11	0.0108027	0.000000000000000E+000	3.38672e+06	0.000000000000000E+000	0.000000000000000E+000	3.73651	3.73651	0.0000000E+000	0.000000000000000E+000	0.0508271
1	1	0	0	0	0	0	1377	10	5.12261	10.0014	13.7715	13.7715	0	3.82541	11	0.0112563	0.000000000000000E+000	3.43239e+06	0.000000000000000E+000	0.000000000000000E+000	3.82541	3.82541	0.0000000E+000	0.000000000000000E+000	0.0512334
1	1	0	0	0	0	0	1409	10	5.16006	10.0009	14.0915	14.0915	0	3.91431	11	0.0117135	0.000000000000000E+000	3.47968e+06	0.000000000000000E+000	0.000000000000000E+000	3.91431	3.91431	0.0000000E+000	0.000000000000000E+000	0.0516053
1	1	0	0	0	0	0	1441	10	5.19444	10.0013	14.4116	14.4116	0	4.00321	11	0.0121738	0.000000000000000E+000	3.52875e+06	0.000000000000000E+000	0.000000000000000E+000	4.00321	4.00321	0.0000000E+000	0.000000000000000E+000	0.0519512
1	1	0	0	0	0	0	1473	10	5.22668	10.0019	14.7316	14.7316	0	4.09211	11	0.012637	0.000000000000000E+000	3.57886e+06	0.000000000000000E+000	0.000000000000000E+000	4.09211	4.09211	0.0000000E+000	0.000000000000000E+000	0.0522766
1	1	0	0	0	0	0	1505	10	5.25447	10.0009	15.0517	15.0517	0	4.18102	11	0.013103	0.000000000000000E+000	3.63209e+06	0.000000000000000E+000	0.000000000000000E+000	4.18102	4.18102	0.0000000E+000	0.000000000000000E+000	0.0525492
1	1	0	0	0	0	0	1537	10	5.28149	10.0014	15.3717	15.3717	0	4.26992	11	0.0135713	0.000000000000000E+000	3.6853e+06	0.000000000000000E+000	0.000000000000000E+000	4.26992	4.26992	0.0000000E+000	0.000000000000000E+000	0.0528221
1	1	0	0	0	0	0	1569	10	5.3064	10.0018	15.6918	15.6918	0	4.35882	11	0.014042	0.000000000000000E+000	3.73969e+06	0.000000000000000E+000	0.000000000000000E+000	4.35882	4.35882	0.0000000E+000	0.000000000000000E+000	0.0530736
1	1	0	0	0	0	0	1601	10	5.33039	10.0009	16.0118	16.0118	0	4.44772	11	0.0145148	0.000000000000000E+000	3.79427e+06	0.000000000000000E+000	0.000000000000000E+000	4.44772	4.44772	0.0000000E+000	0.000000000000000E+000	0.0533085
1	1	0	0	0	0	0	1633	10	5.35229	10.001	16.3318	16.3318	0	4.53662	11	0.0149897	0.000000000000000E+000	3.85013e+06	0.000000000000000E+000	0.000000000000000E+000	4.53662	4.53662	0.0000000E+000	0.000000000000000E+000	0.0535281
1	1	0	0	0	0	0	1665	10	5.3734	10.0009	16.6519	16.6519	0	4.62552	11	0.0154666	0.000000000000000E+000	3.90614e+06	0.000000000000000E+000	0.000000000000000E+000	4.62552	4.62552	0.0000000E+000	0.000000000000000E+000	0.053739
1	1	0	0	0	0	0	1697	10	5.39479	10.0016	16.9719	16.9719	0	4.71443	11	0.0159453	0.000000000000000E+000	3.96134e+06	0.000000000000000E+000	0.000000000000000E+000	4.71443	4.71443	0.0000000E+000	0.000000000000000E+000	0.0539567
1	1	0	0	0	0	0	1729	10	5.41497	10.0016	17.292	17.292	0	4.80333	11	0.0164258	0.000000000000000E+000	4.01712e+06	0.000000000000000E+000	0.000000000000000E+000	4.80333	4.80333	0.0000000E+000	0.000000000000000E+000	0.0541581
1	1	0	0	0	0	0	1761	10	5.43313	10.0016	17.612	17.612	0	4.89223	11	0.0169081	0.000000000000000E+000	4.07428e+06	0.000000000000000E+000	0.000000000000000E+000	4.89223	4.89223	0.0000000E+000	0.000000000000000E+000	0.0543401
1	1	0	0	0	0	0	1793	10	5.45214	10.001	17.9321	17.9321	0	4.98113	11	0.017392	0.000000000000000E+000	4.13015e+06	0.000000000000000E+000	0.000000000000000E+000	4.98113	4.98113	0.0000000E+000	0.000000000000000E+000	0.0545268
1	1	0	0	0	0	0	1825	10	5.46929	10.0009	18.2521	18.2521	0	5.07003	11	0.0178775	0.000000000000000E+000	4.18733e+06	0.000000000000000E+000	0.000000000000000E+000	5.07003	5.07003	0.0000000E+000	0.000000000000000E+000	0.0546979
1	1	0	0	0	0	0	1857	10	5.48571	10.0012	18.5722	18.5722	0	5.15893	11	0.0183644	0.000000000000000E+000	4.24477e+06	0.000000000000000E+000	0.000000000000000E+000	5.15893	5.15893	0.0000000E+000	0.000000000000000E+000	0.0548635
1	1	0	0	0	0	0	1889	10	5.50167	10.0016	18.8922	18.8922	0	5.24784	11	0.0188529	0.000000000000000E+000	4.30221e+06	0.000000000000000E+000	0.000000000000000E+000	5.24784	5.24784	0.0000000E+000	0.000000000000000E+000	0.0550257
1	1	0	0	0	0	0	1921	10	5.5162	10.0011	19.2123	19.2123	0	5.33674	11	0.0193427	0.000000000000000E+000	4.36067e+06	0.000000000000000E+000	0.000000000000000E+000	5.33674	5.33674	0.0000000E+000	0.000000000000000E+000	0.0551681
1	1	0	0	0	0	0	1953	10	5.53276	10.0013	19.5323	19.5323	0	5.42564	11	0.0198339	0.000000000000000E+000	4.41671e+06	0.000000000000000E+000	0.000000000000000E+000	5.42564	5.42564	0.0000000E+000	0.000000000000000E+000	0.0553348
1	1	0	0	0	0	0	1985	10	5.54736	10.0015	19.8523	19.8523	0	5.51454	11	0.0203265	0.000000000000000E+000	4.47431e+06	0.000000000000000E+000	0.000000000000000E+000	5.51454	5.51454	0.0000000E+000	0.000000000000000E+000	0.0554819
1	1	0	0	0	0	0	2017	10	5.56209	10.002	20.1724	20.1724	0	5.60344	11	0.0208203	0.000000000000000E+000	4.5314e+06	0.000000000000000E+000	0.000000000000000E+000	5.60344	5.60344	0.0000000E+000	0.000000000000000E+000	0.055632
1	1	0	0	0	0	0	2049	10	5.57551	10.0009	20.4924	20.4924	0	5.69234	11	0.0213154	0.000000000000000E+000	4.58946e+06	0.000000000000000E+000	0.000000000000000E+000	5.69234	5.69234	0.0000000E+000	0.000000000000000E+000	0.0557599
1	1	0	0	0	0	0	2081	10	5.58958	10.0017	20.8125	20.8125	0	5.78124	11	0.0218117	0.000000000000000E+000	4.64649e+06	0.000000000000000E+000	0.000000000000000E+000	5.78124	5.78124	0.0000000E+000	0.000000000000000E+000	0.0559056
1	1	0	0	0	0	0	2113	10	5.6022	10.0012	21.1325	21.1325	0	5.87015	11	0.0223092	0.000000000000000E+000	4.70468e+06	0.000000000000000E+000	0.000000000000000E+000	5.87015	5.87015	0.0000000E+000	0.000000000000000E+000	0.0560286
1	1	0	0	0	0	0	2145	10	5.61532	10.0014	21.4526	21.4526	0	5.95905	11	0.0228078	0.000000000000000E+000	4.76203e+06	0.000000000000000E+000	0.000000000000000E+000	5.95905	5.95905	0.0000000E+000	0.000000000000000E+000	0.0561609
1	1	0	0	0	0	0	2177	10	5.62784	10.0012	21.7726	21.7726	0	6.04795	11	0.0233076	0.000000000000000E+000	4.81968e+06	0.000000000000000E+000	0.000000000000000E+000	6.04795	6.04795	0.0000000E+000	0.000000000000000E+000	0.056285
1	1	0	0	0	0	0	2209	10	5.6403	10.0019	22.0927	22.0927	0	6.13685	11	0.0238084	0.000000000000000E+000	4.87707e+06	0.000000000000000E+000	0.000000000000000E+000	6.13685	6.13685	0.0000000E+000	0.000000000000000E+000	0.056414
1	1	0	0	0	0	0	2241	10	5.65265	10.0014	22.4127	22.4127	0	6.22575	11	0.0243104	0.000000000000000E+000	4.93427e+06	0.000000000000000E+000	0.000000000000000E+000	6.22575	6.22575	0.0000000E+000	0.000000000000000E+000	0.0565342
1	1	0	0	0	0	0	2273	10	5.66371	10.0016	22.7328	22.7328	0	6.31465	11	0.0248134	0.000000000000000E+000	4.99257e+06	0.000000000000000E+000	0.000000000000000E+000	6.31465	6.31465	0.0000000E+000	0.000000000000000E+000	0.0566463
1	1	0	0	0	0	0	2305	10	5.67515	10.0014	23.0528	23.0528	0	6.40356	11	0.0253175	0.000000000000000E+000	5.05018e+06	0.000000000000000E+000	0.000000000000000E+000	6.40356	6.40356	0.0000000E+000	0.000000000000000E+000	0.0567592
1	1	0	0	0	0	0	2337	10	5.68747	10.0022	23.3728	23.3728	0	6.49246	11	0.0258225	0.000000000000000E+000	5.10651e+06	0.000000000000000E+000	0.000000000000000E+000	6.49246	6.49246	0.0000000E+000	0.000000000000000E+000	0.0568872
1	1	0	0	0	0	0	2369	10	5.69823	10.0011	23.6929	23.6929	0	6.58136	11	0.0263286	0.000000000000000E+000	5.16429e+06	0.000000000000000E+000	0.000000000000000E+000	6.58136	6.58136	0.0000000E+000	0.000000000000000E+000	0.0569886
1	1	0	0	0	0	0	2401	10	5.70934	10.0015	24.0129	24.0129	0	6.67026	11	0.0268357	0.000000000000000E+000	5.22141e+06	0.000000000000000E+000	0.000000000000000E+000	6.67026	6.67026	0.0000000E+000	0.000000000000000E+000	0.0571019
1	1	0	0	0	0	0	2433	10	5.72001	10.001	24.333	24.333	0	6.75916	11	0.0273438	0.000000000000000E+000	5.27875e+06	0.000000000000000E+000	0.000000000000000E+000	6.75916	6.75916	0.0000000E+000	0.000000000000000E+000	0.0572057
1	1	0	0	0	0	0	2465	10	5.73063	10.0021	24.653	24.653	0	6.84806	11	0.0278527	0.000000000000000E+000	5.33588e+06	0.000000000000000E+000	0.000000000000000E+000	6.84806	6.84806	0.0000000E+000	0.000000000000000E+000	0.0573182
1	1	0	0	0	0	0	2497	10	5.74082	10.0015	24.9731	24.9731	0	6.93696	11	0.0283627	0.000000000000000E+000	5.39326e+06	0.000000000000000E+000	0.000000000000000E+000	6.93696	6.93696	0.0000000E+000	0.000000000000000E+000	0.0574168
1	1	0	0	0	0	0	2529	10	5.75119	10.0014	25.2931	25.2931	0	7.02587	11	0.0288736	0.000000000000000E+000	5.45017e+06	0.000000000000000E+000	0.000000000000000E+000	7.02587	7.02587	0.0000000E+000	0.000000000000000E+000	0.0575201
1	1	0	0	0	0	0	2561	10	5.76183	10.0013	25.6132	25.6132	0	7.11477	11	0.0293854	0.000000000000000E+000	5.50651e+06	0.000000000000000E+000	0.000000000000000E+000	7.11477	7.11477	0.0000000E+000	0.000000000000000E+000	0.0576258
1	1	0	0	0	0	0	2593	10	5.77157	10.001	25.9332	25.9332	0	7.20367	11	0.0298981	0.000000000000000E+000	5.56366e+06	0.000000000000000E+000	0.000000000000000E+000	7.20367	7.20367	0.0000000E+000	0.000000000000000E+000	0.0577214
1	1	0	0	0	0	0	2625	10	5.78243	10.0013	26.2533	26.2533	0	7.29257	11	0.0304117	0.000000000000000E+000	5.61924e+06	0.000000000000000E+000	0.000000000000000E+000	7.29257	7.29257	0.0000000E+000	0.000000000000000E+000	0.0578318
1	1	0	0	0	0	0	2657	10	5.79302	10.0012	26.5733	26.5733	0	7.38147	11	0.0309262	0.000000000000000E+000	5.67488e+06	0.000000000000000E+000	0.000000000000000E+000	7.38147	7.38147	0.0000000E+000	0.000000000000000E+000	0.057937
1	1	0	0	0	0	0	2689	10	5.80258	10.0016	26.8933	26.8933	0	7.47037	11	0.0314416	0.000000000000000E+000	5.73152e+06	0.000000000000000E+000	0.000000000000000E+000	7.47037	7.47037	0.0000000E+000	0.000000000000000E+000	0.0580349
1	1	0	0	0	0	0	2721	10	5.81239	10.0021	27.2134	27.2134	0	7.55927	11	0.0319579	0.000000000000000E+000	5.78763e+06	0.000000000000000E+000	0.000000000000000E+000	7.55927	7.55927	0.0000000E+000	0.000000000000000E+000	0.0581359
1	1	0	0	0	0	0	2753	10	5.82155	10.001	27.5334	27.5334	0	7.64818	11	0.0324751	0.000000000000000E+000	5.84431e+06	0.000000000000000E+000	0.000000000000000E+000	7.64818	7.64818	0.0000000E+000	0.000000000000000E+000	0.0582212
1	1	0	0	0	0	0	2785	10	5.83159	10.0011	27.8535	27.8535	0	7.73708	11	0.0329931	0.000000000000000E+000	5.89967e+06	0.000000000000000E+000	0.000000000000000E+000	7.73708	7.73708	0.0000000E+000	0.000000000000000E+000	0.0583223
1	1	0	0	0	0	0	2817	10	5.84095	10.0017	28.1735	28.1735	0	7.82598	11	0.033512	0.000000000000000E+000	5.95565e+06	0.000000000000000E+000	0.000000000000000E+000	7.82598	7.82598	0.0000000E+000	0.000000000000000E+000	0.0584197
1	1	0	0	0	0	0	2849	10	5.8512	10.001	28.4936	28.4936	0	7.91488	11	0.0340317	0.000000000000000E+000	6.01028e+06	0.000000000000000E+000	0.000000000000000E+000	7.91488	7.91488	0.0000000E+000	0.000000000000000E+000	0.0585178
1	1	0	0	0	0	0	2881	10	5.86012	10.001	28.8136	28.8136	0	8.00378	11	0.0345523	0.000000000000000E+000	6.06638e+06	0.000000000000000E+000	0.000000000000000E+000	8.00378	8.00378	0.0000000E+000	0.000000000000000E+000	0.058607
1	1	0	0	0	0	0	2913	10	5.86953	10.001	29.1337	29.1337	0	8.09268	11	0.0350738	0.000000000000000E+000	6.12163e+06	0.000000000000000E+000	0.000000000000000E+000	8.09268	8.09268	0.0000000E+000	0.000000000000000E+000	0.0587015
1	1	0	0	0	0	0	2945	10	5.87863	10.0012	29.4537	29.4537	0	8.18159	11	0.035596	0.000000000000000E+000	6.17706e+06	0.000000000000000E+000	0.000000000000000E+000	8.18159	8.18159	0.0000000E+000	0.000000000000000E+000	0.0587936
1	1	0	0	0	0	0	2977	10	5.88846	10.0017	29.7738	29.7738	0	8.27049	11	0.0361191	0.000000000000000E+000	6.23134e+06	0.000000000000000E+000	0.000000000000000E+000	8.27049	8.27049	0.0000000E+000	0.000000000000000E+000	0.0588946
1	1	0	0	0	0	0	3009	10	5.89733	10.0013	30.0938	30.0938	0	8.35939	11	0.036643	0.000000000000000E+000	6.28665e+06	0.000000000000000E+000	0.000000000000000E+000	8.35939	8.35939	0.0000000E+000	0.000000000000000E+000	0.058981
1	1	0	0	0	0	0	3041	10	5.90733	10.0014	30.4138	30.4138	0	8.44829	11	0.0371677	0.000000000000000E+000	6.34027e+06	0.000000000000000E+000	0.000000000000000E+000	8.44829	8.44829	0.0000000E+000	0.000000000000000E+000	0.0590817
1	1	0	0	0	0	0	3073	10	5.91604	10.0012	30.7339	30.7339	0	8.53719	11	0.0376933	0.000000000000000E+000	6.39537e+06	0.000000000000000E+000	0.000000000000000E+000	8.53719	8.53719	0.0000000E+000	0.000000000000000E+000	0.0591678
1	1	0	0	0	0	0	3105	10	5.92565	10.0025	31.0539	31.0539	0	8.62609	11	0.0382197	0.000000000000000E+000	6.44908e+06	0.000000000000000E+000	0.000000000000000E+000	8.62609	8.62609	0.0000000E+000	0.000000000000000E+000	0.0592714
1	1	0	0	0	0	0	3137	10	5.93456	10.0016	31.374	31.374	0	8.715	11	0.0387469	0.000000000000000E+000	6.50351e+06	0.000000000000000E+000	0.000000000000000E+000	8.715	8.715	0.0000000E+000	0.000000000000000E+000	0.0593552
1	1	0	0	0	0	0	3169	10	5.94361	10.0018	31.694	31.694	0	8.8039	11	0.0392749	0.000000000000000E+000	6.55755e+06	0.000000000000000E+000	0.000000000000000E+000	8.8039	8.8039	0.0000000E+000	0.000000000000000E+000	0.0594469
1	1	0	0	0	0	0	3201	10	5.95273	10.0014	32.0141	32.0141	0	8.8928	11	0.0398037	0.000000000000000E+000	6.61129e+06	0.000000000000000E+000	0.000000000000000E+000	8.8928	8.8928	0.0000000E+000	0.000000000000000E+000	0.0595354
1	1	0	0	0	0	0	3233	10	5.96198	10.0016	32.3341	32.3341	0	8.9817	11	0.0403333	0.000000000000000E+000	6.66466e+06	0.000000000000000E+000	0.000000000000000E+000	8.9817	8.9817	0.0000000E+000	0.000000000000000E+000	0.059629
1	1	0	0	0	0	0	3265	10	5.97107	10.0013	32.6542	32.6542	0	9.0706	11	0.0408638	0.000000000000000E+000	6.71804e+06	0.000000000000000E+000	0.000000000000000E+000	9.0706	9.0706	0.0000000E+000	0.000000000000000E+000	0.0597184
1	1	0	0	0	0	0	3297	10	5.9792	10.0016	32.9742	32.9742	0	9.1595	11	0.0413951	0.000000000000000E+000	6.77255e+06	0.000000000000000E+000	0.000000000000000E+000	9.1595	9.1595	0.0000000E+000	0.000000000000000E+000	0.0598013
1	1	0	0	0	0	0	3329	10	5.98896	10.0018	33.2943	33.2943	0	9.24841	11	0.0419271	0.000000000000000E+000	6.8246e+06	0.000000000000000E+000	0.000000000000000E+000	9.24841	9.24841	0.0000000E+000	0.000000000000000E+000	0.0599005
1	1	0	0	0	0	0	3361	10	5.99868	10.0016	33.6143	33.6143	0	9.33731	11	0.04246	0.000000000000000E+000	6.8765e+06	0.000000000000000E+000	0.000000000000000E+000	9.33731	9.33731	0.0000000E+000	0.000000000000000E+000	0.0599962
1	1	0	0	0	0	0	3393	10	6.00753	10.0022	33.9344	33.9344	0	9.42621	11	0.0429937	0.000000000000000E+000	6.92944e+06	0.000000000000000E+000	0.000000000000000E+000	9.42621	9.42621	0.0000000E+000	0.000000000000000E+000	0.0600884
1	1	0	0	0	0	0	3425	10	6.01648	10.0014	34.2544	34.2544	0	9.51511	11	0.0435281	0.000000000000000E+000	6.98203e+06	0.000000000000000E+000	0.000000000000000E+000	9.51511	9.51511	0.0000000E+000	0.000000000000000E+000	0.0601734
1	1	0	0	0	0	0	3457	10	6.0255	10.0012	34.5744	34.5744	0	9.60401	11	0.0440634	0.000000000000000E+000	7.03433e+06	0.000000000000000E+000	0.000000000000000E+000	9.60401	9.60401	0.0000000E+000	0.000000000000000E+000	0.0602625
1	1	0	0	0	0	0	3489	10	6.03429	10.0023	34.8945	34.8945	0	9.69291	11	0.0445994	0.000000000000000E+000	7.08678e+06	0.000000000000000E+000	0.000000000000000E+000	9.69291	9.69291	0.0000000E+000	0.000000000000000E+000	0.0603565
1	1	0	0	0	0	0	3521	10	6.04301	10.0016	35.2145	35.2145	0	9.78182	11	0.0451363	0.000000000000000E+000	7.13913e+06	0.000000000000000E+000	0.000000000000000E+000	9.78182	9.78182	0.0000000E+000	0.000000000000000E+000	0.0604399
1	1	0	0	0	0	0	3553	10	6.05255	10.0026	35.5346	35.5346	0	9.87072	11	0.045674	0.000000000000000E+000	7.1901e+06	0.000000000000000E+000	0.000000000000000E+000	9.87072	9.87072	0.0000000E+000	0.000000000000000E+000	0.0605411
1	1	0	0	0	0	0	3585	10	6.06082	10.0014	35.8546	35.8546	0	9.95962	11	0.0462124	0.000000000000000E+000	7.24274e+06	0.000000000000000E+000	0.000000000000000E+000	9.95962	9.95962	0.0000000E+000	0.000000000000000E+000	0.0606165
1	1	0	0	0	0	0	3617	10	6.07025	10.0016	36.1747	36.1747	0	10.0485	11	0.0467517	0.000000000000000E+000	7.29349e+06	0.000000000000000E+000	0.000000000000000E+000	10.0485	10.0485	0.0000000E+000	0.000000000000000E+000	0.060712
1	1	0	0	0	0	0	3649	10	6.0782	10.0013	36.4947	36.4947	0	10.1374	11	0.0472917	0.000000000000000E+000	7.34625e+06	0.000000000000000E+000	0.000000000000000E+000	10.1374	10.1374	0.0000000E+000	0.000000000000000E+000	0.0607899
1	1	0	0	0	0	0	3681	10	6.08751	10.0009	36.8148	36.8148	0	10.2263	11	0.0478326	0.000000000000000E+000	7.39681e+06	0.000000000000000E+000	0.000000000000000E+000	10.2263	10.2263	0.0000000E+000	0.000000000000000E+000	0.0608807
1	1	0	0	0	0	0	3713	10	6.09767	10.0015	37.1348	37.1348	0	10.3152	11	0.0483742	0.000000000000000E+000	7.44591e+06	0.000000000000000E+000	0.000000000000000E+000	10.3152	10.3152	0.0000000E+000	0.000000000000000E+000	0.0609859
1	1	0	0	0	0	0	3745	10	6.10673	10.0009	37.4549	37.4549	0	10.4041	11	0.0489167	0.000000000000000E+000	7.49646e+06	0.000000000000000E+000	0.000000000000000E+000	10.4041	10.4041	0.0000000E+000	0.000000000000000E+000	0.061073
1	1	0	0	0	0	0	3777	10	6.11497	10.0017	37.7749	37.7749	0	10.493	11	0.04946	0.000000000000000E+000	7.54808e+06	0.000000000000000E+000	0.000000000000000E+000	10.493	10.493	0.0000000E+000	0.000000000000000E+000	0.06116
1	1	0	0	0	0	0	3809	10	6.12415	10.0011	38.095	38.095	0	10.5819	11	0.050004	0.000000000000000E+000	7.59809e+06	0.000000000000000E+000	0.000000000000000E+000	10.5819	10.5819	0.0000000E+000	0.000000000000000E+000	0.0612483
1	1	0	0	0	0	0	3841	10	6.13341	10.001	38.415	38.415	0	10.6708	11	0.0505489	0.000000000000000E+000	7.6478e+06	0.000000000000000E+000	0.000000000000000E+000	10.6708	10.6708	0.0000000E+000	0.000000000000000E+000	0.0613401
1	1	0	0	0	0	0	3873	10	6.14159	10.0017	38.735	38.735	0	10.7597	11	0.0510945	0.000000000000000E+000	7.69898e+06	0.000000000000000E+000	0.000000000000000E+000	10.7597	10.7597	0.0000000E+000	0.000000000000000E+000	0.0614263
1	1	0	0	0	0	0	3905	10	6.15027	10.0011	39.0551	39.0551	0	10.8486	11	0.051641	0.000000000000000E+000	7.74922e+06	0.000000000000000E+000	0.000000000000000E+000	10.8486	10.8486	0.0000000E+000	0.000000000000000E+000	0.0615095
1	1	0	0	0	0	0	3937	10	6.16003	10.0015	39.3751	39.3751	0	10.9375	11	0.0521882	0.000000000000000E+000	7.79763e+06	0.000000000000000E+000	0.000000000000000E+000	10.9375	10.9375	0.0000000E+000	0.000000000000000E+000	0.0616095
1	1	0	0	0	0	0	3969	10	6.16888	10.0006	39.6952	39.6952	0	11.0264	11	0.0527363	0.000000000000000E+000	7.84725e+06	0.000000000000000E+000	0.000000000000000E+000	11.0264	11.0264	0.0000000E+000	0.000000000000000E+000	0.0616925
1	1	0	0	0	0	0	4001	10	6.17789	10.0009	40.0152	40.0152	0	11.1153	11	0.0532851	0.000000000000000E+000	7.89646e+06	0.000000000000000E+000	0.000000000000000E+000	11.1153	11.1153	0.0000000E+000	0.000000000000000E+000	0.0617846
1	1	0	0	0	0	0	4033	10	6.18726	10.0017	40.3353	40.3353	0	11.2042	11	0.0538348	0.000000000000000E+000	7.94493e+06	0.000000000000000E+000	0.000000000000000E+000	11.2042	11.2042	0.0000000E+000	0.000000000000000E+000	0.0618834
1	1	0	0	0	0	0	4065	10	6.19451	10.0006	40.6553	40.6553	0	11.2931	11	0.0543852	0.000000000000000E+000	7.99654e+06	0.000000000000000E+000	0.000000000000000E+000	11.2931	11.2931	0.0000000E+000	0.000000000000000E+000	0.0619488
1	1	0	0	0	0	0	4097	10	6.20413	10.0017	40.9754	40.9754	0	11.382	11	0.0549363	0.000000000000000E+000	8.04427e+06	0.000000000000000E+000	0.000000000000000E+000	11.382	11.382	0.0000000E+000	0.000000000000000E+000	0.0620522
1	1	0	0	0	0	0	4129	10	6.21354	10.0015	41.2954	41.2954	0	11.4709	11	0.0554883	0.000000000000000E+000	8.09215e+06	0.000000000000000E+000	0.000000000000000E+000	11.4709	11.4709	0.0000000E+000	0.000000000000000E+000	0.0621447
1	1	0	0	0	0	0	4161	10	6.22268	10.0021	41.6155	41.6155	0	11.5598	11	0.0560411	0.000000000000000E+000	8.14028e+06	0.000000000000000E+000	0.000000000000000E+000	11.5598	11.5598	0.0000000E+000	0.000000000000000E+000	0.0622401
1	1	0	0	0	0	0	4193	10	6.23093	10.0014	41.9355	41.9355	0	11.6488	11	0.0565947	0.000000000000000E+000	8.18968e+06	0.000000000000000E+000	0.000000000000000E+000	11.6488	11.6488	0.0000000E+000	0.000000000000000E+000	0.0623178
1	1	0	0	0	0	0	4225	10	6.24087	10.002	42.2555	42.2555	0	11.7377	11	0.0571491	0.000000000000000E+000	8.23619e+06	0.000000000000000E+000	0.000000000000000E+000	11.7377	11.7377	0.0000000E+000	0.000000000000000E+000	0.0624212
1	1	0	0	0	0	0	4257	10	6.24918	10.0013	42.5756	42.5756	0	11.8266	11	0.0577043	0.000000000000000E+000	8.28515e+06	0.000000000000000E+000	0.000000000000000E+000	11.8266	11.8266	0.0000000E+000	0.000000000000000E+000	0.0625
1	1	0	0	0	0	0	4289	10	6.25969	10.0015	42.8956	42.8956	0	11.9155	11	0.0582604	0.000000000000000E+000	8.33039e+06	0.000000000000000E+000	0.000000000000000E+000	11.9155	11.9155	0.0000000E+000	0.000000000000000E+000	0.0626063
1	1	0	0	0	0	0	4321	10	6.26851	10.0014	43.2157	43.2157	0	12.0044	11	0.0588173	0.000000000000000E+000	8.37819e+06	0.000000000000000E+000	0.000000000000000E+000	12.0044	12.0044	0.0000000E+000	0.000000000000000E+000	0.0626937
1	1	0	0	0	0	0	4353	10	6.27777	10.0015	43.5357	43.5357	0	12.0933	11	0.059375	0.000000000000000E+000	8.42512e+06	0.000000000000000E+000	0.000000000000000E+000	12.0933	12.0933	0.0000000E+000	0.000000000000000E+000	0.0627871
1	1	0	0	0	0	0	4385	10	6.28661	10.0013	43.8558	43.8558	0	12.1822	11	0.0599335	0.000000000000000E+000	8.47256e+06	0.000000000000000E+000	0.000000000000000E+000	12.1822	12.1822	0.0000000E+000	0.000000000000000E+000	0.0628743
1	1	0	0	0	0	0	4417	10	6.29641	10.0012	44.1758	44.1758	0	12.2711	11	0.0604929	0.000000000000000E+000	8.51827e+06	0.000000000000000E+000	0.000000000000000E+000	12.2711	12.2711	0.0000000E+000	0.000000000000000E+000	0.0629719
1	1	0	0	0	0	0	4449	10	6.3058	10.0017	44.4959	44.4959	0	12.36	11	0.0610531	0.000000000000000E+000	8.56447e+06	0.000000000000000E+000	0.000000000000000E+000	12.36	12.36	0.0000000E+000	0.000000000000000E+000	0.0630686
1	1	0	0	0	0	0	4481	10	6.31483	10.0005	44.8159	44.8159	0	12.4489	11	0.0616141	0.000000000000000E+000	8.6111e+06	0.000000000000000E+000	0.000000000000000E+000	12.4489	12.4489	0.0000000E+000	0.000000000000000E+000	0.0631517
1	1	0	0	0	0	0	4513	10	6.32351	10.0014	45.136	45.136	0	12.5378	11	0.0621759	0.000000000000000E+000	8.65816e+06	0.000000000000000E+000	0.000000000000000E+000	12.5378	12.5378	0.0000000E+000	0.000000000000000E+000	0.0632438
1	1	0	0	0	0	0	4545	10	6.33451	10.0012	45.456	45.456	0	12.6267	11	0.0627386	0.000000000000000E+000	8.70119e+06	0.000000000000000E+000	0.000000000000000E+000	12.6267	12.6267	0.0000000E+000	0.000000000000000E+000	0.0633526
1	1	0	0	0	0	0	4577	10	6.3438	10.002	45.7761	45.7761	0	12.7156	11	0.0633021	0.000000000000000E+000	8.7469e+06	0.000000000000000E+000	0.000000000000000E+000	12.7156	12.7156	0.0000000E+000	0.000000000000000E+000	0.0634507
1	1	0	0	0	0	0	4609	10	6.35256	10.0019	46.0961	46.0961	0	12.8045	11	0.0638664	0.000000000000000E+000	8.79334e+06	0.000000000000000E+000	0.000000000000000E+000	12.8045	12.8045	0.0000000E+000	0.000000000000000E+000	0.0635375
1	1	0	0	0	0	0	4641	10	6.36195	10.0019	46.4161	46.4161	0	12.8934	11	0.0644316	0.000000000000000E+000	8.83855e+06	0.000000000000000E+000	0.000000000000000E+000	12.8934	12.8934	0.0000000E+000	0.000000000000000E+000	0.0636315
1	1	0	0	0	0	0	4673	10	6.37085	10.0007	46.7362	46.7362	0	12.9823	11	0.0649976	0.000000000000000E+000	8.88444e+06	0.000000000000000E+000	0.000000000000000E+000	12.9823	12.9823	0.0000000E+000	0.000000000000000E+000	0.0637132
1	1	0	0	0	0	0	4705	10	6.37985	10.0012	47.0562	47.0562	0	13.0712	11	0.0655644	0.000000000000000E+000	8.93e+06	0.000000000000000E+000	0.000000000000000E+000	13.0712	13.0712	0.0000000E+000	0.000000000000000E+000	0.0638064
1	1	0	0	0	0	0	4737	10	6.38935	10.0019	47.3763	47.3763	0	13.1601	11	0.066132	0.000000000000000E+000	8.97456e+06	0.000000000000000E+000	0.000000000000000E+000	13.1601	13.1601	0.0000000E+000	0.000000000000000E+000	0.0639055
1	1	0	0	0	0	0	4769	10	6.39857	10.0009	47.6963	47.6963	0	13.249	11	0.0667005	0.000000000000000E+000	9.01943e+06	0.000000000000000E+000	0.000000000000000E+000	13.249	13.249	0.0000000E+000	0.000000000000000E+000	0.0639916
1	1	0	0	0	0	0	4801	10	6.40858	10.0021	48.0164	48.0164	0	13.3379	11	0.0672697	0.000000000000000E+000	9.06281e+06	0.000000000000000E+000	0.000000000000000E+000	13.3379	13.3379	0.0000000E+000	0.000000000000000E+000	0.0640994
1	1	0	0	0	0	0	4833	10	6.41759	10.0017	48.3364	48.3364	0	13.4268	11	0.0678399	0.000000000000000E+000	9.10771e+06	0.000000000000000E+000	0.000000000000000E+000	13.4268	13.4268	0.0000000E+000	0.000000000000000E+000	0.0641867
1	1	0	0	0	0	0	4865	10	6.42678	10.0015	48.6565	48.6565	0	13.5157	11	0.0684108	0.000000000000000E+000	9.15217e+06	0.000000000000000E+000	0.000000000000000E+000	13.5157	13.5157	0.0000000E+000	0.000000000000000E+000	0.0642774
1	1	0	0	0	0	0	4897	10	6.43676	10.0012	48.9765	48.9765	0	13.6046	11	0.0689827	0.000000000000000E+000	9.19511e+06	0.000000000000000E+000	0.000000000000000E+000	13.6046	13.6046	0.0000000E+000	0.000000000000000E+000	0.0643752
1	1	0	0	0	0	0	4929	10	6.44655	10.001	49.2966	49.2966	0	13.6935	11	0.0695553	0.000000000000000E+000	9.23822e+06	0.000000000000000E+000	0.000000000000000E+000	13.6935	13.6935	0.0000000E+000	0.000000000000000E+000	0.0644719
1	1	0	0	0	0	0	4961	10	6.45612	10.0016	49.6166	49.6166	0	13.7824	11	0.0701288	0.000000000000000E+000	9.28156e+06	0.000000000000000E+000	0.000000000000000E+000	13.7824	13.7824	0.0000000E+000	0.000000000000000E+000	0.0645712
1	1	0	0	0	0	0	4993	10	6.46528	10.0018	49.9366	49.9366	0	13.8713	11	0.0707031	0.000000000000000E+000	9.32543e+06	0.000000000000000E+000	0.000000000000000E+000	13.8713	13.8713	0.0000000E+000	0.000000000000000E+000	0.0646646
1	1	0	0	0	0	0	5025	10	6.47532	10.0012	50.2567	50.2567	0	13.9602	11	0.0712784	0.000000000000000E+000	9.36765e+06	0.000000000000000E+000	0.000000000000000E+000	13.9602	13.9602	0.0000000E+000	0.000000000000000E+000	0.0647612
1	1	0	0	0	0	0	5057	10	6.4844	10.0012	50.5767	50.5767	0	14.0491	11	0.0718544	0.000000000000000E+000	9.41137e+06	0.000000000000000E+000	0.000000000000000E+000	14.0491	14.0491	0.0000000E+000	0.000000000000000E+000	0.064852
1	1	0	0	0	0	0	5089	10	6.49389	10.0011	50.8968	50.8968	0	14.138	11	0.0724313	0.000000000000000E+000	9.45423e+06	0.000000000000000E+000	0.000000000000000E+000	14.138	14.138	0.0000000E+000	0.000000000000000E+000	0.0649461
1	1	0	0	0	0	0	5121	10	6.50344	10.0017	51.2168	51.2168	0	14.2269	11	0.0730091	0.000000000000000E+000	9.49682e+06	0.000000000000000E+000	0.000000000000000E+000	14.2269	14.2269	0.0000000E+000	0.000000000000000E+000	0.0650458
1	1	0	0	0	0	0	5153	10	6.51356	10.0016	51.5369	51.5369	0	14.3158	11	0.0735877	0.000000000000000E+000	9.53828e+06	0.000000000000000E+000	0.000000000000000E+000	14.3158	14.3158	0.0000000E+000	0.000000000000000E+000	0.0651461
1	1	0	0	0	0	0	5185	10	6.524	10.0018	51.8569	51.8569	0	14.4047	11	0.0741672	0.000000000000000E+000	9.57901e+06	0.000000000000000E+000	0.000000000000000E+000	14.4047	14.4047	0.0000000E+000	0.000000000000000E+000	0.0652518
1	1	0	0	0	0	0	5217	10	6.53324	10.0014	52.177	52.177	0	14.4936	11	0.0747476	0.000000000000000E+000	9.62169e+06	0.000000000000000E+000	0.000000000000000E+000	14.4936	14.4936	0.0000000E+000	0.000000000000000E+000	0.0653418
1	1	0	0	0	0	0	5249	10	6.54253	10.0011	52.497	52.497	0	14.5825	11	0.0753288	0.000000000000000E+000	9.66417e+06	0.000000000000000E+000	0.000000000000000E+000	14.5825	14.5825	0.0000000E+000	0.000000000000000E+000	0.0654325
1	1	0	0	0	0	0	5281	10	6.5526	10.0017	52.817	52.817	0	14.6714	11	0.0759109	0.000000000000000E+000	9.70508e+06	0.000000000000000E+000	0.000000000000000E+000	14.6714	14.6714	0.0000000E+000	0.000000000000000E+000	0.0655371
1	1	0	0	0	0	0	5313	10	6.56135	10.0019	53.1371	53.1371	0	14.7603	11	0.0764939	0.000000000000000E+000	9.74821e+06	0.000000000000000E+000	0.000000000000000E+000	14.7603	14.7603	0.0000000E+000	0.000000000000000E+000	0.0656263
1	1	0	0	0	0	0	5345	10	6.57196	10.0014	53.4571	53.4571	0	14.8492	11	0.0770777	0.000000000000000E+000	9.78788e+06	0.000000000000000E+000	0.000000000000000E+000	14.8492	14.8492	0.0000000E+000	0.000000000000000E+000	0.0657286
1	1	0	0	0	0	0	5377	10	6.58173	10.0016	53.7772	53.7772	0	14.9381	11	0.0776624	0.000000000000000E+000	9.8289e+06	0.000000000000000E+000	0.000000000000000E+000	14.9381	14.9381	0.0000000E+000	0.000000000000000E+000	0.065828
1	1	0	0	0	0	0	5409	10	6.59257	10.0017	54.0972	54.0972	0	15.027	11	0.078248	0.000000000000000E+000	9.86784e+06	0.000000000000000E+000	0.000000000000000E+000	15.027	15.027	0.0000000E+000	0.000000000000000E+000	0.0659369
1	1	0	0	0	0	0	5441	10	6.60267	10.0016	54.4173	54.4173	0	15.1159	11	0.0788346	0.000000000000000E+000	9.90797e+06	0.000000000000000E+000	0.000000000000000E+000	15.1159	15.1159	0.0000000E+000	0.000000000000000E+000	0.0660374
1	1	0	0	0	0	0	5473	10	6.61282	10.0009	54.7373	54.7373	0	15.2048	11	0.079422	0.000000000000000E+000	9.94786e+06	0.000000000000000E+000	0.000000000000000E+000	15.2048	15.2048	0.0000000E+000	0.000000000000000E+000	0.0661343
1	1	0	0	0	0	0	5505	10	6.62258	10.0014	55.0574	55.0574	0	15.2937	11	0.0800103	0.000000000000000E+000	9.98831e+06	0.000000000000000E+000	0.000000000000000E+000	15.2937	15.2937	0.0000000E+000	0.000000000000000E+000	0.0662348
1	1	0	0	0	0	0	5537	10	6.63345	10.0013	55.3774	55.3774	0	15.3826	11	0.0805996	0.000000000000000E+000	1.00266e+07	0.000000000000000E+000	0.000000000000000E+000	15.3826	15.3826	0.0000000E+000	0.000000000000000E+000	0.0663431
1	1	0	0	0	0	0	5569	10	6.64339	10.0017	55.6975	55.6975	0	15.4715	11	0.0811897	0.000000000000000E+000	1.00664e+07	0.000000000000000E+000	0.000000000000000E+000	15.4715	15.4715	0.0000000E+000	0.000000000000000E+000	0.0664451
1	1	0	0	0	0	0	5601	10	6.65353	10.0016	56.0175	56.0175	0	15.5604	11	0.0817807	0.000000000000000E+000	1.01058e+07	0.000000000000000E+000	0.000000000000000E+000	15.5604	15.5604	0.0000000E+000	0.000000000000000E+000	0.0665456
1	1	0	0	0	0	0	5633	10	6.66394	10.0013	56.3376	56.3376	0	15.6493	11	0.0823727	0.000000000000000E+000	1.01444e+07	0.000000000000000E+000	0.000000000000000E+000	15.6493	15.6493	0.0000000E+000	0.000000000000000E+000	0.0666481
1	1	0	0	0	0	0	5665	10	6.6745	10.0017	56.6576	56.6576	0	15.7382	11	0.0829656	0.000000000000000E+000	1.01827e+07	0.000000000000000E+000	0.000000000000000E+000	15.7382	15.7382	0.0000000E+000	0.000000000000000E+000	0.0667567
1	1	0	0	0	0	0	5697	10	6.68497	10.0014	56.9776	56.9776	0	15.8271	11	0.0835594	0.000000000000000E+000	1.0221e+07	0.000000000000000E+000	0.000000000000000E+000	15.8271	15.8271	0.0000000E+000	0.000000000000000E+000	0.0668592
1	1	0	0	0	0	0	5729	10	6.69417	10.0011	57.2977	57.2977	0	15.916	11	0.0841542	0.000000000000000E+000	1.02615e+07	0.000000000000000E+000	0.000000000000000E+000	15.916	15.916	0.0000000E+000	0.000000000000000E+000	0.0669492
1	1	0	0	0	0	0	5761	10	6.70479	10.0009	57.6177	57.6177	0	16.0049	11	0.0847498	0.000000000000000E+000	1.02992e+07	0.000000000000000E+000	0.000000000000000E+000	16.0049	16.0049	0.0000000E+000	0.000000000000000E+000	0.0670541
1	1	0	0	0	0	0	5793	10	6.71526	10.0021	57.9378	57.9378	0	16.0938	11	0.0853464	0.000000000000000E+000	1.03371e+07	0.000000000000000E+000	0.000000000000000E+000	16.0938	16.0938	0.0000000E+000	0.000000000000000E+000	0.0671669
1	1	0	0	0	0	0	5825	10	6.7257	10.0015	58.2578	58.2578	0	16.1827	11	0.0859438	0.000000000000000E+000	1.03748e+07	0.000000000000000E+000	0.000000000000000E+000	16.1827	16.1827	0.0000000E+000	0.000000000000000E+000	0.0672671
1	1	0	0	0	0	0	5857	10	6.736	10.001	58.5779	58.5779	0	16.2716	11	0.0865422	0.000000000000000E+000	1.04127e+07	0.000000000000000E+000	0.000000000000000E+000	16.2716	16.2716	0.0000000E+000	0.000000000000000E+000	0.0673667
1	1	0	0	0	0	0	5889	10	6.7469	10.0006	58.8979	58.8979	0	16.3605	11	0.0871415	0.000000000000000E+000	1.04494e+07	0.000000000000000E+000	0.000000000000000E+000	16.3605	16.3605	0.0000000E+000	0.000000000000000E+000	0.067473
1	1	0	0	0	0	0	5921	10	6.75668	10.001	59.218	59.218	0	16.4494	11	0.0877418	0.000000000000000E+000	1.0488e+07	0.000000000000000E+000	0.000000000000000E+000	16.4494	16.4494	0.0000000E+000	0.000000000000000E+000	0.0675735
1	1	0	0	0	0	0	5953	10	6.76784	10.0017	59.538	59.538	0	16.5383	11	0.0883429	0.000000000000000E+000	1.05238e+07	0.000000000000000E+000	0.000000000000000E+000	16.5383	16.5383	0.0000000E+000	0.000000000000000E+000	0.0676898
1	1	0	0	0	0	0	5985	10	6.77744	10.0015	59.8581	59.8581	0	16.6272	11	0.0889451	0.000000000000000E+000	1.05625e+07	0.000000000000000E+000	0.000000000000000E+000	16.6272	16.6272	0.0000000E+000	0.000000000000000E+000	0.0677846
1	1	0	0	0	0	0	6017	10	6.78782	10.0011	60.1781	60.1781	0	16.7161	11	0.0895481	0.000000000000000E+000	1.05995e+07	0.000000000000000E+000	0.000000000000000E+000	16.7161	16.7161	0.0000000E+000	0.000000000000000E+000	0.0678857
1	1	0	0	0	0	0	6049	10	6.79824	10.0014	60.4981	60.4981	0	16.805	11	0.090152	0.000000000000000E+000	1.06364e+07	0.000000000000000E+000	0.000000000000000E+000	16.805	16.805	0.0000000E+000	0.000000000000000E+000	0.0679921
1	1	0	0	0	0	0	6081	10	6.80957	10.0007	60.8182	60.8182	0	16.8939	11	0.0907569	0.000000000000000E+000	1.06714e+07	0.000000000000000E+000	0.000000000000000E+000	16.8939	16.8939	0.0000000E+000	0.000000000000000E+000	0.0681007
1	1	0	0	0	0	0	6113	10	6.8202	10.002	61.1382	61.1382	0	16.9828	11	0.0913627	0.000000000000000E+000	1.07076e+07	0.000000000000000E+000	0.000000000000000E+000	16.9828	16.9828	0.0000000E+000	0.000000000000000E+000	0.0682157
1	1	0	0	0	0	0	6145	10	6.82977	10.0021	61.4583	61.4583	0	17.0717	11	0.0919695	0.000000000000000E+000	1.07456e+07	0.000000000000000E+000	0.000000000000000E+000	17.0717	17.0717	0.0000000E+000	0.000000000000000E+000	0.0683118
1	1	0	0	0	0	0	6177	10	6.84249	10.001	61.7783	61.7783	0	17.1606	11	0.0925772	0.000000000000000E+000	1.07776e+07	0.000000000000000E+000	0.000000000000000E+000	17.1606	17.1606	0.0000000E+000	0.000000000000000E+000	0.0684321
1	1	0	0	0	0	0	6209	10	6.85145	10.0015	62.0984	62.0984	0	17.2495	11	0.0931859	0.000000000000000E+000	1.08165e+07	0.000000000000000E+000	0.000000000000000E+000	17.2495	17.2495	0.0000000E+000	0.000000000000000E+000	0.0685247
1	1	0	0	0	0	0	6241	10	6.86245	10.0019	62.4184	62.4184	0	17.3384	11	0.0937955	0.000000000000000E+000	1.08515e+07	0.000000000000000E+000	0.000000000000000E+000	17.3384	17.3384	0.0000000E+000	0.000000000000000E+000	0.0686378
1	1	0	0	0	0	0	6273	10	6.87352	10.0015	62.7385	62.7385	0	17.4274	11	0.0944061	0.000000000000000E+000	1.08862e+07	0.000000000000000E+000	0.000000000000000E+000	17.4274	17.4274	0.0000000E+000	0.000000000000000E+000	0.0687455
1	1	0	0	0	0	0	6305	10	6.88458	10.0014	63.0585	63.0585	0	17.5163	11	0.0950177	0.000000000000000E+000	1.09208e+07	0.000000000000000E+000	0.000000000000000E+000	17.5163	17.5163	0.0000000E+000	0.000000000000000E+000	0.0688557
1	1	0	0	0	0	0	6337	10	6.89453	10.002	63.3786	63.3786	0	17.6052	11	0.0956302	0.000000000000000E+000	1.09573e+07	0.000000000000000E+000	0.000000000000000E+000	17.6052	17.6052	0.0000000E+000	0.000000000000000E+000	0.0689591
1	1	0	0	0	0	0	6369	10	6.90573	10.0014	63.6986	63.6986	0	17.6941	11	0.0962436	0.000000000000000E+000	1.09914e+07	0.000000000000000E+000	0.000000000000000E+000	17.6941	17.6941	0.0000000E+000	0.000000000000000E+000	0.0690667
1	1	0	0	0	0	0	6401	10	6.91604	10.0013	64.0186	64.0186	0	17.783	11	0.096858	0.000000000000000E+000	1.1027e+07	0.000000000000000E+000	0.000000000000000E+000	17.783	17.783	0.0000000E+000	0.000000000000000E+000	0.0691694
1	1	0	0	0	0	0	6433	10	6.92631	10.0014	64.3387	64.3387	0	17.8719	11	0.0974734	0.000000000000000E+000	1.10625e+07	0.000000000000000E+000	0.000000000000000E+000	17.8719	17.8719	0.0000000E+000	0.000000000000000E+000	0.0692726
1	1	0	0	0	0	0	6465	10	6.93769	10.0009	64.6587	64.6587	0	17.9608	11	0.0980897	0.000000000000000E+000	1.10958e+07	0.000000000000000E+000	0.000000000000000E+000	17.9608	17.9608	0.0000000E+000	0.000000000000000E+000	0.0693833
1	1	0	0	0	0	0	6497	10	6.9486	10.0017	64.9788	64.9788	0	18.0497	11	0.098707	0.000000000000000E+000	1.11299e+07	0.000000000000000E+000	0.000000000000000E+000	18.0497	18.0497	0.0000000E+000	0.000000000000000E+000	0.0694977
1	1	0	0	0	0	0	6529	10	6.95953	10.0008	65.2988	65.2988	0	18.1386	11	0.0993252	0.000000000000000E+000	1.11638e+07	0.000000000000000E+000	0.000000000000000E+000	18.1386	18.1386	0.0000000E+000	0.000000000000000E+000	0.0696009
1	1	0	0	0	0	0	6561	10	6.97033	10.0021	65.6189	65.6189	0	18.2275	11	0.0999444	0.000000000000000E+000	1.11979e+07	0.000000000000000E+000	0.000000000000000E+000	18.2275	18.2275	0.0000000E+000	0.000000000000000E+000	0.0697181
1	1	0	0	0	0	0	6593	10	6.9809	10.0016	65.9389	65.9389	0	18.3164	11	0.100565	0.000000000000000E+000	1.12323e+07	0.000000000000000E+000	0.000000000000000E+000	18.3164	18.3164	0.0000000E+000	0.000000000000000E+000	0.0698198
1	1	0	0	0	0	0	6625	10	6.99203	10.0021	66.259	66.259	0	18.4053	11	0.101186	0.000000000000000E+000	1.12654e+07	0.000000000000000E+000	0.000000000000000E+000	18.4053	18.4053	0.0000000E+000	0.000000000000000E+000	0.0699352
1	1	0	0	0	0	0	6657	10	7.00295	10.0014	66.579	66.579	0	18.4942	11	0.101808	0.000000000000000E+000	1.12988e+07	0.000000000000000E+000	0.000000000000000E+000	18.4942	18.4942	0.0000000E+000	0.000000000000000E+000	0.070039
1	1	0	0	0	0	0	6689	10	7.01309	10.0014	66.8991	66.8991	0	18.5831	11	0.102431	0.000000000000000E+000	1.13337e+07	0.000000000000000E+000	0.000000000000000E+000	18.5831	18.5831	0.0000000E+000	0.000000000000000E+000	0.0701405
1	1	0	0	0	0	0	6721	10	7.02373	10.0016	67.2191	67.2191	0	18.672	11	0.103055	0.000000000000000E+000	1.13674e+07	0.000000000000000E+000	0.000000000000000E+000	18.672	18.672	0.0000000E+000	0.000000000000000E+000	0.0702487
1	1	0	0	0	0	0	6753	10	7.03551	10.0014	67.5391	67.5391	0	18.7609	11	0.10368	0.000000000000000E+000	1.13988e+07	0.000000000000000E+000	0.000000000000000E+000	18.7609	18.7609	0.0000000E+000	0.000000000000000E+000	0.0703651
1	1	0	0	0	0	0	6785	10	7.04571	10.0018	67.8592	67.8592	0	18.8498	11	0.104306	0.000000000000000E+000	1.14331e+07	0.000000000000000E+000	0.000000000000000E+000	18.8498	18.8498	0.0000000E+000	0.000000000000000E+000	0.0704699
1	1	0	0	0	0	0	6817	10	7.05667	10.0007	68.1792	68.1792	0	18.9387	11	0.104933	0.000000000000000E+000	1.14659e+07	0.000000000000000E+000	0.000000000000000E+000	18.9387	18.9387	0.0000000E+000	0.000000000000000E+000	0.0705715
1	1	0	0	0	0	0	6849	10	7.06844	10.0002	68.4993	68.4993	0	19.0276	11	0.10556	0.000000000000000E+000	1.1497e+07	0.000000000000000E+000	0.000000000000000E+000	19.0276	19.0276	0.0000000E+000	0.000000000000000E+000	0.0706859
1	1	0	0	0	0	0	6881	10	7.07932	10.0014	68.8193	68.8193	0	19.1165	11	0.106189	0.000000000000000E+000	1.15296e+07	0.000000000000000E+000	0.000000000000000E+000	19.1165	19.1165	0.0000000E+000	0.000000000000000E+000	0.0708029
1	1	0	0	0	0	0	6913	10	7.08983	10.0016	69.1394	69.1394	0	19.2054	11	0.106819	0.000000000000000E+000	1.15629e+07	0.000000000000000E+000	0.000000000000000E+000	19.2054	19.2054	0.0000000E+000	0.000000000000000E+000	0.0709094
1	1	0	0	0	0	0	6945	10	7.10151	10.0014	69.4594	69.4594	0	19.2943	11	0.10745	0.000000000000000E+000	1.15937e+07	0.000000000000000E+000	0.000000000000000E+000	19.2943	19.2943	0.0000000E+000	0.000000000000000E+000	0.0710253
1	1	0	0	0	0	0	6977	10	7.11058	10.0016	69.7795	69.7795	0	19.3832	11	0.108082	0.000000000000000E+000	1.16296e+07	0.000000000000000E+000	0.000000000000000E+000	19.3832	19.3832	0.0000000E+000	0.000000000000000E+000	0.0711168
1	1	0	0	0	0	0	7009	10	7.12208	10.0014	70.0995	70.0995	0	19.4721	11	0.108714	0.000000000000000E+000	1.16605e+07	0.000000000000000E+000	0.000000000000000E+000	19.4721	19.4721	0.0000000E+000	0.000000000000000E+000	0.0712305
1	1	0	0	0	0	0	7041	10	7.13275	10.0019	70.4195	70.4195	0	19.561	11	0.109348	0.000000000000000E+000	1.1693e+07	0.000000000000000E+000	0.000000000000000E+000	19.561	19.561	0.0000000E+000	0.000000000000000E+000	0.0713409
1	1	0	0	0	0	0	7073	10	7.14335	10.0013	70.7396	70.7396	0	19.6499	11	0.109983	0.000000000000000E+000	1.17255e+07	0.000000000000000E+000	0.000000000000000E+000	19.6499	19.6499	0.0000000E+000	0.000000000000000E+000	0.0714428
1	1	0	0	0	0	0	7105	10	7.15497	10.0019	71.0596	71.0596	0	19.7388	11	0.110618	0.000000000000000E+000	1.17559e+07	0.000000000000000E+000	0.000000000000000E+000	19.7388	19.7388	0.0000000E+000	0.000000000000000E+000	0.0715632
1	1	0	0	0	0	0	7137	10	7.16563	10.0014	71.3797	71.3797	0	19.8277	11	0.111255	0.000000000000000E+000	1.17881e+07	0.000000000000000E+000	0.000000000000000E+000	19.8277	19.8277	0.0000000E+000	0.000000000000000E+000	0.0716661
1	1	0	0	0	0	0	7169	10	7.17681	10.0017	71.6997	71.6997	0	19.9166	11	0.111892	0.000000000000000E+000	1.18191e+07	0.000000000000000E+000	0.000000000000000E+000	19.9166	19.9166	0.0000000E+000	0.000000000000000E+000	0.0717802
1	1	0	0	0	0	0	7200.05	10	7.18733	10.0012	72.0103	72.0103	0	20.0029	11	0.112512	0.000000000000000E+000	1.18498e+07	0.000000000000000E+000	0.000000000000000E+000	20.0029	20.0029	0.0000000E+000	0.000000000000000E+000	0.0718818