File: Data_1mg/2022_01_27 FeNx 1mg ref309_set1_03_CP_C02.mpt
EC-Lab ASCII FILE
Nb header lines : 53

Chronopotentiometry

Run on channel : 2 (SN 12477)
User :
CE vs. WE compliance from -10 V to 10 V
Electrode connection : standard
Potential control : Ewe
Ewe ctrl range : min = -2.50 V, max = 2.50 V
Safety Limits :
	Do not start on E overload
Acquisition started on : 01/27/2023 13:25:48.279
Loaded Setting File :  C:\Users\grupogalan\Documents\EC-Lab\Data\Scott\_cyclic_pause_tafel.mps
Saved on :
	File : 2022_01_27 FeNx 1mg ref309_set1_03_CP_C02.mpr
	Directory : C:\Users\grupogalan\Documents\EC-Lab\Data\Scott\
	Host : 169.254.104.159
Device : VSP (SN 1176)
Address : USB
EC-Lab for windows v11.46 (software)
Internet server v11.40 (firmware)
Command interpretor v11.40 (firmware)
Electrode material :
Initial state :
Electrolyte :
Comments :
Electrode surface area : 0.000 cm²
Characteristic mass : 0.001 g
Equivalent Weight : 0.000 g/eq.
Density : 0.000 g/cm3
Volume (V) : 0.001 cm³
Cycle Definition : Charge/Discharge alternance
Ns                  0                   1                   2                   3                   4                   5                   6                   7                   8                   9                   10                  11                  12
Is                  10.000              18.000              32.000              56.000              100.000             178.000             316.000             562.000             1.000               1.778               3.162               5.623               10.000
unit Is             µA                  µA                  µA                  µA                  µA                  µA                  µA                  µA                  mA                  mA                  mA                  mA                  mA
vs.                 <None>              <None>              <None>              <None>              <None>              <None>              <None>              <None>              <None>              <None>              <None>              <None>              <None>
ts (h:m:s)          0:03:0.0000         0:03:0.0000         0:03:0.0000         0:03:0.0000         0:03:0.0000         0:03:0.0000         0:03:0.0000         0:03:0.0000         0:03:0.0000         0:03:0.0000         0:03:0.0000         0:03:0.0000         0:03:0.0000
EM (V)              pass                pass                pass                pass                pass                pass                pass                pass                pass                pass                pass                pass                pass
dQM                 500.000             900.000             1.600               2.800               5.000               8.900               15.800              28.100              50.000              88.900              158.100             281.150             500.000
unit dQM            nA.h                nA.h                µA.h                µA.h                µA.h                µA.h                µA.h                µA.h                µA.h                µA.h                µA.h                µA.h                µA.h
record              <Ewe>               <Ewe>               <Ewe>               <Ewe>               <Ewe>               <Ewe>               <Ewe>               <Ewe>               <Ewe>               <Ewe>               <Ewe>               <Ewe>               <Ewe>
dEs (mV)            0.00                0.00                0.00                0.00                0.00                0.00                0.00                0.00                0.00                0.00                0.00                0.00                0.00
dts (s)             1.0000              1.0000              1.0000              1.0000              1.0000              1.0000              1.0000              1.0000              1.0000              1.0000              1.0000              1.0000              1.0000
E range min (V)     -2.500              -2.500              -2.500              -2.500              -2.500              -2.500              -2.500              -2.500              -2.500              -2.500              -2.500              -2.500              -2.500
E range max (V)     2.500               2.500               2.500               2.500               2.500               2.500               2.500               2.500               2.500               2.500               2.500               2.500               2.500
I Range             10 mA               10 mA               10 mA               10 mA               10 mA               10 mA               10 mA               10 mA               10 mA               10 mA               10 mA               10 mA               10 mA
Bandwidth           5                   5                   5                   5                   5                   5                   5                   5                   5                   5                   5                   5                   5
goto Ns'            0                   0                   0                   0                   0                   0                   0                   0                   0                   0                   0                   0                   0
nc cycles           0                   0                   0                   0                   0                   0                   0                   0                   0                   0                   0                   0                   0

mode	ox/red	error	control changes	Ns changes	counter inc.	Ns	time/s	control/mA	<Ewe>/V	I/mA	dQ/C	(Q-Qo)/C	half cycle	Q charge/discharge/mA.h	I Range	Energy charge/W.h	Energy discharge/W.h	Capacitance charge/µF	Capacitance discharge/µF	Q discharge/mA.h	Q charge/mA.h	Capacity/mA.h	Efficiency/%	cycle number	P/W
1	1	0	1	0	0	0	671.507	0.01	-0.0195756	0.0108168	1.08592e-05	1.08592e-05	0	3.01643e-06	11	5.90485e-11	0.000000000000000E+000	0.000000000000000E+000	0.000000000000000E+000	0.000000000000000E+000	3.01643e-06	3.01643e-06	0.0000000E+000	0.000000000000000E+000	-2.11745e-07
1	1	0	1	0	0	0	683.507	0.01	0.462164	0.0112622	0.000148184	0.000148184	0	4.11621e-05	11	1.05694e-08	0.000000000000000E+000	307.601	0.000000000000000E+000	0.000000000000000E+000	4.11621e-05	4.11621e-05	0.0000000E+000	0.000000000000000E+000	5.20498e-06
1	1	0	1	0	0	0	695.507	0.01	0.617223	0.0116439	0.000285413	0.000285413	0	7.92814e-05	11	3.22122e-08	0.000000000000000E+000	448.2	0.000000000000000E+000	0.000000000000000E+000	7.92814e-05	7.92814e-05	0.0000000E+000	0.000000000000000E+000	7.1869e-06
1	1	0	1	0	0	0	707.507	0.01	0.645521	0.0108804	0.000422464	0.000422464	0	0.000117351	11	5.64286e-08	0.000000000000000E+000	635.192	0.000000000000000E+000	0.000000000000000E+000	0.000117351	0.000117351	0.0000000E+000	0.000000000000000E+000	7.02355e-06
1	1	0	1	0	0	0	719.507	0.01	0.652485	0.0116439	0.000559797	0.000559797	0	0.000155499	11	8.12239e-08	0.000000000000000E+000	832.957	0.000000000000000E+000	0.000000000000000E+000	0.000155499	0.000155499	0.0000000E+000	0.000000000000000E+000	7.59749e-06
1	1	0	1	0	0	0	731.507	0.01	0.653668	0.0110077	0.000696976	0.000696976	0	0.000193604	11	1.06116e-07	0.000000000000000E+000	1035.25	0.000000000000000E+000	0.000000000000000E+000	0.000193604	0.000193604	0.0000000E+000	0.000000000000000E+000	7.19537e-06
1	1	0	1	0	0	0	743.507	0.01	0.654319	0.0113894	0.000834251	0.000834251	0	0.000231736	11	1.31057e-07	0.000000000000000E+000	1237.95	0.000000000000000E+000	0.000000000000000E+000	0.000231736	0.000231736	0.0000000E+000	0.000000000000000E+000	7.45232e-06
1	1	0	1	0	0	0	755.507	0.01	0.654005	0.0110713	0.000971371	0.000971371	0	0.000269825	11	1.55979e-07	0.000000000000000E+000	1442.1	0.000000000000000E+000	0.000000000000000E+000	0.000269825	0.000269825	0.0000000E+000	0.000000000000000E+000	7.24069e-06
1	1	0	1	0	0	0	767.507	0.01	0.651959	0.0122802	0.00110848	0.00110848	0	0.000307911	11	1.80812e-07	0.000000000000000E+000	1650.66	0.000000000000000E+000	0.000000000000000E+000	0.000307911	0.000307911	0.0000000E+000	0.000000000000000E+000	8.00618e-06
1	1	0	1	0	0	0	779.507	0.01	0.651379	0.0118984	0.00124557	0.00124557	0	0.000345991	11	2.05624e-07	0.000000000000000E+000	1856.41	0.000000000000000E+000	0.000000000000000E+000	0.000345991	0.000345991	0.0000000E+000	0.000000000000000E+000	7.75039e-06
1	1	0	1	0	0	0	791.507	0.01	0.65045	0.0115167	0.00138256	0.00138256	0	0.000384045	11	2.30391e-07	0.000000000000000E+000	2063.45	0.000000000000000E+000	0.000000000000000E+000	0.000384045	0.000384045	0.0000000E+000	0.000000000000000E+000	7.49102e-06
1	1	0	1	0	0	0	803.507	0.01	0.64896	0.0114531	0.00151971	0.00151971	0	0.000422142	11	2.55141e-07	0.000000000000000E+000	2273.19	0.000000000000000E+000	0.000000000000000E+000	0.000422142	0.000422142	0.0000000E+000	0.000000000000000E+000	7.43258e-06
1	1	0	1	0	0	0	815.507	0.01	0.647316	0.0110713	0.00165676	0.00165676	0	0.000460211	11	2.79802e-07	0.000000000000000E+000	2484.3	0.000000000000000E+000	0.000000000000000E+000	0.000460211	0.000460211	0.0000000E+000	0.000000000000000E+000	7.16663e-06
1	1	0	1	0	0	0	827.507	0.01	0.645939	0.0119621	0.0017938	0.0017938	0	0.000498279	11	3.04418e-07	0.000000000000000E+000	2695.36	0.000000000000000E+000	0.000000000000000E+000	0.000498279	0.000498279	0.0000000E+000	0.000000000000000E+000	7.72676e-06
1	1	0	1	0	0	0	839.507	0.01	0.643455	0.0111986	0.00193099	0.00193099	0	0.000536387	11	3.28979e-07	0.000000000000000E+000	2912.37	0.000000000000000E+000	0.000000000000000E+000	0.000536387	0.000536387	0.0000000E+000	0.000000000000000E+000	7.20577e-06
1	1	0	1	0	0	0	850.56	0.01	0.640889	0.0116439	0.00205725	0.00205725	0	0.000571458	11	3.51501e-07	0.000000000000000E+000	3114.85	0.000000000000000E+000	0.000000000000000E+000	0.000571458	0.000571458	0.0000000E+000	0.000000000000000E+000	7.46248e-06
1	1	0	0	0	0	1	862.56	0.018	0.672711	0.0190244	0.000225676	0.00228292	0	0.000634146	11	3.93628e-07	0.000000000000000E+000	3297.66	0.000000000000000E+000	0.000000000000000E+000	0.000634146	0.000634146	0.0000000E+000	0.000000000000000E+000	1.27979e-05
1	1	0	0	0	0	1	874.56	0.018	0.671455	0.0178792	0.000451372	0.00250862	0	0.000696839	11	4.35749e-07	0.000000000000000E+000	3630.26	0.000000000000000E+000	0.000000000000000E+000	0.000696839	0.000696839	0.0000000E+000	0.000000000000000E+000	1.20051e-05
1	1	0	0	0	0	1	886.56	0.018	0.670373	0.0186427	0.000677101	0.00273435	0	0.000759542	11	4.77823e-07	0.000000000000000E+000	3963.12	0.000000000000000E+000	0.000000000000000E+000	0.000759542	0.000759542	0.0000000E+000	0.000000000000000E+000	1.24976e-05
1	1	0	0	0	0	1	898.56	0.018	0.66956	0.0184518	0.000902776	0.00296002	0	0.000822229	11	5.1982e-07	0.000000000000000E+000	4295.27	0.000000000000000E+000	0.000000000000000E+000	0.000822229	0.000822229	0.0000000E+000	0.000000000000000E+000	1.23546e-05
1	1	0	0	0	0	1	910.56	0.018	0.668432	0.0193426	0.00112849	0.00318574	0	0.000884929	11	5.61762e-07	0.000000000000000E+000	4630.39	0.000000000000000E+000	0.000000000000000E+000	0.000884929	0.000884929	0.0000000E+000	0.000000000000000E+000	1.29292e-05
1	1	0	0	0	0	1	922.56	0.018	0.66725	0.0189608	0.00135422	0.00341147	0	0.000947629	11	6.03634e-07	0.000000000000000E+000	4967	0.000000000000000E+000	0.000000000000000E+000	0.000947629	0.000947629	0.0000000E+000	0.000000000000000E+000	1.26516e-05
1	1	0	0	0	0	1	934.56	0.018	0.666263	0.0188972	0.00158005	0.0036373	0	0.00101036	11	6.45457e-07	0.000000000000000E+000	5303.43	0.000000000000000E+000	0.000000000000000E+000	0.00101036	0.00101036	0.0000000E+000	0.000000000000000E+000	1.25905e-05
1	1	0	0	0	0	1	946.56	0.018	0.665152	0.019279	0.00180592	0.00386317	0	0.0010731	11	6.87226e-07	0.000000000000000E+000	5641.9	0.000000000000000E+000	0.000000000000000E+000	0.0010731	0.0010731	0.0000000E+000	0.000000000000000E+000	1.28234e-05
1	1	0	0	0	0	1	958.56	0.018	0.664041	0.0185791	0.00203194	0.00408919	0	0.00113588	11	7.28948e-07	0.000000000000000E+000	5981.69	0.000000000000000E+000	0.000000000000000E+000	0.00113588	0.00113588	0.0000000E+000	0.000000000000000E+000	1.23373e-05
1	1	0	0	0	0	1	970.56	0.018	0.662918	0.0184518	0.00225786	0.00431511	0	0.00119864	11	7.70586e-07	0.000000000000000E+000	6322.56	0.000000000000000E+000	0.000000000000000E+000	0.00119864	0.00119864	0.0000000E+000	0.000000000000000E+000	1.2232e-05
1	1	0	0	0	0	1	982.56	0.018	0.662137	0.0185154	0.00248376	0.004541	0	0.00126139	11	8.12154e-07	0.000000000000000E+000	6661.17	0.000000000000000E+000	0.000000000000000E+000	0.00126139	0.00126139	0.0000000E+000	0.000000000000000E+000	1.22598e-05
1	1	0	0	0	0	1	994.56	0.018	0.660873	0.0188972	0.00270965	0.0047669	0	0.00132414	11	8.53651e-07	0.000000000000000E+000	7005.53	0.000000000000000E+000	0.000000000000000E+000	0.00132414	0.00132414	0.0000000E+000	0.000000000000000E+000	1.24887e-05
1	1	0	0	0	0	1	1006.56	0.018	0.659703	0.0187063	0.00293548	0.00499273	0	0.00138687	11	8.95075e-07	0.000000000000000E+000	7350.04	0.000000000000000E+000	0.000000000000000E+000	0.00138687	0.00138687	0.0000000E+000	0.000000000000000E+000	1.23406e-05
1	1	0	0	0	0	1	1018.56	0.018	0.658472	0.0188336	0.0031615	0.00521875	0	0.00144965	11	9.36458e-07	0.000000000000000E+000	7696.73	0.000000000000000E+000	0.000000000000000E+000	0.00144965	0.00144965	0.0000000E+000	0.000000000000000E+000	1.24014e-05
1	1	0	0	0	0	1	1030.56	0.018	0.657526	0.0185791	0.00338745	0.0054447	0	0.00151242	11	9.77762e-07	0.000000000000000E+000	8041.17	0.000000000000000E+000	0.000000000000000E+000	0.00151242	0.00151242	0.0000000E+000	0.000000000000000E+000	1.22162e-05
1	1	0	1	0	0	2	1041.56	0.032	0.685998	0.0331492	0.000362799	0.0058075	0	0.00161319	11	1.04689e-06	0.000000000000000E+000	8230.89	0.000000000000000E+000	0.000000000000000E+000	0.00161319	0.00161319	0.0000000E+000	0.000000000000000E+000	2.27403e-05
1	1	0	1	0	0	2	1053.56	0.032	0.685023	0.033022	0.000758683	0.00620338	0	0.00172316	11	1.12225e-06	0.000000000000000E+000	8804.14	0.000000000000000E+000	0.000000000000000E+000	0.00172316	0.00172316	0.0000000E+000	0.000000000000000E+000	2.26208e-05
1	1	0	1	0	0	2	1065.56	0.032	0.684533	0.0337855	0.0011544	0.0065991	0	0.00183308	11	1.19751e-06	0.000000000000000E+000	9372.28	0.000000000000000E+000	0.000000000000000E+000	0.00183308	0.00183308	0.0000000E+000	0.000000000000000E+000	2.31273e-05
1	1	0	1	0	0	2	1077.56	0.032	0.683811	0.0328947	0.00155018	0.00699488	0	0.00194302	11	1.27272e-06	0.000000000000000E+000	9944.58	0.000000000000000E+000	0.000000000000000E+000	0.00194302	0.00194302	0.0000000E+000	0.000000000000000E+000	2.24938e-05
1	1	0	1	0	0	2	1089.56	0.032	0.683621	0.0332765	0.00194586	0.00739056	0	0.00205293	11	1.34786e-06	0.000000000000000E+000	10510	0.000000000000000E+000	0.000000000000000E+000	0.00205293	0.00205293	0.0000000E+000	0.000000000000000E+000	2.27485e-05
1	1	0	1	0	0	2	1101.56	0.032	0.682808	0.0330856	0.00234172	0.00778642	0	0.00216289	11	1.42298e-06	0.000000000000000E+000	11085.7	0.000000000000000E+000	0.000000000000000E+000	0.00216289	0.00216289	0.0000000E+000	0.000000000000000E+000	2.25911e-05
1	1	0	1	0	0	2	1113.56	0.032	0.682557	0.0326402	0.00273745	0.00818215	0	0.00227282	11	1.49802e-06	0.000000000000000E+000	11653.3	0.000000000000000E+000	0.000000000000000E+000	0.00227282	0.00227282	0.0000000E+000	0.000000000000000E+000	2.22788e-05
1	1	0	1	0	0	2	1125.56	0.032	0.681784	0.0337219	0.00313339	0.00857809	0	0.0023828	11	1.57305e-06	0.000000000000000E+000	12230.7	0.000000000000000E+000	0.000000000000000E+000	0.0023828	0.0023828	0.0000000E+000	0.000000000000000E+000	2.2991e-05
1	1	0	1	0	0	2	1137.56	0.032	0.68154	0.0331492	0.00352935	0.00897404	0	0.00249279	11	1.64802e-06	0.000000000000000E+000	12799.7	0.000000000000000E+000	0.000000000000000E+000	0.00249279	0.00249279	0.0000000E+000	0.000000000000000E+000	2.25925e-05
1	1	0	1	0	0	2	1149.56	0.032	0.681023	0.0333401	0.00392536	0.00937006	0	0.00260279	11	1.72296e-06	0.000000000000000E+000	13374.4	0.000000000000000E+000	0.000000000000000E+000	0.00260279	0.00260279	0.0000000E+000	0.000000000000000E+000	2.27054e-05
1	1	0	1	0	0	2	1161.56	0.032	0.680595	0.0329584	0.00432123	0.00976593	0	0.00271276	11	1.79782e-06	0.000000000000000E+000	13947.9	0.000000000000000E+000	0.000000000000000E+000	0.00271276	0.00271276	0.0000000E+000	0.000000000000000E+000	2.24313e-05
1	1	0	1	0	0	2	1173.56	0.032	0.68008	0.0341036	0.00471704	0.0101617	0	0.00282271	11	1.87262e-06	0.000000000000000E+000	14523.9	0.000000000000000E+000	0.000000000000000E+000	0.00282271	0.00282271	0.0000000E+000	0.000000000000000E+000	2.31932e-05
1	1	0	1	0	0	2	1185.56	0.032	0.679764	0.033022	0.00511277	0.0105575	0	0.00293263	11	1.94736e-06	0.000000000000000E+000	15096.3	0.000000000000000E+000	0.000000000000000E+000	0.00293263	0.00293263	0.0000000E+000	0.000000000000000E+000	2.24472e-05
1	1	0	1	0	0	2	1197.56	0.032	0.679298	0.0337219	0.00550866	0.0109534	0	0.0030426	11	2.02208e-06	0.000000000000000E+000	15672.9	0.000000000000000E+000	0.000000000000000E+000	0.0030426	0.0030426	0.0000000E+000	0.000000000000000E+000	2.29072e-05
1	1	0	1	0	0	2	1209.56	0.032	0.678901	0.0332765	0.0059046	0.0113493	0	0.00315258	11	2.09677e-06	0.000000000000000E+000	16248.7	0.000000000000000E+000	0.000000000000000E+000	0.00315258	0.00315258	0.0000000E+000	0.000000000000000E+000	2.25914e-05
1	1	0	0	0	0	3	1220.56	0.056	0.700456	0.0571995	0.000574185	0.0119564	0	0.00332123	11	2.21476e-06	0.000000000000000E+000	16605.4	0.000000000000000E+000	0.000000000000000E+000	0.00332123	0.00332123	0.0000000E+000	0.000000000000000E+000	4.00658e-05
1	1	0	0	0	0	3	1232.56	0.056	0.699632	0.0572632	0.00126326	0.0126455	0	0.00351264	11	2.34875e-06	0.000000000000000E+000	17582.6	0.000000000000000E+000	0.000000000000000E+000	0.00351264	0.00351264	0.0000000E+000	0.000000000000000E+000	4.00631e-05
1	1	0	0	0	0	3	1244.56	0.056	0.69952	0.0582812	0.00195257	0.0133348	0	0.00370412	11	2.48269e-06	0.000000000000000E+000	18543.9	0.000000000000000E+000	0.000000000000000E+000	0.00370412	0.00370412	0.0000000E+000	0.000000000000000E+000	4.07688e-05
1	1	0	0	0	0	3	1256.56	0.056	0.698935	0.057454	0.00264187	0.0140241	0	0.00389559	11	2.61655e-06	0.000000000000000E+000	19518.3	0.000000000000000E+000	0.000000000000000E+000	0.00389559	0.00389559	0.0000000E+000	0.000000000000000E+000	4.01566e-05
1	1	0	0	0	0	3	1268.56	0.056	0.698689	0.0570723	0.00333116	0.0147134	0	0.00408706	11	2.75035e-06	0.000000000000000E+000	20484.7	0.000000000000000E+000	0.000000000000000E+000	0.00408706	0.00408706	0.0000000E+000	0.000000000000000E+000	3.98758e-05
1	1	0	0	0	0	3	1280.56	0.056	0.698352	0.0582812	0.00402039	0.0154026	0	0.00427851	11	2.88409e-06	0.000000000000000E+000	21454.3	0.000000000000000E+000	0.000000000000000E+000	0.00427851	0.00427851	0.0000000E+000	0.000000000000000E+000	4.07008e-05
1	1	0	0	0	0	3	1292.56	0.056	0.698015	0.0572632	0.00470983	0.0160921	0	0.00447002	11	3.0178e-06	0.000000000000000E+000	22425.2	0.000000000000000E+000	0.000000000000000E+000	0.00447002	0.00447002	0.0000000E+000	0.000000000000000E+000	3.99705e-05
1	1	0	0	0	0	3	1304.56	0.056	0.69783	0.0572632	0.00539923	0.0167815	0	0.00466152	11	3.15144e-06	0.000000000000000E+000	23391.9	0.000000000000000E+000	0.000000000000000E+000	0.00466152	0.00466152	0.0000000E+000	0.000000000000000E+000	3.99599e-05
1	1	0	0	0	0	3	1316.56	0.056	0.697435	0.0570087	0.00608881	0.0174711	0	0.00485307	11	3.28507e-06	0.000000000000000E+000	24366.5	0.000000000000000E+000	0.000000000000000E+000	0.00485307	0.00485307	0.0000000E+000	0.000000000000000E+000	3.97598e-05
1	1	0	0	0	0	3	1328.56	0.056	0.697404	0.0571359	0.00677821	0.0181605	0	0.00504457	11	3.41863e-06	0.000000000000000E+000	25329.1	0.000000000000000E+000	0.000000000000000E+000	0.00504457	0.00504457	0.0000000E+000	0.000000000000000E+000	3.98468e-05
1	1	0	0	0	0	3	1340.56	0.056	0.696965	0.0577722	0.00746768	0.0188499	0	0.00523609	11	3.55215e-06	0.000000000000000E+000	26306.9	0.000000000000000E+000	0.000000000000000E+000	0.00523609	0.00523609	0.0000000E+000	0.000000000000000E+000	4.02652e-05
1	1	0	0	0	0	3	1352.56	0.056	0.696964	0.0573904	0.00815698	0.0195392	0	0.00542756	11	3.68561e-06	0.000000000000000E+000	27268.9	0.000000000000000E+000	0.000000000000000E+000	0.00542756	0.00542756	0.0000000E+000	0.000000000000000E+000	3.99991e-05
1	1	0	0	0	0	3	1364.56	0.056	0.696664	0.0568178	0.00884637	0.0202286	0	0.00561906	11	3.81904e-06	0.000000000000000E+000	28242.8	0.000000000000000E+000	0.000000000000000E+000	0.00561906	0.00561906	0.0000000E+000	0.000000000000000E+000	3.95829e-05
1	1	0	0	0	0	3	1376.56	0.056	0.696523	0.0571359	0.0095356	0.0209179	0	0.00581051	11	3.9524e-06	0.000000000000000E+000	29210.8	0.000000000000000E+000	0.000000000000000E+000	0.00581051	0.00581051	0.0000000E+000	0.000000000000000E+000	3.97965e-05
1	1	0	0	0	0	3	1388.56	0.056	0.696354	0.0575177	0.0102249	0.0216071	0	0.00600198	11	4.08575e-06	0.000000000000000E+000	30180.6	0.000000000000000E+000	0.000000000000000E+000	0.00600198	0.00600198	0.0000000E+000	0.000000000000000E+000	4.00526e-05
1	1	0	1	0	0	4	1399.56	0.1	0.71711	0.101228	0.000911294	0.0226333	0	0.00628703	11	4.28965e-06	0.000000000000000E+000	30723.2	0.000000000000000E+000	0.000000000000000E+000	0.00628703	0.00628703	0.0000000E+000	0.000000000000000E+000	7.25917e-05
1	1	0	1	0	0	4	1411.56	0.1	0.716618	0.101928	0.00212638	0.0238484	0	0.00662455	11	4.53158e-06	0.000000000000000E+000	32394.2	0.000000000000000E+000	0.000000000000000E+000	0.00662455	0.00662455	0.0000000E+000	0.000000000000000E+000	7.30435e-05
1	1	0	1	0	0	4	1423.56	0.1	0.716246	0.100401	0.00334169	0.0250637	0	0.00696214	11	4.77342e-06	0.000000000000000E+000	34062.2	0.000000000000000E+000	0.000000000000000E+000	0.00696214	0.00696214	0.0000000E+000	0.000000000000000E+000	7.19119e-05
1	1	0	1	0	0	4	1435.56	0.1	0.715911	0.101228	0.00455702	0.026279	0	0.00729973	11	5.01514e-06	0.000000000000000E+000	35730.1	0.000000000000000E+000	0.000000000000000E+000	0.00729973	0.00729973	0.0000000E+000	0.000000000000000E+000	7.24704e-05
1	1	0	1	0	0	4	1447.56	0.1	0.715725	0.101546	0.00577238	0.0274944	0	0.00763733	11	5.2568e-06	0.000000000000000E+000	37392.1	0.000000000000000E+000	0.000000000000000E+000	0.00763733	0.00763733	0.0000000E+000	0.000000000000000E+000	7.26792e-05
1	1	0	1	0	0	4	1459.56	0.1	0.71549	0.101355	0.00698779	0.0287098	0	0.00797495	11	5.49839e-06	0.000000000000000E+000	39057.5	0.000000000000000E+000	0.000000000000000E+000	0.00797495	0.00797495	0.0000000E+000	0.000000000000000E+000	7.25188e-05
1	1	0	1	0	0	4	1471.56	0.1	0.715465	0.10161	0.00820325	0.0299253	0	0.00831257	11	5.73995e-06	0.000000000000000E+000	40712.4	0.000000000000000E+000	0.000000000000000E+000	0.00831257	0.00831257	0.0000000E+000	0.000000000000000E+000	7.26983e-05
1	1	0	1	0	0	4	1483.56	0.1	0.715109	0.101228	0.00941847	0.0311405	0	0.00865013	11	5.9814e-06	0.000000000000000E+000	42386.2	0.000000000000000E+000	0.000000000000000E+000	0.00865013	0.00865013	0.0000000E+000	0.000000000000000E+000	7.23891e-05
1	1	0	1	0	0	4	1495.56	0.1	0.715149	0.101101	0.0106338	0.0323558	0	0.00898772	11	6.22283e-06	0.000000000000000E+000	44038	0.000000000000000E+000	0.000000000000000E+000	0.00898772	0.00898772	0.0000000E+000	0.000000000000000E+000	7.23022e-05
1	1	0	1	0	0	4	1507.56	0.1	0.715057	0.101546	0.0118491	0.0335711	0	0.00932531	11	6.46423e-06	0.000000000000000E+000	45697.9	0.000000000000000E+000	0.000000000000000E+000	0.00932531	0.00932531	0.0000000E+000	0.000000000000000E+000	7.26114e-05
1	1	0	1	0	0	4	1519.56	0.1	0.714871	0.100083	0.0130645	0.0347866	0	0.00966293	11	6.70562e-06	0.000000000000000E+000	47364.3	0.000000000000000E+000	0.000000000000000E+000	0.00966293	0.00966293	0.0000000E+000	0.000000000000000E+000	7.15463e-05
1	1	0	1	0	0	4	1531.56	0.1	0.714942	0.100974	0.01428	0.036002	0	0.0100006	11	6.94699e-06	0.000000000000000E+000	49014.5	0.000000000000000E+000	0.000000000000000E+000	0.0100006	0.0100006	0.0000000E+000	0.000000000000000E+000	7.21903e-05
1	1	0	1	0	0	4	1543.56	0.1	0.714758	0.101546	0.0154954	0.0372174	0	0.0103382	11	7.18833e-06	0.000000000000000E+000	50681.8	0.000000000000000E+000	0.000000000000000E+000	0.0103382	0.0103382	0.0000000E+000	0.000000000000000E+000	7.2581e-05
1	1	0	1	0	0	4	1555.56	0.1	0.714793	0.101292	0.0167107	0.0384327	0	0.0106757	11	7.42963e-06	0.000000000000000E+000	52334.3	0.000000000000000E+000	0.000000000000000E+000	0.0106757	0.0106757	0.0000000E+000	0.000000000000000E+000	7.24026e-05
1	1	0	1	0	0	4	1567.56	0.1	0.714659	0.101483	0.0179261	0.0396481	0	0.0110134	11	7.67093e-06	0.000000000000000E+000	53999.2	0.000000000000000E+000	0.000000000000000E+000	0.0110134	0.0110134	0.0000000E+000	0.000000000000000E+000	7.25255e-05
1	1	0	0	0	0	5	1578.56	0.178	0.736684	0.179105	0.00143281	0.0413848	0	0.0114958	11	8.02467e-06	0.000000000000000E+000	54722.9	0.000000000000000E+000	0.000000000000000E+000	0.0114958	0.0114958	0.0000000E+000	0.000000000000000E+000	0.000131944
1	1	0	0	0	0	5	1590.56	0.178	0.736116	0.178851	0.00358219	0.0435341	0	0.0120928	11	8.4643e-06	0.000000000000000E+000	57608.4	0.000000000000000E+000	0.000000000000000E+000	0.0120928	0.0120928	0.0000000E+000	0.000000000000000E+000	0.000131655
1	1	0	0	0	0	5	1602.56	0.178	0.735826	0.17936	0.00573152	0.0456835	0	0.0126899	11	8.90369e-06	0.000000000000000E+000	60475.7	0.000000000000000E+000	0.000000000000000E+000	0.0126899	0.0126899	0.0000000E+000	0.000000000000000E+000	0.000131978
1	1	0	0	0	0	5	1614.56	0.178	0.735577	0.179105	0.00788071	0.0478327	0	0.0132868	11	9.3429e-06	0.000000000000000E+000	63341.7	0.000000000000000E+000	0.000000000000000E+000	0.0132868	0.0132868	0.0000000E+000	0.000000000000000E+000	0.000131746
1	1	0	0	0	0	5	1626.56	0.178	0.735547	0.179042	0.0100299	0.0499819	0	0.0138838	11	9.78204e-06	0.000000000000000E+000	66190.4	0.000000000000000E+000	0.000000000000000E+000	0.0138838	0.0138838	0.0000000E+000	0.000000000000000E+000	0.000131694
1	1	0	0	0	0	5	1638.56	0.178	0.735402	0.179742	0.0121791	0.052131	0	0.0144808	11	1.02211e-05	0.000000000000000E+000	69049.8	0.000000000000000E+000	0.000000000000000E+000	0.0144808	0.0144808	0.0000000E+000	0.000000000000000E+000	0.000132182
1	1	0	0	0	0	5	1650.56	0.178	0.735445	0.179169	0.0143281	0.05428	0	0.0150778	11	1.06601e-05	0.000000000000000E+000	71892.1	0.000000000000000E+000	0.000000000000000E+000	0.0150778	0.0150778	0.0000000E+000	0.000000000000000E+000	0.000131769
1	1	0	0	0	0	5	1662.56	0.178	0.735431	0.178851	0.0164771	0.056429	0	0.0156747	11	1.10992e-05	0.000000000000000E+000	74739.8	0.000000000000000E+000	0.000000000000000E+000	0.0156747	0.0156747	0.0000000E+000	0.000000000000000E+000	0.000131533
1	1	0	0	0	0	5	1674.56	0.178	0.735347	0.178978	0.0186263	0.0585782	0	0.0162717	11	1.15382e-05	0.000000000000000E+000	77595.1	0.000000000000000E+000	0.000000000000000E+000	0.0162717	0.0162717	0.0000000E+000	0.000000000000000E+000	0.000131611
1	1	0	0	0	0	5	1686.56	0.178	0.735598	0.179742	0.0207754	0.0607274	0	0.0168687	11	1.19773e-05	0.000000000000000E+000	80415.2	0.000000000000000E+000	0.000000000000000E+000	0.0168687	0.0168687	0.0000000E+000	0.000000000000000E+000	0.000132218
1	1	0	0	0	0	5	1698.56	0.178	0.735489	0.178724	0.0229248	0.0628768	0	0.0174658	11	1.24164e-05	0.000000000000000E+000	83273.4	0.000000000000000E+000	0.000000000000000E+000	0.0174658	0.0174658	0.0000000E+000	0.000000000000000E+000	0.000131449
1	1	0	0	0	0	5	1710.56	0.178	0.735555	0.179742	0.0250742	0.0650262	0	0.0180628	11	1.28556e-05	0.000000000000000E+000	86112.5	0.000000000000000E+000	0.000000000000000E+000	0.0180628	0.0180628	0.0000000E+000	0.000000000000000E+000	0.00013221
1	1	0	0	0	0	5	1722.56	0.178	0.735751	0.179996	0.0272237	0.0671756	0	0.0186599	11	1.32948e-05	0.000000000000000E+000	88935.8	0.000000000000000E+000	0.000000000000000E+000	0.0186599	0.0186599	0.0000000E+000	0.000000000000000E+000	0.000132432
1	1	0	0	0	0	5	1734.56	0.178	0.735668	0.179169	0.0293731	0.069325	0	0.0192569	11	1.37341e-05	0.000000000000000E+000	91791.6	0.000000000000000E+000	0.000000000000000E+000	0.0192569	0.0192569	0.0000000E+000	0.000000000000000E+000	0.000131809
1	1	0	0	0	0	5	1746.56	0.178	0.735818	0.178978	0.0315226	0.0714745	0	0.019854	11	1.41734e-05	0.000000000000000E+000	94618.9	0.000000000000000E+000	0.000000000000000E+000	0.019854	0.019854	0.0000000E+000	0.000000000000000E+000	0.000131695
1	1	0	1	0	0	6	1757.56	0.316	0.760388	0.31749	0.0022206	0.0744116	0	0.0206699	11	1.47891e-05	0.000000000000000E+000	95403.8	0.000000000000000E+000	0.000000000000000E+000	0.0206699	0.0206699	0.0000000E+000	0.000000000000000E+000	0.000241416
1	1	0	1	0	0	6	1769.56	0.316	0.759797	0.316536	0.00602739	0.0782184	0	0.0217273	11	1.55928e-05	0.000000000000000E+000	100361	0.000000000000000E+000	0.000000000000000E+000	0.0217273	0.0217273	0.0000000E+000	0.000000000000000E+000	0.000240503
1	1	0	1	0	0	6	1781.56	0.316	0.759599	0.316917	0.0098342	0.0820252	0	0.0227848	11	1.63961e-05	0.000000000000000E+000	105272	0.000000000000000E+000	0.000000000000000E+000	0.0227848	0.0227848	0.0000000E+000	0.000000000000000E+000	0.00024073
1	1	0	1	0	0	6	1793.56	0.316	0.759709	0.317872	0.013641	0.085832	0	0.0238422	11	1.71994e-05	0.000000000000000E+000	110142	0.000000000000000E+000	0.000000000000000E+000	0.0238422	0.0238422	0.0000000E+000	0.000000000000000E+000	0.00024149
1	1	0	1	0	0	6	1805.56	0.316	0.759605	0.31749	0.0174478	0.0896388	0	0.0248997	11	1.80027e-05	0.000000000000000E+000	115042	0.000000000000000E+000	0.000000000000000E+000	0.0248997	0.0248997	0.0000000E+000	0.000000000000000E+000	0.000241167
1	1	0	1	0	0	6	1817.56	0.316	0.759768	0.31749	0.0212548	0.0934457	0	0.0259572	11	1.88061e-05	0.000000000000000E+000	119903	0.000000000000000E+000	0.000000000000000E+000	0.0259572	0.0259572	0.0000000E+000	0.000000000000000E+000	0.000241219
1	1	0	1	0	0	6	1829.56	0.316	0.759933	0.31679	0.0250617	0.0972527	0	0.0270146	11	1.96096e-05	0.000000000000000E+000	124762	0.000000000000000E+000	0.000000000000000E+000	0.0270146	0.0270146	0.0000000E+000	0.000000000000000E+000	0.000240739
1	1	0	1	0	0	6	1841.56	0.316	0.759965	0.316981	0.0288686	0.10106	0	0.0280721	11	2.04132e-05	0.000000000000000E+000	129640	0.000000000000000E+000	0.000000000000000E+000	0.0280721	0.0280721	0.0000000E+000	0.000000000000000E+000	0.000240895
1	1	0	1	0	0	6	1853.56	0.316	0.760224	0.316727	0.0326753	0.104866	0	0.0291295	11	2.12169e-05	0.000000000000000E+000	134479	0.000000000000000E+000	0.000000000000000E+000	0.0291295	0.0291295	0.0000000E+000	0.000000000000000E+000	0.000240783
1	1	0	1	0	0	6	1865.56	0.316	0.760274	0.317236	0.0364822	0.108673	0	0.030187	11	2.20209e-05	0.000000000000000E+000	139351	0.000000000000000E+000	0.000000000000000E+000	0.030187	0.030187	0.0000000E+000	0.000000000000000E+000	0.000241186
1	1	0	1	0	0	6	1877.56	0.316	0.760565	0.317108	0.0402891	0.11248	0	0.0312445	11	2.2825e-05	0.000000000000000E+000	144179	0.000000000000000E+000	0.000000000000000E+000	0.0312445	0.0312445	0.0000000E+000	0.000000000000000E+000	0.000241182
1	1	0	1	0	0	6	1889.56	0.316	0.760817	0.317554	0.0440958	0.116287	0	0.0323019	11	2.36294e-05	0.000000000000000E+000	149011	0.000000000000000E+000	0.000000000000000E+000	0.0323019	0.0323019	0.0000000E+000	0.000000000000000E+000	0.0002416
1	1	0	1	0	0	6	1901.56	0.316	0.760914	0.317299	0.0479025	0.120093	0	0.0333593	11	2.4434e-05	0.000000000000000E+000	153869	0.000000000000000E+000	0.000000000000000E+000	0.0333593	0.0333593	0.0000000E+000	0.000000000000000E+000	0.000241437
1	1	0	1	0	0	6	1913.56	0.316	0.761333	0.317172	0.0517093	0.1239	0	0.0344168	11	2.52388e-05	0.000000000000000E+000	158662	0.000000000000000E+000	0.000000000000000E+000	0.0344168	0.0344168	0.0000000E+000	0.000000000000000E+000	0.000241474
1	1	0	1	0	0	6	1925.56	0.316	0.761482	0.317363	0.055516	0.127707	0	0.0354742	11	2.60439e-05	0.000000000000000E+000	163505	0.000000000000000E+000	0.000000000000000E+000	0.0354742	0.0354742	0.0000000E+000	0.000000000000000E+000	0.000241666
1	1	0	0	0	0	7	1936.56	0.562	0.789928	0.56321	0.00338041	0.132674	0	0.0368538	11	2.71217e-05	0.000000000000000E+000	163895	0.000000000000000E+000	0.000000000000000E+000	0.0368538	0.0368538	0.0000000E+000	0.000000000000000E+000	0.000444896
1	1	0	0	0	0	7	1948.56	0.562	0.789498	0.56321	0.0101411	0.139434	0	0.0387318	11	2.86046e-05	0.000000000000000E+000	172338	0.000000000000000E+000	0.000000000000000E+000	0.0387318	0.0387318	0.0000000E+000	0.000000000000000E+000	0.000444654
1	1	0	0	0	0	7	1960.56	0.562	0.789475	0.56302	0.0169019	0.146195	0	0.0406098	11	3.00872e-05	0.000000000000000E+000	180700	0.000000000000000E+000	0.000000000000000E+000	0.0406098	0.0406098	0.0000000E+000	0.000000000000000E+000	0.00044449
1	1	0	0	0	0	7	1972.56	0.562	0.789613	0.563783	0.0236626	0.152956	0	0.0424878	11	3.157e-05	0.000000000000000E+000	189024	0.000000000000000E+000	0.000000000000000E+000	0.0424878	0.0424878	0.0000000E+000	0.000000000000000E+000	0.000445171
1	1	0	0	0	0	7	1984.56	0.562	0.789976	0.563529	0.0304235	0.159717	0	0.0443658	11	3.30532e-05	0.000000000000000E+000	197290	0.000000000000000E+000	0.000000000000000E+000	0.0443658	0.0443658	0.0000000E+000	0.000000000000000E+000	0.000445174
1	1	0	0	0	0	7	1996.56	0.562	0.790151	0.563592	0.0371843	0.166478	0	0.0462438	11	3.4537e-05	0.000000000000000E+000	205597	0.000000000000000E+000	0.000000000000000E+000	0.0462438	0.0462438	0.0000000E+000	0.000000000000000E+000	0.000445323
1	1	0	0	0	0	7	2008.56	0.562	0.790619	0.562765	0.0439451	0.173238	0	0.0481218	11	3.60215e-05	0.000000000000000E+000	213823	0.000000000000000E+000	0.000000000000000E+000	0.0481218	0.0481218	0.0000000E+000	0.000000000000000E+000	0.000444933
1	1	0	0	0	0	7	2020.56	0.562	0.790987	0.563656	0.0507057	0.179999	0	0.0499997	11	3.75066e-05	0.000000000000000E+000	222067	0.000000000000000E+000	0.000000000000000E+000	0.0499997	0.0499997	0.0000000E+000	0.000000000000000E+000	0.000445844
1	1	0	0	0	0	7	2032.56	0.562	0.791398	0.563592	0.0574662	0.18676	0	0.0518777	11	3.89924e-05	0.000000000000000E+000	230290	0.000000000000000E+000	0.000000000000000E+000	0.0518777	0.0518777	0.0000000E+000	0.000000000000000E+000	0.000446026
1	1	0	0	0	0	7	2044.56	0.562	0.791819	0.56302	0.0642268	0.19352	0	0.0537556	11	4.0479e-05	0.000000000000000E+000	238503	0.000000000000000E+000	0.000000000000000E+000	0.0537556	0.0537556	0.0000000E+000	0.000000000000000E+000	0.00044581
1	1	0	0	0	0	7	2056.56	0.562	0.792217	0.564228	0.0709873	0.200281	0	0.0556335	11	4.19664e-05	0.000000000000000E+000	246714	0.000000000000000E+000	0.000000000000000E+000	0.0556335	0.0556335	0.0000000E+000	0.000000000000000E+000	0.000446991
1	1	0	0	0	0	7	2068.56	0.562	0.792791	0.562956	0.0777481	0.207041	0	0.0575115	11	4.34547e-05	0.000000000000000E+000	254862	0.000000000000000E+000	0.000000000000000E+000	0.0575115	0.0575115	0.0000000E+000	0.000000000000000E+000	0.000446306
1	1	0	0	0	0	7	2080.56	0.562	0.793056	0.564228	0.0845089	0.213802	0	0.0593895	11	4.49439e-05	0.000000000000000E+000	263099	0.000000000000000E+000	0.000000000000000E+000	0.0593895	0.0593895	0.0000000E+000	0.000000000000000E+000	0.000447465
1	1	0	0	0	0	7	2092.56	0.562	0.79368	0.563465	0.0912697	0.220563	0	0.0612675	11	4.64339e-05	0.000000000000000E+000	271210	0.000000000000000E+000	0.000000000000000E+000	0.0612675	0.0612675	0.0000000E+000	0.000000000000000E+000	0.000447211
1	1	0	0	0	0	7	2104.56	0.562	0.794098	0.563401	0.0980304	0.227324	0	0.0631455	11	4.79248e-05	0.000000000000000E+000	279380	0.000000000000000E+000	0.000000000000000E+000	0.0631455	0.0631455	0.0000000E+000	0.000000000000000E+000	0.000447396
1	1	0	1	0	0	8	2115.56	1	0.827561	1.00152	0.00500593	0.23571	0	0.0654751	11	4.98224e-05	0.000000000000000E+000	278243	0.000000000000000E+000	0.000000000000000E+000	0.0654751	0.0654751	0.0000000E+000	0.000000000000000E+000	0.000828823
1	1	0	1	0	0	8	2127.56	1	0.827254	1.00089	0.0170204	0.247725	0	0.0688124	11	5.25832e-05	0.000000000000000E+000	292532	0.000000000000000E+000	0.000000000000000E+000	0.0688124	0.0688124	0.0000000E+000	0.000000000000000E+000	0.000827988
1	1	0	1	0	0	8	2139.56	1	0.827546	1.00171	0.029035	0.259739	0	0.0721498	11	5.53444e-05	0.000000000000000E+000	306614	0.000000000000000E+000	0.000000000000000E+000	0.0721498	0.0721498	0.0000000E+000	0.000000000000000E+000	0.000828965
1	1	0	1	0	0	8	2151.56	1	0.828047	1.00152	0.0410495	0.271754	0	0.0754872	11	5.81071e-05	0.000000000000000E+000	320607	0.000000000000000E+000	0.000000000000000E+000	0.0754872	0.0754872	0.0000000E+000	0.000000000000000E+000	0.000829309
1	1	0	1	0	0	8	2163.56	1	0.828781	1.00019	0.0530639	0.283768	0	0.0788245	11	6.08718e-05	0.000000000000000E+000	334492	0.000000000000000E+000	0.000000000000000E+000	0.0788245	0.0788245	0.0000000E+000	0.000000000000000E+000	0.000828937
1	1	0	1	0	0	8	2175.56	1	0.829371	1.00108	0.0650782	0.295782	0	0.0821618	11	6.36388e-05	0.000000000000000E+000	348411	0.000000000000000E+000	0.000000000000000E+000	0.0821618	0.0821618	0.0000000E+000	0.000000000000000E+000	0.000830266
1	1	0	1	0	0	8	2187.56	1	0.830204	1.00108	0.0770927	0.307797	0	0.0854992	11	6.64083e-05	0.000000000000000E+000	362208	0.000000000000000E+000	0.000000000000000E+000	0.0854992	0.0854992	0.0000000E+000	0.000000000000000E+000	0.0008311
1	1	0	1	0	0	8	2199.56	1	0.830927	1.0014	0.0891072	0.319811	0	0.0888365	11	6.91802e-05	0.000000000000000E+000	376026	0.000000000000000E+000	0.000000000000000E+000	0.0888365	0.0888365	0.0000000E+000	0.000000000000000E+000	0.000832088
1	1	0	1	0	0	8	2211.56	1	0.831717	1.00152	0.101122	0.331826	0	0.0921739	11	7.19547e-05	0.000000000000000E+000	389791	0.000000000000000E+000	0.000000000000000E+000	0.0921739	0.0921739	0.0000000E+000	0.000000000000000E+000	0.000832984
1	1	0	1	0	0	8	2223.56	1	0.832564	1.00095	0.113136	0.34384	0	0.0955112	11	7.47319e-05	0.000000000000000E+000	403502	0.000000000000000E+000	0.000000000000000E+000	0.0955112	0.0955112	0.0000000E+000	0.000000000000000E+000	0.000833357
1	1	0	1	0	0	8	2235.56	1	0.833285	1.00095	0.12515	0.355855	0	0.0988485	11	7.75117e-05	0.000000000000000E+000	417249	0.000000000000000E+000	0.000000000000000E+000	0.0988485	0.0988485	0.0000000E+000	0.000000000000000E+000	0.000834078
1	1	0	1	0	0	8	2247.56	1	0.834185	1.00038	0.137165	0.367869	0	0.102186	11	8.02943e-05	0.000000000000000E+000	430881	0.000000000000000E+000	0.000000000000000E+000	0.102186	0.102186	0.0000000E+000	0.000000000000000E+000	0.000834501
1	1	0	1	0	0	8	2259.56	1	0.835025	1.00076	0.149179	0.379883	0	0.105523	11	8.30797e-05	0.000000000000000E+000	444516	0.000000000000000E+000	0.000000000000000E+000	0.105523	0.105523	0.0000000E+000	0.000000000000000E+000	0.00083566
1	1	0	1	0	0	8	2271.56	1	0.835753	1.00197	0.161193	0.391898	0	0.10886	11	8.58677e-05	0.000000000000000E+000	458184	0.000000000000000E+000	0.000000000000000E+000	0.10886	0.10886	0.0000000E+000	0.000000000000000E+000	0.000837399
1	1	0	1	0	0	8	2283.56	1	0.836701	1.00146	0.173208	0.403912	0	0.112198	11	8.86585e-05	0.000000000000000E+000	471708	0.000000000000000E+000	0.000000000000000E+000	0.112198	0.112198	0.0000000E+000	0.000000000000000E+000	0.000837923
1	1	0	0	0	0	9	2294.56	1.778	0.876449	1.77813	0.00711461	0.418035	0	0.116121	11	9.20211e-05	0.000000000000000E+000	466544	0.000000000000000E+000	0.000000000000000E+000	0.116121	0.116121	0.0000000E+000	0.000000000000000E+000	0.00155844
1	1	0	0	0	0	9	2306.56	1.778	0.876199	1.77902	0.0284589	0.439379	0	0.12205	11	9.72156e-05	0.000000000000000E+000	490502	0.000000000000000E+000	0.000000000000000E+000	0.12205	0.12205	0.0000000E+000	0.000000000000000E+000	0.00155878
1	1	0	0	0	0	9	2318.56	1.778	0.877227	1.77877	0.0498034	0.460724	0	0.127979	11	0.000102414	0.000000000000000E+000	513740	0.000000000000000E+000	0.000000000000000E+000	0.127979	0.127979	0.0000000E+000	0.000000000000000E+000	0.00156038
1	1	0	0	0	0	9	2330.56	1.778	0.878372	1.77851	0.0711476	0.482068	0	0.133908	11	0.000107618	0.000000000000000E+000	536855	0.000000000000000E+000	0.000000000000000E+000	0.133908	0.133908	0.0000000E+000	0.000000000000000E+000	0.0015622
1	1	0	0	0	0	9	2342.56	1.778	0.879441	1.77896	0.0924919	0.503412	0	0.139837	11	0.000112829	0.000000000000000E+000	559959	0.000000000000000E+000	0.000000000000000E+000	0.139837	0.139837	0.0000000E+000	0.000000000000000E+000	0.00156449
1	1	0	0	0	0	9	2354.56	1.778	0.880857	1.77832	0.113836	0.524756	0	0.145766	11	0.000118048	0.000000000000000E+000	582782	0.000000000000000E+000	0.000000000000000E+000	0.145766	0.145766	0.0000000E+000	0.000000000000000E+000	0.00156645
1	1	0	0	0	0	9	2366.56	1.778	0.882142	1.77934	0.13518	0.546101	0	0.151695	11	0.000123275	0.000000000000000E+000	605623	0.000000000000000E+000	0.000000000000000E+000	0.151695	0.151695	0.0000000E+000	0.000000000000000E+000	0.00156963
1	1	0	0	0	0	9	2378.56	1.778	0.883585	1.77947	0.156524	0.567445	0	0.157624	11	0.00012851	0.000000000000000E+000	628288	0.000000000000000E+000	0.000000000000000E+000	0.157624	0.157624	0.0000000E+000	0.000000000000000E+000	0.00157231
1	1	0	0	0	0	9	2390.56	1.778	0.885199	1.77845	0.177869	0.588789	0	0.163553	11	0.000133754	0.000000000000000E+000	650758	0.000000000000000E+000	0.000000000000000E+000	0.163553	0.163553	0.0000000E+000	0.000000000000000E+000	0.00157428
1	1	0	0	0	0	9	2402.56	1.778	0.886382	1.77851	0.199213	0.610133	0	0.169482	11	0.000139006	0.000000000000000E+000	673468	0.000000000000000E+000	0.000000000000000E+000	0.169482	0.169482	0.0000000E+000	0.000000000000000E+000	0.00157644
1	1	0	0	0	0	9	2414.56	1.778	0.887895	1.77794	0.220557	0.631478	0	0.175411	11	0.000144266	0.000000000000000E+000	695866	0.000000000000000E+000	0.000000000000000E+000	0.175411	0.175411	0.0000000E+000	0.000000000000000E+000	0.00157863
1	1	0	0	0	0	9	2426.56	1.778	0.889249	1.77871	0.241902	0.652822	0	0.181339	11	0.000149535	0.000000000000000E+000	718314	0.000000000000000E+000	0.000000000000000E+000	0.181339	0.181339	0.0000000E+000	0.000000000000000E+000	0.00158171
1	1	0	0	0	0	9	2438.56	1.778	0.890697	1.77877	0.263246	0.674167	0	0.187268	11	0.000154813	0.000000000000000E+000	740620	0.000000000000000E+000	0.000000000000000E+000	0.187268	0.187268	0.0000000E+000	0.000000000000000E+000	0.00158434
1	1	0	0	0	0	9	2450.56	1.778	0.892226	1.77902	0.284591	0.695511	0	0.193197	11	0.000160098	0.000000000000000E+000	762788	0.000000000000000E+000	0.000000000000000E+000	0.193197	0.193197	0.0000000E+000	0.000000000000000E+000	0.00158729
1	1	0	0	0	0	9	2462.56	1.778	0.893424	1.77877	0.305935	0.716855	0	0.199127	11	0.000165392	0.000000000000000E+000	785165	0.000000000000000E+000	0.000000000000000E+000	0.199127	0.199127	0.0000000E+000	0.000000000000000E+000	0.00158919
1	1	0	1	0	0	10	2473.56	3.162	0.941597	3.16287	0.00948883	0.740574	0	0.205715	11	0.00017141	0.000000000000000E+000	770491	0.000000000000000E+000	0.000000000000000E+000	0.205715	0.205715	0.0000000E+000	0.000000000000000E+000	0.00297815
1	1	0	1	0	0	10	2485.56	3.162	0.942122	3.16262	0.0474454	0.778531	0	0.216259	11	0.000181336	0.000000000000000E+000	809539	0.000000000000000E+000	0.000000000000000E+000	0.216259	0.216259	0.0000000E+000	0.000000000000000E+000	0.00297957
1	1	0	1	0	0	10	2497.56	3.162	0.943401	3.16198	0.0854019	0.816487	0	0.226802	11	0.000191277	0.000000000000000E+000	847879	0.000000000000000E+000	0.000000000000000E+000	0.226802	0.226802	0.0000000E+000	0.000000000000000E+000	0.00298301
1	1	0	1	0	0	10	2509.56	3.162	0.945499	3.16376	0.123359	0.854444	0	0.237346	11	0.000201236	0.000000000000000E+000	885366	0.000000000000000E+000	0.000000000000000E+000	0.237346	0.237346	0.0000000E+000	0.000000000000000E+000	0.00299133
1	1	0	1	0	0	10	2521.56	3.162	0.947184	3.16357	0.161315	0.892401	0	0.247889	11	0.000211215	0.000000000000000E+000	923084	0.000000000000000E+000	0.000000000000000E+000	0.247889	0.247889	0.0000000E+000	0.000000000000000E+000	0.00299648
1	1	0	1	0	0	10	2533.56	3.162	0.948877	3.16325	0.199272	0.930357	0	0.258433	11	0.000221212	0.000000000000000E+000	960664	0.000000000000000E+000	0.000000000000000E+000	0.258433	0.258433	0.0000000E+000	0.000000000000000E+000	0.00300154
1	1	0	1	0	0	10	2545.56	3.162	0.950294	3.16363	0.237229	0.968314	0	0.268976	11	0.000231224	0.000000000000000E+000	998396	0.000000000000000E+000	0.000000000000000E+000	0.268976	0.268976	0.0000000E+000	0.000000000000000E+000	0.00300638
1	1	0	1	0	0	10	2557.56	3.162	0.951761	3.16325	0.275185	1.00627	0	0.27952	11	0.000241252	0.000000000000000E+000	1.03597e+06	0.000000000000000E+000	0.000000000000000E+000	0.27952	0.27952	0.0000000E+000	0.000000000000000E+000	0.00301066
1	1	0	1	0	0	10	2569.56	3.162	0.952937	3.16306	0.313142	1.04423	0	0.290063	11	0.000251293	0.000000000000000E+000	1.07374e+06	0.000000000000000E+000	0.000000000000000E+000	0.290063	0.290063	0.0000000E+000	0.000000000000000E+000	0.0030142
1	1	0	1	0	0	10	2581.56	3.162	0.954009	3.16293	0.351098	1.08218	0	0.300607	11	0.000261346	0.000000000000000E+000	1.11155e+06	0.000000000000000E+000	0.000000000000000E+000	0.300607	0.300607	0.0000000E+000	0.000000000000000E+000	0.00301747
1	1	0	1	0	0	10	2593.56	3.162	0.954921	3.16262	0.389055	1.12014	0	0.31115	11	0.000271411	0.000000000000000E+000	1.14945e+06	0.000000000000000E+000	0.000000000000000E+000	0.31115	0.31115	0.0000000E+000	0.000000000000000E+000	0.00302005
1	1	0	1	0	0	10	2605.56	3.162	0.955813	3.16325	0.427012	1.1581	0	0.321694	11	0.000281485	0.000000000000000E+000	1.18732e+06	0.000000000000000E+000	0.000000000000000E+000	0.321694	0.321694	0.0000000E+000	0.000000000000000E+000	0.00302348
1	1	0	1	0	0	10	2617.56	3.162	0.956726	3.16325	0.464969	1.19605	0	0.332237	11	0.000291568	0.000000000000000E+000	1.22509e+06	0.000000000000000E+000	0.000000000000000E+000	0.332237	0.332237	0.0000000E+000	0.000000000000000E+000	0.00302637
1	1	0	1	0	0	10	2629.56	3.162	0.957587	3.16319	0.502925	1.23401	0	0.342781	11	0.000301659	0.000000000000000E+000	1.26285e+06	0.000000000000000E+000	0.000000000000000E+000	0.342781	0.342781	0.0000000E+000	0.000000000000000E+000	0.00302903
1	1	0	1	0	0	10	2641.56	3.162	0.958292	3.16338	0.540882	1.27197	0	0.353324	11	0.00031176	0.000000000000000E+000	1.30076e+06	0.000000000000000E+000	0.000000000000000E+000	0.353324	0.353324	0.0000000E+000	0.000000000000000E+000	0.00303144
1	1	0	0	0	0	11	2652.56	5.623	1.01177	5.62389	0.0112475	1.31168	0	0.364356	11	0.000322504	0.000000000000000E+000	1.27181e+06	0.000000000000000E+000	0.000000000000000E+000	0.364356	0.364356	0.0000000E+000	0.000000000000000E+000	0.00569011
1	1	0	0	0	0	11	2664.56	5.623	1.0062	5.62351	0.0787352	1.37917	0	0.383103	11	0.000341402	0.000000000000000E+000	1.34452e+06	0.000000000000000E+000	0.000000000000000E+000	0.383103	0.383103	0.0000000E+000	0.000000000000000E+000	0.00565836
1	1	0	0	0	0	11	2676.56	5.623	1.00536	5.62516	0.146223	1.44666	0	0.40185	11	0.000360253	0.000000000000000E+000	1.41147e+06	0.000000000000000E+000	0.000000000000000E+000	0.40185	0.40185	0.0000000E+000	0.000000000000000E+000	0.00565529
1	1	0	0	0	0	11	2688.56	5.623	1.00459	5.62427	0.213711	1.51415	0	0.420596	11	0.000379091	0.000000000000000E+000	1.47842e+06	0.000000000000000E+000	0.000000000000000E+000	0.420596	0.420596	0.0000000E+000	0.000000000000000E+000	0.00565008
1	1	0	0	0	0	11	2700.56	5.623	1.00442	5.62453	0.281198	1.58163	0	0.439343	11	0.000397924	0.000000000000000E+000	1.54457e+06	0.000000000000000E+000	0.000000000000000E+000	0.439343	0.439343	0.0000000E+000	0.000000000000000E+000	0.00564939
1	1	0	0	0	0	11	2712.56	5.623	1.00479	5.62383	0.348686	1.64912	0	0.458089	11	0.000416758	0.000000000000000E+000	1.60989e+06	0.000000000000000E+000	0.000000000000000E+000	0.458089	0.458089	0.0000000E+000	0.000000000000000E+000	0.00565078
1	1	0	0	0	0	11	2724.56	5.623	1.00514	5.62396	0.416173	1.71661	0	0.476836	11	0.000435598	0.000000000000000E+000	1.6752e+06	0.000000000000000E+000	0.000000000000000E+000	0.476836	0.476836	0.0000000E+000	0.000000000000000E+000	0.00565287
1	1	0	0	0	0	11	2736.56	5.623	1.00498	5.62415	0.483661	1.7841	0	0.495582	11	0.000454443	0.000000000000000E+000	1.74134e+06	0.000000000000000E+000	0.000000000000000E+000	0.495582	0.495582	0.0000000E+000	0.000000000000000E+000	0.00565214
1	1	0	0	0	0	11	2748.56	5.623	1.0059	5.62434	0.551149	1.85158	0	0.514329	11	0.000473292	0.000000000000000E+000	1.80559e+06	0.000000000000000E+000	0.000000000000000E+000	0.514329	0.514329	0.0000000E+000	0.000000000000000E+000	0.00565751
1	1	0	0	0	0	11	2760.56	5.623	1.00651	5.6237	0.618636	1.91907	0	0.533076	11	0.000492155	0.000000000000000E+000	1.87029e+06	0.000000000000000E+000	0.000000000000000E+000	0.533076	0.533076	0.0000000E+000	0.000000000000000E+000	0.0056603
1	1	0	0	0	0	11	2772.56	5.623	1.00679	5.62396	0.686124	1.98656	0	0.551822	11	0.000511026	0.000000000000000E+000	1.93553e+06	0.000000000000000E+000	0.000000000000000E+000	0.551822	0.551822	0.0000000E+000	0.000000000000000E+000	0.00566213
1	1	0	0	0	0	11	2784.56	5.623	1.00777	5.62345	0.753612	2.05405	0	0.570569	11	0.000529912	0.000000000000000E+000	1.99938e+06	0.000000000000000E+000	0.000000000000000E+000	0.570569	0.570569	0.0000000E+000	0.000000000000000E+000	0.00566712
1	1	0	0	0	0	11	2796.56	5.623	1.00832	5.6237	0.821099	2.12153	0	0.589315	11	0.000548808	0.000000000000000E+000	2.06396e+06	0.000000000000000E+000	0.000000000000000E+000	0.589315	0.589315	0.0000000E+000	0.000000000000000E+000	0.0056705
1	1	0	0	0	0	11	2808.56	5.623	1.00932	5.62415	0.888587	2.18902	0	0.608062	11	0.00056772	0.000000000000000E+000	2.12755e+06	0.000000000000000E+000	0.000000000000000E+000	0.608062	0.608062	0.0000000E+000	0.000000000000000E+000	0.00567654
1	1	0	0	0	0	11	2820.56	5.623	1.01027	5.62478	0.956075	2.25651	0	0.626809	11	0.00058665	0.000000000000000E+000	2.19112e+06	0.000000000000000E+000	0.000000000000000E+000	0.626809	0.626809	0.0000000E+000	0.000000000000000E+000	0.00568253
1	1	0	1	1	0	12	2831.56	10	1.07763	10.0012	0.0100005	2.32275	0	0.645209	11	0.000605429	0.000000000000000E+000	2.11697e+06	0.000000000000000E+000	0.000000000000000E+000	0.645209	0.645209	0.0000000E+000	0.000000000000000E+000	0.0107777
1	1	0	1	0	0	12	2843.56	10	1.07042	10.0009	0.130017	2.44277	0	0.678547	11	0.000641169	0.000000000000000E+000	2.24108e+06	0.000000000000000E+000	0.000000000000000E+000	0.678547	0.678547	0.0000000E+000	0.000000000000000E+000	0.0107052
1	1	0	1	0	0	12	2855.56	10	1.0716	10.0017	0.250034	2.56279	0	0.711885	11	0.00067688	0.000000000000000E+000	2.34865e+06	0.000000000000000E+000	0.000000000000000E+000	0.711885	0.711885	0.0000000E+000	0.000000000000000E+000	0.0107178
1	1	0	1	0	0	12	2867.56	10	1.07335	10.0015	0.370051	2.6828	0	0.745223	11	0.000712633	0.000000000000000E+000	2.45469e+06	0.000000000000000E+000	0.000000000000000E+000	0.745223	0.745223	0.0000000E+000	0.000000000000000E+000	0.0107351
1	1	0	1	0	0	12	2879.56	10	1.07531	10.0022	0.490067	2.80282	0	0.778561	11	0.000748451	0.000000000000000E+000	2.55992e+06	0.000000000000000E+000	0.000000000000000E+000	0.778561	0.778561	0.0000000E+000	0.000000000000000E+000	0.0107555
1	1	0	1	0	0	12	2891.56	10	1.0774	10.0017	0.610084	2.92284	0	0.811899	11	0.000784332	0.000000000000000E+000	2.66446e+06	0.000000000000000E+000	0.000000000000000E+000	0.811899	0.811899	0.0000000E+000	0.000000000000000E+000	0.0107758
1	1	0	1	0	0	12	2903.56	10	1.0792	10.0013	0.730101	3.04285	0	0.845237	11	0.00082028	0.000000000000000E+000	2.76931e+06	0.000000000000000E+000	0.000000000000000E+000	0.845237	0.845237	0.0000000E+000	0.000000000000000E+000	0.0107934
1	1	0	1	0	0	12	2915.56	10	1.08231	10.0014	0.850117	3.16287	0	0.878575	11	0.000856318	0.000000000000000E+000	2.87042e+06	0.000000000000000E+000	0.000000000000000E+000	0.878575	0.878575	0.0000000E+000	0.000000000000000E+000	0.0108246
1	1	0	1	0	0	12	2927.56	10	1.08491	10.0007	0.970134	3.28289	0	0.911913	11	0.000892455	0.000000000000000E+000	2.97232e+06	0.000000000000000E+000	0.000000000000000E+000	0.911913	0.911913	0.0000000E+000	0.000000000000000E+000	0.0108498
1	1	0	1	0	0	12	2939.56	10	1.08826	10.0021	1.09015	3.4029	0	0.945251	11	0.000928686	0.000000000000000E+000	3.07167e+06	0.000000000000000E+000	0.000000000000000E+000	0.945251	0.945251	0.0000000E+000	0.000000000000000E+000	0.0108848
1	1	0	1	0	0	12	2951.56	10	1.0917	10.0019	1.21017	3.52292	0	0.978589	11	0.00096503	0.000000000000000E+000	3.17017e+06	0.000000000000000E+000	0.000000000000000E+000	0.978589	0.978589	0.0000000E+000	0.000000000000000E+000	0.0109191
1	1	0	1	0	0	12	2963.56	10	1.09496	10.0005	1.33018	3.64294	0	1.01193	11	0.00100148	0.000000000000000E+000	3.26856e+06	0.000000000000000E+000	0.000000000000000E+000	1.01193	1.01193	0.0000000E+000	0.000000000000000E+000	0.0109502
1	1	0	1	0	0	12	2975.56	10	1.0984	10.0014	1.4502	3.76295	0	1.04526	11	0.00103804	0.000000000000000E+000	3.36586e+06	0.000000000000000E+000	0.000000000000000E+000	1.04526	1.04526	0.0000000E+000	0.000000000000000E+000	0.0109856
1	1	0	1	0	0	12	2987.56	10	1.10178	10.0019	1.57022	3.88297	0	1.0786	11	0.00107473	0.000000000000000E+000	3.46273e+06	0.000000000000000E+000	0.000000000000000E+000	1.0786	1.0786	0.0000000E+000	0.000000000000000E+000	0.01102
1	1	0	1	0	0	12	2999.56	10	1.10622	10.0014	1.69023	4.00298	0	1.11194	11	0.00111155	0.000000000000000E+000	3.55571e+06	0.000000000000000E+000	0.000000000000000E+000	1.11194	1.11194	0.0000000E+000	0.000000000000000E+000	0.0110637
1	1	0	1	0	0	12	3010.56	10	1.11148	10.0019	1.80025	4.113	0	1.1425	11	0.00114542	0.000000000000000E+000	3.63642e+06	0.000000000000000E+000	0.000000000000000E+000	1.1425	1.1425	0.0000000E+000	0.000000000000000E+000	0.011117