File: Data_1mg/2022_01_27 FeNx 1mg ref309_C05.mpt
EC-Lab ASCII FILE
Nb header lines : 63

Potentio Electrochemical Impedance Spectroscopy

Run on channel : 5 (SN 30436)
User :
CE vs. WE compliance from -10 V to 10 V
Electrode connection : standard
Potential control : Ewe
Ewe ctrl range : min = -10.00 V, max = 10.00 V
Safety Limits :
	Do not start on E overload
Acquisition started on : 01/27/2023 13:24:25.322
Loaded Setting File :  NONE
Saved on :
	File : 2022_01_27 FeNx 1mg ref309_C05.mpr
	Directory : C:\Users\grupogalan\Documents\EC-Lab\Data\Scott\
	Host : 169.254.104.159
Device : VSP (SN 1176)
Address : USB
EC-Lab for windows v11.46 (software)
Internet server v11.40 (firmware)
Command interpretor v11.40 (firmware)
Electrode material :
Initial state :
Electrolyte :
Comments :
Electrode surface area : 0.001 cm²
Characteristic mass : 0.001 g
Equivalent Weight : 0.000 g/eq.
Density : 0.000 g/cm3
Volume (V) : 0.001 cm³
Cycle Definition : Charge/Discharge alternance
Mode                Single sine
E (V)               0.0000
vs.                 Eoc
tE (h:m:s)          0:00:0.0000
record              0
dI                  0.000
unit dI             mA
dt (s)              0.000
fi                  200.000
unit fi             kHz
ff                  100.000
unit ff             mHz
Nd                  6
Points              per decade
spacing             Logarithmic
Va (mV)             10.0
pw                  0.10
Na                  2
corr                0
E range min (V)     -10.000
E range max (V)     10.000
I Range             Auto
Bandwidth           5
nc cycles           0
goto Ns'            0
nr cycles           0
inc. cycle          0

freq/Hz	Re(Z)/Ohm	-Im(Z)/Ohm	|Z|/Ohm	Phase(Z)/deg	time/s	<Ewe>/V	<I>/mA	Cs/µF	Cp/µF	cycle number	I Range	|Ewe|/V	|I|/A	Ns	(Q-Qo)/mA.h	Re(Y)/Ohm-1	Im(Y)/Ohm-1	|Y|/Ohm-1	Phase(Y)/deg	Re(C)/nF	Im(C)/nF	|C|/nF	Phase(C)/deg	Re(M)	Im(M)	|M|	Phase(M)/deg	Re(Permittivity)	Im(Permittivity)	|Permittivity|	Phase(Permittivity)/deg	Re(Resistivity)/Ohm.cm	Im(Resistivity)/Ohm.cm	|Resistivity|/Ohm.cm	Phase(Resistivity)/deg	Re(Conductivity)/mS/cm	Im(Conductivity)/mS/cm	|Conductivity|/mS/cm	Phase(Conductivity)/deg	Tan(Delta)	Loss Angle(Delta)/deg	dq/mA.h
199998	1.81199	-1.31811	2.2407	36.0336	1.97449	-0.22543	-0.184025	-0.603728	-0.20892	1	9	0.00779138	0.0034772	0	-2.27781e-05	0.360901	-0.262534	0.446289	-36.0336	-208.92	287.199	355.149	-126.034	0.0000000E+000	0.0000000E+000	0.0000000E+000	126.034	0.0000000E+000	0.0000000E+000	0.0000000E+000	-126.034	0.0000000E+000	0.0000000E+000	0.0000000E+000	36.0336	0.0000000E+000	0.0000000E+000	0.0000000E+000	-36.0336	-1.37469	-36.0336	-2.27781e-05
135123	1.45531	-0.53827	1.55166	20.2978	2.3965	-0.225441	-0.184118	-2.18822	-0.263329	1	9	0.0103943	0.00669882	0	-3.44547e-05	0.604451	-0.223567	0.644471	-20.2978	-263.329	711.954	759.092	-110.298	0.0000000E+000	0.0000000E+000	0.0000000E+000	110.298	0.0000000E+000	0.0000000E+000	0.0000000E+000	-110.298	0.0000000E+000	0.0000000E+000	0.0000000E+000	20.2978	0.0000000E+000	0.0000000E+000	0.0000000E+000	-20.2978	-2.70367	-20.2978	-1.16766e-05
91291.2	1.42698	-0.21592	1.44322	8.60431	2.81849	-0.225342	-0.179161	-8.07417	-0.180725	1	9	0.00947429	0.00656467	0	-6.22772e-05	0.685095	-0.103664	0.692894	-8.60431	-180.725	1194.38	1207.97	-98.6043	0.0000000E+000	0.0000000E+000	0.0000000E+000	98.6043	0.0000000E+000	0.0000000E+000	0.0000000E+000	-98.6043	0.0000000E+000	0.0000000E+000	0.0000000E+000	8.60431	0.0000000E+000	0.0000000E+000	0.0000000E+000	-8.60431	-6.60883	-8.60431	-2.78224e-05
61674.2	1.42257	-0.0376798	1.42307	1.51724	3.24049	-0.225298	-0.172471	-68.487	-0.0480143	1	9	0.0104002	0.00730827	0	-7.50431e-05	0.702458	-0.018606	0.702704	-1.51724	-48.0143	1812.75	1813.38	-91.5172	0.0000000E+000	0.0000000E+000	0.0000000E+000	91.5172	0.0000000E+000	0.0000000E+000	0.0000000E+000	-91.5172	0.0000000E+000	0.0000000E+000	0.0000000E+000	1.51724	0.0000000E+000	0.0000000E+000	0.0000000E+000	-1.51724	-37.7543	-1.51724	-1.27659e-05
41669.8	1.43027	0.0651302	1.43176	-2.60727	3.66249	-0.225174	-0.177	58.6431	0.121351	1	9	0.0108135	0.00755262	0	-0.000122043	0.69772	0.031772	0.698443	2.60727	121.351	2664.9	2667.66	-87.3927	0.0000000E+000	0.0000000E+000	0.0000000E+000	87.3927	0.0000000E+000	0.0000000E+000	0.0000000E+000	-87.3927	0.0000000E+000	0.0000000E+000	0.0000000E+000	-2.60727	0.0000000E+000	0.0000000E+000	0.0000000E+000	2.60727	21.9602	2.60727	-4.70001e-05
28151	1.42876	0.177352	1.43972	-7.07594	4.22149	-0.22515	-0.165167	31.878	0.483732	1	9	0.0102222	0.00710012	0	-0.000149227	0.689288	0.0855614	0.694578	7.07594	483.732	3896.97	3926.88	-82.9241	0.0000000E+000	0.0000000E+000	0.0000000E+000	82.9241	0.0000000E+000	0.0000000E+000	0.0000000E+000	-82.9241	0.0000000E+000	0.0000000E+000	0.0000000E+000	-7.07594	0.0000000E+000	0.0000000E+000	0.0000000E+000	7.07594	8.05606	7.07594	-2.71839e-05
19020.9	1.46963	0.251987	1.49108	-9.72948	4.64348	-0.225159	-0.164477	33.2055	0.948342	1	9	0.0105298	0.00706184	0	-0.000180314	0.661009	0.113338	0.670655	9.72948	948.342	5530.89	5611.61	-80.2705	0.0000000E+000	0.0000000E+000	0.0000000E+000	80.2705	0.0000000E+000	0.0000000E+000	0.0000000E+000	-80.2705	0.0000000E+000	0.0000000E+000	0.0000000E+000	-9.72948	0.0000000E+000	0.0000000E+000	0.0000000E+000	9.72948	5.83217	9.72948	-3.10874e-05
12850.7	1.50065	0.417456	1.55763	-15.5457	4.92848	-0.225278	-0.169844	29.6675	2.13095	1	9	0.0107079	0.00687443	0	-0.000194279	0.618513	0.17206	0.641999	15.5457	2130.95	7660.22	7951.09	-74.4543	0.0000000E+000	0.0000000E+000	0.0000000E+000	74.4543	0.0000000E+000	0.0000000E+000	0.0000000E+000	-74.4543	0.0000000E+000	0.0000000E+000	0.0000000E+000	-15.5457	0.0000000E+000	0.0000000E+000	0.0000000E+000	15.5457	3.59475	15.5457	-1.39646e-05
8683.37	1.57438	0.607766	1.68762	-21.1083	5.233	-0.225233	-0.190007	30.1575	3.91129	1	9	0.0104333	0.00618229	0	-0.000208295	0.552792	0.213397	0.592551	21.1083	3911.29	10132	10860.7	-68.8917	0.0000000E+000	0.0000000E+000	0.0000000E+000	68.8917	0.0000000E+000	0.0000000E+000	0.0000000E+000	-68.8917	0.0000000E+000	0.0000000E+000	0.0000000E+000	-21.1083	0.0000000E+000	0.0000000E+000	0.0000000E+000	21.1083	2.59044	21.1083	-1.40163e-05
5865.09	1.63548	0.813949	1.82683	-26.4587	5.64983	-0.225235	-0.183298	33.3387	6.61831	1	9	0.00995372	0.00544863	0	-0.000229758	0.49006	0.243894	0.547397	26.4587	6618.31	13298.3	14854.2	-63.5413	0.0000000E+000	0.0000000E+000	0.0000000E+000	63.5413	0.0000000E+000	0.0000000E+000	0.0000000E+000	-63.5413	0.0000000E+000	0.0000000E+000	0.0000000E+000	-26.4587	0.0000000E+000	0.0000000E+000	0.0000000E+000	26.4587	2.00931	26.4587	-2.14623e-05
3961.2	1.72555	1.09532	2.04383	-32.4059	6.11294	-0.225217	-0.150781	36.682	10.5352	1	9	0.00961059	0.00470224	0	-0.000248903	0.413083	0.26221	0.489277	32.4059	10535.2	16597	19658.4	-57.5941	0.0000000E+000	0.0000000E+000	0.0000000E+000	57.5941	0.0000000E+000	0.0000000E+000	0.0000000E+000	-57.5941	0.0000000E+000	0.0000000E+000	0.0000000E+000	-32.4059	0.0000000E+000	0.0000000E+000	0.0000000E+000	32.4059	1.57539	32.4059	-1.91451e-05
2677.43	1.87234	1.55229	2.43213	-39.6609	6.57497	-0.225166	-0.150072	38.2938	15.5991	1	9	0.0095447	0.00392441	0	-0.000266418	0.316527	0.262421	0.411162	39.6609	15599.1	18815.3	24440.8	-50.3391	0.0000000E+000	0.0000000E+000	0.0000000E+000	50.3391	0.0000000E+000	0.0000000E+000	0.0000000E+000	-50.3391	0.0000000E+000	0.0000000E+000	0.0000000E+000	-39.6609	0.0000000E+000	0.0000000E+000	0.0000000E+000	39.6609	1.20618	39.6609	-1.75153e-05
1808.26	2.0174	2.14314	2.94329	-46.731	7.03695	-0.225208	-0.153035	41.0684	21.7742	1	9	0.0092983	0.00315915	0	-0.000285141	0.232877	0.247391	0.339756	46.731	21774.2	20496.7	29903.7	-43.269	0.0000000E+000	0.0000000E+000	0.0000000E+000	43.269	0.0000000E+000	0.0000000E+000	0.0000000E+000	-43.269	0.0000000E+000	0.0000000E+000	0.0000000E+000	-46.731	0.0000000E+000	0.0000000E+000	0.0000000E+000	46.731	0.941331	46.731	-1.87234e-05
1221.96	2.21961	2.94541	3.6881	-52.999	7.74945	-0.225101	-0.0199109	44.22	28.2036	1	10	0.00946536	0.00256646	0	-0.000300284	0.163181	0.216541	0.271142	52.999	28203.6	21253.7	35315.2	-37.001	0.0000000E+000	0.0000000E+000	0.0000000E+000	37.001	0.0000000E+000	0.0000000E+000	0.0000000E+000	-37.001	0.0000000E+000	0.0000000E+000	0.0000000E+000	-52.999	0.0000000E+000	0.0000000E+000	0.0000000E+000	52.999	0.753581	52.999	-1.51427e-05
825.264	2.66468	4.0182	4.82146	-56.4496	8.21068	-0.225371	-0.0197208	47.9949	33.3351	1	10	0.00926597	0.00192182	0	-0.000301237	0.114627	0.172852	0.207406	56.4496	33335.1	22106.3	39999	-33.5504	0.0000000E+000	0.0000000E+000	0.0000000E+000	33.5504	0.0000000E+000	0.0000000E+000	0.0000000E+000	-33.5504	0.0000000E+000	0.0000000E+000	0.0000000E+000	-56.4496	0.0000000E+000	0.0000000E+000	0.0000000E+000	56.4496	0.663152	56.4496	-9.52942e-07
558.036	3.30077	5.47414	6.39228	-58.911	8.67447	-0.225141	-0.0204608	52.1006	38.2087	1	10	0.00917913	0.00143597	0	-0.000303643	0.08078	0.133969	0.156439	58.911	38208.7	23038.9	44617.2	-31.089	0.0000000E+000	0.0000000E+000	0.0000000E+000	31.089	0.0000000E+000	0.0000000E+000	0.0000000E+000	-31.089	0.0000000E+000	0.0000000E+000	0.0000000E+000	-58.911	0.0000000E+000	0.0000000E+000	0.0000000E+000	58.911	0.602976	58.911	-2.40586e-06
377.051	4.28531	7.38608	8.53921	-59.8782	9.13367	-0.225234	-0.0189136	57.1486	42.7562	1	10	0.00918489	0.00107561	0	-0.000305341	0.0587689	0.101293	0.117107	59.8782	42756.2	24806.6	49431.3	-30.1218	0.0000000E+000	0.0000000E+000	0.0000000E+000	30.1218	0.0000000E+000	0.0000000E+000	0.0000000E+000	-30.1218	0.0000000E+000	0.0000000E+000	0.0000000E+000	-59.8782	0.0000000E+000	0.0000000E+000	0.0000000E+000	59.8782	0.580187	59.8782	-1.69783e-06
254.755	5.36861	9.8524	11.2201	-61.4139	9.59595	-0.225147	-0.0178903	63.4095	48.8924	1	10	0.00905228	0.000806788	0	-0.00030741	0.0426446	0.0782609	0.0891254	61.4139	48892.4	26641.6	55679.9	-28.5861	0.0000000E+000	0.0000000E+000	0.0000000E+000	28.5861	0.0000000E+000	0.0000000E+000	0.0000000E+000	-28.5861	0.0000000E+000	0.0000000E+000	0.0000000E+000	-61.4139	0.0000000E+000	0.0000000E+000	0.0000000E+000	61.4139	0.544903	61.4139	-2.06941e-06
172.037	7.31152	13.1974	15.0874	-61.0129	10.0524	-0.225345	-0.0187049	70.099	53.6363	1	10	0.0091877	0.000608966	0	-0.000309902	0.0321204	0.0579776	0.0662806	61.0129	53636.3	29715.3	61317.6	-28.9871	0.0000000E+000	0.0000000E+000	0.0000000E+000	28.9871	0.0000000E+000	0.0000000E+000	0.0000000E+000	-28.9871	0.0000000E+000	0.0000000E+000	0.0000000E+000	-61.0129	0.0000000E+000	0.0000000E+000	0.0000000E+000	61.0129	0.554014	61.0129	-2.49208e-06
116.227	9.45037	17.7401	20.1003	-61.9553	10.5096	-0.225374	-0.0220006	77.1889	60.1262	1	10	0.0093105	0.000463202	0	-0.000312275	0.0233908	0.0439089	0.0497505	61.9553	60126.2	32029.9	68125.5	-28.0447	0.0000000E+000	0.0000000E+000	0.0000000E+000	28.0447	0.0000000E+000	0.0000000E+000	0.0000000E+000	-28.0447	0.0000000E+000	0.0000000E+000	0.0000000E+000	-61.9553	0.0000000E+000	0.0000000E+000	0.0000000E+000	61.9553	0.532712	61.9553	-2.37231e-06
78.5176	12.5382	22.6974	25.9303	-61.0834	11.2346	-0.22513	-0.00127547	89.3053	68.4251	1	11	0.00915885	0.000353211	0	-0.000313525	0.0186476	0.0337569	0.038565	61.0834	68425.1	37798.5	78171.1	-28.9166	0.0000000E+000	0.0000000E+000	0.0000000E+000	28.9166	0.0000000E+000	0.0000000E+000	0.0000000E+000	-28.9166	0.0000000E+000	0.0000000E+000	0.0000000E+000	-61.0834	0.0000000E+000	0.0000000E+000	0.0000000E+000	61.0834	0.552408	61.0834	-1.25027e-06
53.0478	16.8935	29.2783	33.8025	-60.0151	11.7111	-0.225394	-0.00170179	102.472	76.8776	1	11	0.00918246	0.00027165	0	-0.000313522	0.0147851	0.025624	0.0295836	60.0151	76877.6	44358.3	88757.2	-29.9849	0.0000000E+000	0.0000000E+000	0.0000000E+000	29.9849	0.0000000E+000	0.0000000E+000	0.0000000E+000	-29.9849	0.0000000E+000	0.0000000E+000	0.0000000E+000	-60.0151	0.0000000E+000	0.0000000E+000	0.0000000E+000	60.0151	0.576999	60.0151	2.54073e-09
35.8372	22.2102	39.2398	45.0894	-60.4896	12.1631	-0.225211	-0.00144473	113.177	85.7164	1	11	0.0092636	0.000205449	0	-0.0003138	0.0109245	0.0193009	0.0221781	60.4896	85716.4	48516.6	98494.5	-29.5104	0.0000000E+000	0.0000000E+000	0.0000000E+000	29.5104	0.0000000E+000	0.0000000E+000	0.0000000E+000	-29.5104	0.0000000E+000	0.0000000E+000	0.0000000E+000	-60.4896	0.0000000E+000	0.0000000E+000	0.0000000E+000	60.4896	0.566013	60.4896	-2.78111e-07
24.2323	29.8752	49.2108	57.5694	-58.7387	12.6381	-0.225105	-0.00125106	133.464	97.5221	1	11	0.00912923	0.000158578	0	-0.000313734	0.00901421	0.0148483	0.0173704	58.7387	97522.1	59204.2	114086	-31.2613	0.0000000E+000	0.0000000E+000	0.0000000E+000	31.2613	0.0000000E+000	0.0000000E+000	0.0000000E+000	-31.2613	0.0000000E+000	0.0000000E+000	0.0000000E+000	-58.7387	0.0000000E+000	0.0000000E+000	0.0000000E+000	58.7387	0.607085	58.7387	6.63271e-08
16.367	37.2428	64.5706	74.5412	-60.0247	13.27	-0.225162	-0.000740853	150.597	113.004	1	11	0.010239	0.00013736	0	-0.000313888	0.00670269	0.011621	0.0134154	60.0247	113004	65178	130453	-29.9753	0.0000000E+000	0.0000000E+000	0.0000000E+000	29.9753	0.0000000E+000	0.0000000E+000	0.0000000E+000	-29.9753	0.0000000E+000	0.0000000E+000	0.0000000E+000	-60.0247	0.0000000E+000	0.0000000E+000	0.0000000E+000	60.0247	0.576776	60.0247	-1.53619e-07
11.0502	48.0844	83.1861	96.0835	-59.9706	13.6938	-0.225151	-0.000275948	173.141	129.778	1	11	0.0101205	0.00010533	0	-0.000313699	0.00520843	0.00901059	0.0104076	59.9706	129778	75016.4	149900	-30.0294	0.0000000E+000	0.0000000E+000	0.0000000E+000	30.0294	0.0000000E+000	0.0000000E+000	0.0000000E+000	-30.0294	0.0000000E+000	0.0000000E+000	0.0000000E+000	-59.9706	0.0000000E+000	0.0000000E+000	0.0000000E+000	59.9706	0.578034	59.9706	1.88952e-07
7.46893	64.7076	109.695	127.358	-59.4642	14.2096	-0.225066	0.00131428	194.256	144.11	1	12	0.0104063	8.17089e-05	0	-0.000313398	0.00398935	0.00676292	0.00785188	59.4642	144110	85008.8	167315	-30.5358	0.0000000E+000	0.0000000E+000	0.0000000E+000	30.5358	0.0000000E+000	0.0000000E+000	0.0000000E+000	-30.5358	0.0000000E+000	0.0000000E+000	0.0000000E+000	-59.4642	0.0000000E+000	0.0000000E+000	0.0000000E+000	59.4642	0.589886	59.4642	3.01182e-07
5.04683	81.3668	140.885	162.694	-59.9919	14.6729	-0.225339	0.000589607	223.839	167.852	1	12	0.010136	6.23012e-05	0	-0.000312881	0.00307401	0.0053226	0.00614652	59.9919	167852	96940.8	193834	-30.0081	0.0000000E+000	0.0000000E+000	0.0000000E+000	30.0081	0.0000000E+000	0.0000000E+000	0.0000000E+000	-30.0081	0.0000000E+000	0.0000000E+000	0.0000000E+000	-59.9919	0.0000000E+000	0.0000000E+000	0.0000000E+000	59.9919	0.577539	59.9919	5.16987e-07
3.4086	106.483	179.441	208.656	-59.3145	15.3292	-0.225212	0.00126199	260.21	192.443	1	12	0.010165	4.87164e-05	0	-0.000313326	0.00244577	0.00412152	0.00479257	59.3145	192443	114198	223776	-30.6855	0.0000000E+000	0.0000000E+000	0.0000000E+000	30.6855	0.0000000E+000	0.0000000E+000	0.0000000E+000	-30.6855	0.0000000E+000	0.0000000E+000	0.0000000E+000	-59.3145	0.0000000E+000	0.0000000E+000	0.0000000E+000	59.3145	0.593414	59.3145	-4.45467e-07
2.30321	140.418	235.717	274.371	-59.2176	16.2781	-0.225188	0.00147746	293.153	216.371	1	12	0.0102152	3.72312e-05	0	-0.000313351	0.00186528	0.00313122	0.00364469	59.2176	216371	128893	251853	-30.7824	0.0000000E+000	0.0000000E+000	0.0000000E+000	30.7824	0.0000000E+000	0.0000000E+000	0.0000000E+000	-30.7824	0.0000000E+000	0.0000000E+000	0.0000000E+000	-59.2176	0.0000000E+000	0.0000000E+000	0.0000000E+000	59.2176	0.595703	59.2176	-2.51597e-08