File: Data_1mg/2022_01_26 IrOx 1mg  ref309 elect1 set1_03_CP_C02.mpt
EC-Lab ASCII FILE
Nb header lines : 53

Chronopotentiometry

Run on channel : 2 (SN 12477)
User :
CE vs. WE compliance from -10 V to 10 V
Electrode connection : standard
Potential control : Ewe
Ewe ctrl range : min = -2.50 V, max = 2.50 V
Safety Limits :
	Do not start on E overload
Acquisition started on : 01/26/2023 11:20:17.212
Loaded Setting File :  C:\Users\grupogalan\Documents\EC-Lab\Data\Scott\_cyclic_pause_tafel.mps
Saved on :
	File : 2022_01_26 IrOx 1mg  ref309 elect1 set1_03_CP_C02.mpr
	Directory : C:\Users\grupogalan\Documents\EC-Lab\Data\Scott\
	Host : 169.254.104.159
Device : VSP (SN 1176)
Address : USB
EC-Lab for windows v11.46 (software)
Internet server v11.40 (firmware)
Command interpretor v11.40 (firmware)
Electrode material :
Initial state :
Electrolyte :
Comments :
Electrode surface area : 0.000 cm²
Characteristic mass : 0.001 g
Equivalent Weight : 0.000 g/eq.
Density : 0.000 g/cm3
Volume (V) : 0.001 cm³
Cycle Definition : Charge/Discharge alternance
Ns                  0                   1                   2                   3                   4                   5                   6                   7                   8                   9                   10                  11                  12
Is                  10.000              18.000              32.000              56.000              100.000             178.000             316.000             562.000             1.000               1.778               3.162               5.623               10.000
unit Is             µA                  µA                  µA                  µA                  µA                  µA                  µA                  µA                  mA                  mA                  mA                  mA                  mA
vs.                 <None>              <None>              <None>              <None>              <None>              <None>              <None>              <None>              <None>              <None>              <None>              <None>              <None>
ts (h:m:s)          0:03:0.0000         0:03:0.0000         0:03:0.0000         0:03:0.0000         0:03:0.0000         0:03:0.0000         0:03:0.0000         0:03:0.0000         0:03:0.0000         0:03:0.0000         0:03:0.0000         0:03:0.0000         0:03:0.0000
EM (V)              pass                pass                pass                pass                pass                pass                pass                pass                pass                pass                pass                pass                pass
dQM                 500.000             900.000             1.600               2.800               5.000               8.900               15.800              28.100              50.000              88.900              158.100             281.150             500.000
unit dQM            nA.h                nA.h                µA.h                µA.h                µA.h                µA.h                µA.h                µA.h                µA.h                µA.h                µA.h                µA.h                µA.h
record              <Ewe>               <Ewe>               <Ewe>               <Ewe>               <Ewe>               <Ewe>               <Ewe>               <Ewe>               <Ewe>               <Ewe>               <Ewe>               <Ewe>               <Ewe>
dEs (mV)            0.00                0.00                0.00                0.00                0.00                0.00                0.00                0.00                0.00                0.00                0.00                0.00                0.00
dts (s)             1.0000              1.0000              1.0000              1.0000              1.0000              1.0000              1.0000              1.0000              1.0000              1.0000              1.0000              1.0000              1.0000
E range min (V)     -2.500              -2.500              -2.500              -2.500              -2.500              -2.500              -2.500              -2.500              -2.500              -2.500              -2.500              -2.500              -2.500
E range max (V)     2.500               2.500               2.500               2.500               2.500               2.500               2.500               2.500               2.500               2.500               2.500               2.500               2.500
I Range             10 mA               10 mA               10 mA               10 mA               10 mA               10 mA               10 mA               10 mA               10 mA               10 mA               10 mA               10 mA               10 mA
Bandwidth           5                   5                   5                   5                   5                   5                   5                   5                   5                   5                   5                   5                   5
goto Ns'            0                   0                   0                   0                   0                   0                   0                   0                   0                   0                   0                   0                   0
nc cycles           0                   0                   0                   0                   0                   0                   0                   0                   0                   0                   0                   0                   0

mode	ox/red	error	control changes	Ns changes	counter inc.	Ns	time/s	control/mA	<Ewe>/V	I/mA	dQ/C	(Q-Qo)/C	half cycle	Q charge/discharge/mA.h	I Range	Energy charge/W.h	Energy discharge/W.h	Capacitance charge/µF	Capacitance discharge/µF	Q discharge/mA.h	Q charge/mA.h	Capacity/mA.h	Efficiency/%	cycle number	P/W
1	1	0	0	0	0	0	650.74	0.01	0.0158662	0.0119621	1.10645e-05	1.10645e-05	0	3.07348e-06	11	4.87646e-11	0.000000000000000E+000	0.000000000000000E+000	0.000000000000000E+000	0.000000000000000E+000	3.07348e-06	3.07348e-06	0.0000000E+000	0.000000000000000E+000	1.89793e-07
1	1	0	0	0	0	0	658.74	0.01	0.0257327	0.0108804	0.000104214	0.000104214	0	2.89482e-05	11	6.10894e-10	0.000000000000000E+000	10562.4	0.000000000000000E+000	0.000000000000000E+000	2.89482e-05	2.89482e-05	0.0000000E+000	0.000000000000000E+000	2.79983e-07
1	1	0	0	0	0	0	666.74	0.01	0.0342852	0.0115803	0.000197235	0.000197235	0	5.47875e-05	11	1.40566e-09	0.000000000000000E+000	10708.3	0.000000000000000E+000	0.000000000000000E+000	5.47875e-05	5.47875e-05	0.0000000E+000	0.000000000000000E+000	3.97033e-07
1	1	0	0	0	0	0	674.74	0.01	0.0420094	0.0115803	0.000290124	0.000290124	0	8.059e-05	11	2.40594e-09	0.000000000000000E+000	11097.5	0.000000000000000E+000	0.000000000000000E+000	8.059e-05	8.059e-05	0.0000000E+000	0.000000000000000E+000	4.86482e-07
1	1	0	0	0	0	0	682.74	0.01	0.0491078	0.0124074	0.000383199	0.000383199	0	0.000106444	11	3.59928e-09	0.000000000000000E+000	11527.7	0.000000000000000E+000	0.000000000000000E+000	0.000106444	0.000106444	0.0000000E+000	0.000000000000000E+000	6.09302e-07
1	1	0	0	0	0	0	690.74	0.01	0.0558627	0.0129801	0.000476294	0.000476294	0	0.000132304	11	4.97237e-09	0.000000000000000E+000	11908.4	0.000000000000000E+000	0.000000000000000E+000	0.000132304	0.000132304	0.0000000E+000	0.000000000000000E+000	7.25101e-07
1	1	0	0	0	0	0	698.74	0.01	0.0624055	0.0120893	0.000569272	0.000569272	0	0.000158131	11	6.51449e-09	0.000000000000000E+000	12232.1	0.000000000000000E+000	0.000000000000000E+000	0.000158131	0.000158131	0.0000000E+000	0.000000000000000E+000	7.54439e-07
1	1	0	0	0	0	0	706.74	0.01	0.068671	0.0110713	0.000662181	0.000662181	0	0.000183939	11	8.21934e-09	0.000000000000000E+000	12540.2	0.000000000000000E+000	0.000000000000000E+000	0.000183939	0.000183939	0.0000000E+000	0.000000000000000E+000	7.60278e-07
1	1	0	0	0	0	0	714.74	0.01	0.07469	0.0117712	0.00075495	0.00075495	0	0.000209708	11	1.00792e-08	0.000000000000000E+000	12834.1	0.000000000000000E+000	0.000000000000000E+000	0.000209708	0.000209708	0.0000000E+000	0.000000000000000E+000	8.7919e-07
1	1	0	0	0	0	0	722.74	0.01	0.08053	0.0117712	0.000847777	0.000847777	0	0.000235494	11	1.20919e-08	0.000000000000000E+000	13110.6	0.000000000000000E+000	0.000000000000000E+000	0.000235494	0.000235494	0.0000000E+000	0.000000000000000E+000	9.47933e-07
1	1	0	0	0	0	0	730.74	0.01	0.0861135	0.0113894	0.000940651	0.000940651	0	0.000261292	11	1.42536e-08	0.000000000000000E+000	13390.6	0.000000000000000E+000	0.000000000000000E+000	0.000261292	0.000261292	0.0000000E+000	0.000000000000000E+000	9.80784e-07
1	1	0	0	0	0	0	738.74	0.01	0.0916588	0.0122166	0.00103356	0.00103356	0	0.000287099	11	1.65595e-08	0.000000000000000E+000	13636.7	0.000000000000000E+000	0.000000000000000E+000	0.000287099	0.000287099	0.0000000E+000	0.000000000000000E+000	1.11976e-06
1	1	0	0	0	0	0	746.74	0.01	0.0970513	0.0113258	0.00112647	0.00112647	0	0.00031291	11	1.90046e-08	0.000000000000000E+000	13875.4	0.000000000000000E+000	0.000000000000000E+000	0.00031291	0.00031291	0.0000000E+000	0.000000000000000E+000	1.09918e-06
1	1	0	0	0	0	0	754.74	0.01	0.102249	0.0113894	0.00121936	0.00121936	0	0.000338712	11	2.15848e-08	0.000000000000000E+000	14115.8	0.000000000000000E+000	0.000000000000000E+000	0.000338712	0.000338712	0.0000000E+000	0.000000000000000E+000	1.16456e-06
1	1	0	0	0	0	0	762.74	0.01	0.107269	0.0131073	0.00131216	0.00131216	0	0.000364489	11	2.42939e-08	0.000000000000000E+000	14355.8	0.000000000000000E+000	0.000000000000000E+000	0.000364489	0.000364489	0.0000000E+000	0.000000000000000E+000	1.40601e-06
1	1	0	0	0	0	0	770.74	0.01	0.112223	0.0109441	0.00140492	0.00140492	0	0.000390256	11	2.71301e-08	0.000000000000000E+000	14580.4	0.000000000000000E+000	0.000000000000000E+000	0.000390256	0.000390256	0.0000000E+000	0.000000000000000E+000	1.22818e-06
1	1	0	0	0	0	0	778.74	0.01	0.116964	0.0113258	0.00149768	0.00149768	0	0.000416021	11	3.00902e-08	0.000000000000000E+000	14814.2	0.000000000000000E+000	0.000000000000000E+000	0.000416021	0.000416021	0.0000000E+000	0.000000000000000E+000	1.32471e-06
1	1	0	0	0	0	0	786.74	0.01	0.121484	0.0111986	0.00159049	0.00159049	0	0.000441802	11	3.31728e-08	0.000000000000000E+000	15058.8	0.000000000000000E+000	0.000000000000000E+000	0.000441802	0.000441802	0.0000000E+000	0.000000000000000E+000	1.36045e-06
1	1	0	0	0	0	0	794.74	0.01	0.125922	0.0120257	0.00168328	0.00168328	0	0.000467577	11	3.63716e-08	0.000000000000000E+000	15294.8	0.000000000000000E+000	0.000000000000000E+000	0.000467577	0.000467577	0.0000000E+000	0.000000000000000E+000	1.51429e-06
1	1	0	0	0	0	0	802.74	0.01	0.130461	0.0102442	0.00177601	0.00177601	0	0.000493335	11	3.96825e-08	0.000000000000000E+000	15498.2	0.000000000000000E+000	0.000000000000000E+000	0.000493335	0.000493335	0.0000000E+000	0.000000000000000E+000	1.33646e-06
1	1	0	0	0	0	0	810.74	0.01	0.13485	0.0114531	0.0018687	0.0018687	0	0.000519084	11	4.3102e-08	0.000000000000000E+000	15705.5	0.000000000000000E+000	0.000000000000000E+000	0.000519084	0.000519084	0.0000000E+000	0.000000000000000E+000	1.54445e-06
1	1	0	0	0	0	0	818.74	0.01	0.138793	0.0113894	0.00196155	0.00196155	0	0.000544874	11	4.66331e-08	0.000000000000000E+000	15957	0.000000000000000E+000	0.000000000000000E+000	0.000544874	0.000544874	0.0000000E+000	0.000000000000000E+000	1.58078e-06
1	1	0	0	0	0	0	826.74	0.01	0.142614	0.0113894	0.0020543	0.0020543	0	0.000570639	11	5.02642e-08	0.000000000000000E+000	16207.8	0.000000000000000E+000	0.000000000000000E+000	0.000570639	0.000570639	0.0000000E+000	0.000000000000000E+000	1.62429e-06
1	1	0	1	0	0	1	833.792	0.018	0.148395	0.0185791	7.59656e-05	0.00216558	0	0.000601549	11	5.47671e-08	0.000000000000000E+000	16340.4	0.000000000000000E+000	0.000000000000000E+000	0.000601549	0.000601549	0.0000000E+000	0.000000000000000E+000	2.75705e-06
1	1	0	1	0	0	1	841.792	0.018	0.156642	0.0195335	0.000227646	0.00231726	0	0.000643682	11	6.12159e-08	0.000000000000000E+000	16460.6	0.000000000000000E+000	0.000000000000000E+000	0.000643682	0.000643682	0.0000000E+000	0.000000000000000E+000	3.05977e-06
1	1	0	1	0	0	1	849.792	0.018	0.164486	0.0191517	0.000379373	0.00246898	0	0.000685829	11	6.80059e-08	0.000000000000000E+000	16612.8	0.000000000000000E+000	0.000000000000000E+000	0.000685829	0.000685829	0.0000000E+000	0.000000000000000E+000	3.15018e-06
1	1	0	1	0	0	1	857.792	0.018	0.171965	0.0193426	0.000531117	0.00262073	0	0.00072798	11	7.51182e-08	0.000000000000000E+000	16788.9	0.000000000000000E+000	0.000000000000000E+000	0.00072798	0.00072798	0.0000000E+000	0.000000000000000E+000	3.32625e-06
1	1	0	1	0	0	1	865.792	0.018	0.179233	0.0196607	0.000682765	0.00277238	0	0.000770104	11	8.25357e-08	0.000000000000000E+000	16970.3	0.000000000000000E+000	0.000000000000000E+000	0.000770104	0.000770104	0.0000000E+000	0.000000000000000E+000	3.52384e-06
1	1	0	1	0	0	1	873.792	0.018	0.186254	0.0193426	0.000834374	0.00292398	0	0.000812218	11	9.02491e-08	0.000000000000000E+000	17160.8	0.000000000000000E+000	0.000000000000000E+000	0.000812218	0.000812218	0.0000000E+000	0.000000000000000E+000	3.60263e-06
1	1	0	1	0	0	1	881.792	0.018	0.192816	0.0185154	0.000986049	0.00307566	0	0.00085435	11	9.82494e-08	0.000000000000000E+000	17381.6	0.000000000000000E+000	0.000000000000000E+000	0.00085435	0.00085435	0.0000000E+000	0.000000000000000E+000	3.57007e-06
1	1	0	1	0	0	1	889.792	0.018	0.199153	0.0182609	0.00113772	0.00322733	0	0.00089648	11	1.06524e-07	0.000000000000000E+000	17608.1	0.000000000000000E+000	0.000000000000000E+000	0.00089648	0.00089648	0.0000000E+000	0.000000000000000E+000	3.63673e-06
1	1	0	1	0	0	1	897.792	0.018	0.205078	0.0188336	0.00128943	0.00337904	0	0.000938622	11	1.15061e-07	0.000000000000000E+000	17858.5	0.000000000000000E+000	0.000000000000000E+000	0.000938622	0.000938622	0.0000000E+000	0.000000000000000E+000	3.86235e-06
1	1	0	1	0	0	1	905.792	0.018	0.210895	0.0194698	0.00144123	0.00353084	0	0.00098079	11	1.23851e-07	0.000000000000000E+000	18104.3	0.000000000000000E+000	0.000000000000000E+000	0.00098079	0.00098079	0.0000000E+000	0.000000000000000E+000	4.10608e-06
1	1	0	1	0	0	1	913.792	0.018	0.216235	0.0190244	0.00159304	0.00368265	0	0.00102296	11	1.32875e-07	0.000000000000000E+000	18379.4	0.000000000000000E+000	0.000000000000000E+000	0.00102296	0.00102296	0.0000000E+000	0.000000000000000E+000	4.11375e-06
1	1	0	1	0	0	1	921.792	0.018	0.221394	0.0185154	0.00174469	0.0038343	0	0.00106508	11	1.4211e-07	0.000000000000000E+000	18655.9	0.000000000000000E+000	0.000000000000000E+000	0.00106508	0.00106508	0.0000000E+000	0.000000000000000E+000	4.09921e-06
1	1	0	1	0	0	1	929.792	0.018	0.226071	0.0189608	0.00189645	0.00398606	0	0.00110724	11	1.51556e-07	0.000000000000000E+000	18962.8	0.000000000000000E+000	0.000000000000000E+000	0.00110724	0.00110724	0.0000000E+000	0.000000000000000E+000	4.28649e-06
1	1	0	1	0	0	1	937.792	0.018	0.230478	0.019279	0.00204815	0.00413776	0	0.00114938	11	1.61189e-07	0.000000000000000E+000	19280.2	0.000000000000000E+000	0.000000000000000E+000	0.00114938	0.00114938	0.0000000E+000	0.000000000000000E+000	4.44337e-06
1	1	0	1	0	0	1	945.792	0.018	0.234486	0.0197243	0.00219993	0.00428954	0	0.00119154	11	1.71004e-07	0.000000000000000E+000	19621	0.000000000000000E+000	0.000000000000000E+000	0.00119154	0.00119154	0.0000000E+000	0.000000000000000E+000	4.62508e-06
1	1	0	1	0	0	1	953.792	0.018	0.238128	0.0194698	0.00235172	0.00444133	0	0.0012337	11	1.80978e-07	0.000000000000000E+000	19982.5	0.000000000000000E+000	0.000000000000000E+000	0.0012337	0.0012337	0.0000000E+000	0.000000000000000E+000	4.6363e-06
1	1	0	1	0	0	1	961.792	0.018	0.24135	0.019788	0.00250354	0.00459315	0	0.00127587	11	1.91099e-07	0.000000000000000E+000	20370.2	0.000000000000000E+000	0.000000000000000E+000	0.00127587	0.00127587	0.0000000E+000	0.000000000000000E+000	4.77583e-06
1	1	0	1	0	0	1	969.792	0.018	0.244154	0.0193426	0.00265532	0.00474493	0	0.00131804	11	2.01344e-07	0.000000000000000E+000	20784.8	0.000000000000000E+000	0.000000000000000E+000	0.00131804	0.00131804	0.0000000E+000	0.000000000000000E+000	4.72258e-06
1	1	0	1	0	0	1	977.792	0.018	0.246612	0.0181337	0.002807	0.00489661	0	0.00136017	11	2.11693e-07	0.000000000000000E+000	21220.8	0.000000000000000E+000	0.000000000000000E+000	0.00136017	0.00136017	0.0000000E+000	0.000000000000000E+000	4.47198e-06
1	1	0	1	0	0	1	985.792	0.018	0.248713	0.01877	0.00295863	0.00504824	0	0.00140229	11	2.22133e-07	0.000000000000000E+000	21680.5	0.000000000000000E+000	0.000000000000000E+000	0.00140229	0.00140229	0.0000000E+000	0.000000000000000E+000	4.66833e-06
1	1	0	1	0	0	1	993.792	0.018	0.250351	0.0183246	0.00311032	0.00519993	0	0.00144442	11	2.32654e-07	0.000000000000000E+000	22176	0.000000000000000E+000	0.000000000000000E+000	0.00144442	0.00144442	0.0000000E+000	0.000000000000000E+000	4.58757e-06
1	1	0	1	0	0	1	1001.79	0.018	0.251651	0.0190244	0.00326201	0.00535162	0	0.00148656	11	2.43236e-07	0.000000000000000E+000	22697.1	0.000000000000000E+000	0.000000000000000E+000	0.00148656	0.00148656	0.0000000E+000	0.000000000000000E+000	4.78753e-06
1	1	0	1	0	0	1	1009.79	0.018	0.25269	0.0190881	0.00341376	0.00550337	0	0.00152871	11	2.53869e-07	0.000000000000000E+000	23238.2	0.000000000000000E+000	0.000000000000000E+000	0.00152871	0.00152871	0.0000000E+000	0.000000000000000E+000	4.82338e-06
1	1	0	0	0	0	2	1016.79	0.032	0.262221	0.0324494	0.000231798	0.00573517	0	0.0015931	11	2.70488e-07	0.000000000000000E+000	23280.2	0.000000000000000E+000	0.000000000000000E+000	0.0015931	0.0015931	0.0000000E+000	0.000000000000000E+000	8.50889e-06
1	1	0	0	0	0	2	1024.79	0.032	0.271804	0.0330856	0.000496692	0.00600007	0	0.00166669	11	2.90191e-07	0.000000000000000E+000	23443.5	0.000000000000000E+000	0.000000000000000E+000	0.00166669	0.00166669	0.0000000E+000	0.000000000000000E+000	8.99279e-06
1	1	0	0	0	0	2	1032.79	0.032	0.279845	0.0327039	0.000761753	0.00626513	0	0.00174031	11	3.10546e-07	0.000000000000000E+000	23733.5	0.000000000000000E+000	0.000000000000000E+000	0.00174031	0.00174031	0.0000000E+000	0.000000000000000E+000	9.15201e-06
1	1	0	0	0	0	2	1040.79	0.032	0.28671	0.0326402	0.00102682	0.00653019	0	0.00181394	11	3.31443e-07	0.000000000000000E+000	24110.6	0.000000000000000E+000	0.000000000000000E+000	0.00181394	0.00181394	0.0000000E+000	0.000000000000000E+000	9.35828e-06
1	1	0	0	0	0	2	1048.79	0.032	0.292546	0.0324494	0.00129184	0.00679521	0	0.00188756	11	3.52802e-07	0.000000000000000E+000	24559.8	0.000000000000000E+000	0.000000000000000E+000	0.00188756	0.00188756	0.0000000E+000	0.000000000000000E+000	9.49294e-06
1	1	0	0	0	0	2	1056.79	0.032	0.297589	0.03404	0.00155686	0.00706023	0	0.00196118	11	3.74556e-07	0.000000000000000E+000	25061	0.000000000000000E+000	0.000000000000000E+000	0.00196118	0.00196118	0.0000000E+000	0.000000000000000E+000	1.01299e-05
1	1	0	0	0	0	2	1064.79	0.032	0.301803	0.033531	0.00182172	0.0073251	0	0.00203475	11	3.96635e-07	0.000000000000000E+000	25617.9	0.000000000000000E+000	0.000000000000000E+000	0.00203475	0.00203475	0.0000000E+000	0.000000000000000E+000	1.01198e-05
1	1	0	0	0	0	2	1072.79	0.032	0.305322	0.0334037	0.00208668	0.00759005	0	0.00210835	11	4.19002e-07	0.000000000000000E+000	26221.8	0.000000000000000E+000	0.000000000000000E+000	0.00210835	0.00210835	0.0000000E+000	0.000000000000000E+000	1.01989e-05
1	1	0	0	0	0	2	1080.79	0.032	0.308351	0.0329584	0.00235174	0.00785512	0	0.00218198	11	4.41616e-07	0.000000000000000E+000	26856.5	0.000000000000000E+000	0.000000000000000E+000	0.00218198	0.00218198	0.0000000E+000	0.000000000000000E+000	1.01627e-05
1	1	0	0	0	0	2	1088.79	0.032	0.310807	0.0339764	0.0026168	0.00812018	0	0.00225561	11	4.64425e-07	0.000000000000000E+000	27531.5	0.000000000000000E+000	0.000000000000000E+000	0.00225561	0.00225561	0.0000000E+000	0.000000000000000E+000	1.05601e-05
1	1	0	0	0	0	2	1096.79	0.032	0.312729	0.0338491	0.00288185	0.00838522	0	0.00232923	11	4.87388e-07	0.000000000000000E+000	28246.1	0.000000000000000E+000	0.000000000000000E+000	0.00232923	0.00232923	0.0000000E+000	0.000000000000000E+000	1.05856e-05
1	1	0	0	0	0	2	1104.79	0.032	0.3142	0.0333401	0.00314675	0.00865013	0	0.00240281	11	5.10459e-07	0.000000000000000E+000	28994.8	0.000000000000000E+000	0.000000000000000E+000	0.00240281	0.00240281	0.0000000E+000	0.000000000000000E+000	1.04755e-05
1	1	0	0	0	0	2	1112.79	0.032	0.314827	0.0323221	0.00341177	0.00891514	0	0.00247643	11	5.33621e-07	0.000000000000000E+000	29820.5	0.000000000000000E+000	0.000000000000000E+000	0.00247643	0.00247643	0.0000000E+000	0.000000000000000E+000	1.01759e-05
1	1	0	0	0	0	2	1120.79	0.032	0.314801	0.0330856	0.0036767	0.00918007	0	0.00255002	11	5.56787e-07	0.000000000000000E+000	30709.3	0.000000000000000E+000	0.000000000000000E+000	0.00255002	0.00255002	0.0000000E+000	0.000000000000000E+000	1.04154e-05
1	1	0	0	0	0	2	1128.79	0.032	0.314631	0.0329584	0.00394159	0.00944497	0	0.0026236	11	5.79942e-07	0.000000000000000E+000	31613.4	0.000000000000000E+000	0.000000000000000E+000	0.0026236	0.0026236	0.0000000E+000	0.000000000000000E+000	1.03697e-05
1	1	0	0	0	0	2	1136.79	0.032	0.314036	0.0333401	0.00420648	0.00970985	0	0.00269718	11	6.03066e-07	0.000000000000000E+000	32564.9	0.000000000000000E+000	0.000000000000000E+000	0.00269718	0.00269718	0.0000000E+000	0.000000000000000E+000	1.047e-05
1	1	0	0	0	0	2	1144.79	0.032	0.313049	0.0338491	0.00447142	0.00997479	0	0.00277078	11	6.26136e-07	0.000000000000000E+000	33564.5	0.000000000000000E+000	0.000000000000000E+000	0.00277078	0.00277078	0.0000000E+000	0.000000000000000E+000	1.05964e-05
1	1	0	0	0	0	2	1152.79	0.032	0.311988	0.0341036	0.00473634	0.0102397	0	0.00284437	11	6.49131e-07	0.000000000000000E+000	34579.4	0.000000000000000E+000	0.000000000000000E+000	0.00284437	0.00284437	0.0000000E+000	0.000000000000000E+000	1.06399e-05
1	1	0	0	0	0	2	1160.79	0.032	0.310493	0.0329584	0.00500134	0.0105047	0	0.00291798	11	6.72036e-07	0.000000000000000E+000	35654.3	0.000000000000000E+000	0.000000000000000E+000	0.00291798	0.00291798	0.0000000E+000	0.000000000000000E+000	1.02333e-05
1	1	0	0	0	0	2	1168.79	0.032	0.308698	0.0335946	0.00526632	0.0107697	0	0.00299158	11	6.94819e-07	0.000000000000000E+000	36777.7	0.000000000000000E+000	0.000000000000000E+000	0.00299158	0.00299158	0.0000000E+000	0.000000000000000E+000	1.03706e-05
1	1	0	0	0	0	2	1176.79	0.032	0.306812	0.0328947	0.00553132	0.0110347	0	0.00306519	11	7.17469e-07	0.000000000000000E+000	37926.9	0.000000000000000E+000	0.000000000000000E+000	0.00306519	0.00306519	0.0000000E+000	0.000000000000000E+000	1.00925e-05
1	1	0	0	0	0	2	1184.79	0.032	0.304725	0.0316859	0.00579631	0.0112997	0	0.0031388	11	7.39971e-07	0.000000000000000E+000	39118.4	0.000000000000000E+000	0.000000000000000E+000	0.0031388	0.0031388	0.0000000E+000	0.000000000000000E+000	9.65547e-06
1	1	0	1	0	0	3	1191.79	0.056	0.307349	0.0577722	0.000115155	0.0115805	0	0.00321681	11	7.63749e-07	0.000000000000000E+000	39729.7	0.000000000000000E+000	0.000000000000000E+000	0.00321681	0.00321681	0.0000000E+000	0.000000000000000E+000	1.77562e-05
1	1	0	1	0	0	3	1199.79	0.056	0.322372	0.0581539	0.000575801	0.0120412	0	0.00334477	11	8.04223e-07	0.000000000000000E+000	39285.4	0.000000000000000E+000	0.000000000000000E+000	0.00334477	0.00334477	0.0000000E+000	0.000000000000000E+000	1.87472e-05
1	1	0	1	0	0	3	1207.79	0.056	0.33284	0.0577085	0.00103618	0.0125016	0	0.00347266	11	8.46236e-07	0.000000000000000E+000	39440.4	0.000000000000000E+000	0.000000000000000E+000	0.00347266	0.00347266	0.0000000E+000	0.000000000000000E+000	1.92077e-05
1	1	0	1	0	0	3	1215.79	0.056	0.34081	0.057454	0.00149672	0.0129621	0	0.00360058	11	8.89393e-07	0.000000000000000E+000	39890.3	0.000000000000000E+000	0.000000000000000E+000	0.00360058	0.00360058	0.0000000E+000	0.000000000000000E+000	1.95809e-05
1	1	0	1	0	0	3	1223.79	0.056	0.347029	0.0580903	0.00195732	0.0134227	0	0.00372853	11	9.33443e-07	0.000000000000000E+000	40532.1	0.000000000000000E+000	0.000000000000000E+000	0.00372853	0.00372853	0.0000000E+000	0.000000000000000E+000	2.0159e-05
1	1	0	1	0	0	3	1231.79	0.056	0.352252	0.0581539	0.00241796	0.0138833	0	0.00385648	11	9.78222e-07	0.000000000000000E+000	41272.1	0.000000000000000E+000	0.000000000000000E+000	0.00385648	0.00385648	0.0000000E+000	0.000000000000000E+000	2.04848e-05
1	1	0	1	0	0	3	1239.79	0.056	0.356657	0.0570723	0.00287855	0.0143439	0	0.00398442	11	1.02361e-06	0.000000000000000E+000	42090.2	0.000000000000000E+000	0.000000000000000E+000	0.00398442	0.00398442	0.0000000E+000	0.000000000000000E+000	2.03552e-05
1	1	0	1	0	0	3	1247.79	0.056	0.360489	0.0570723	0.0033392	0.0148046	0	0.00411238	11	1.06952e-06	0.000000000000000E+000	42958.8	0.000000000000000E+000	0.000000000000000E+000	0.00411238	0.00411238	0.0000000E+000	0.000000000000000E+000	2.05739e-05
1	1	0	1	0	0	3	1255.79	0.056	0.363757	0.057454	0.00379977	0.0152651	0	0.00424032	11	1.11587e-06	0.000000000000000E+000	43879.2	0.000000000000000E+000	0.000000000000000E+000	0.00424032	0.00424032	0.0000000E+000	0.000000000000000E+000	2.08993e-05
1	1	0	1	0	0	3	1263.79	0.056	0.366693	0.0573268	0.00426041	0.0157258	0	0.00436827	11	1.16262e-06	0.000000000000000E+000	44824.9	0.000000000000000E+000	0.000000000000000E+000	0.00436827	0.00436827	0.0000000E+000	0.000000000000000E+000	2.10213e-05
1	1	0	1	0	0	3	1271.79	0.056	0.368994	0.0577085	0.00472102	0.0161864	0	0.00449622	11	1.2097e-06	0.000000000000000E+000	45837.2	0.000000000000000E+000	0.000000000000000E+000	0.00449622	0.00449622	0.0000000E+000	0.000000000000000E+000	2.12941e-05
1	1	0	1	0	0	3	1279.79	0.056	0.371008	0.0575813	0.00518162	0.016647	0	0.00462417	11	1.25706e-06	0.000000000000000E+000	46874.2	0.000000000000000E+000	0.000000000000000E+000	0.00462417	0.00462417	0.0000000E+000	0.000000000000000E+000	2.13631e-05
1	1	0	1	0	0	3	1287.79	0.056	0.372545	0.0576449	0.0056421	0.0171075	0	0.00475208	11	1.30462e-06	0.000000000000000E+000	47963.2	0.000000000000000E+000	0.000000000000000E+000	0.00475208	0.00475208	0.0000000E+000	0.000000000000000E+000	2.14753e-05
1	1	0	1	0	0	3	1295.79	0.056	0.373796	0.0576449	0.00610272	0.0175681	0	0.00488003	11	1.35238e-06	0.000000000000000E+000	49082.5	0.000000000000000E+000	0.000000000000000E+000	0.00488003	0.00488003	0.0000000E+000	0.000000000000000E+000	2.15475e-05
1	1	0	1	0	0	3	1303.79	0.056	0.375128	0.057454	0.00656329	0.0180287	0	0.00500796	11	1.4003e-06	0.000000000000000E+000	50182.5	0.000000000000000E+000	0.000000000000000E+000	0.00500796	0.00500796	0.0000000E+000	0.000000000000000E+000	2.15526e-05
1	1	0	1	0	0	3	1311.79	0.056	0.375955	0.0573268	0.00702383	0.0184892	0	0.00513589	11	1.44834e-06	0.000000000000000E+000	51346.3	0.000000000000000E+000	0.000000000000000E+000	0.00513589	0.00513589	0.0000000E+000	0.000000000000000E+000	2.15523e-05
1	1	0	1	0	0	3	1319.79	0.056	0.376455	0.0566269	0.0074843	0.0189497	0	0.0052638	11	1.49644e-06	0.000000000000000E+000	52552.1	0.000000000000000E+000	0.000000000000000E+000	0.0052638	0.0052638	0.0000000E+000	0.000000000000000E+000	2.13175e-05
1	1	0	1	0	0	3	1327.79	0.056	0.376682	0.0570723	0.00794488	0.0194103	0	0.00539174	11	1.54461e-06	0.000000000000000E+000	53795.4	0.000000000000000E+000	0.000000000000000E+000	0.00539174	0.00539174	0.0000000E+000	0.000000000000000E+000	2.14981e-05
1	1	0	1	0	0	3	1335.79	0.056	0.377053	0.0566905	0.00840546	0.0198708	0	0.00551968	11	1.59282e-06	0.000000000000000E+000	55015.5	0.000000000000000E+000	0.000000000000000E+000	0.00551968	0.00551968	0.0000000E+000	0.000000000000000E+000	2.13753e-05
1	1	0	1	0	0	3	1343.79	0.056	0.376965	0.0573904	0.008866	0.0203314	0	0.0056476	11	1.64105e-06	0.000000000000000E+000	56304.2	0.000000000000000E+000	0.000000000000000E+000	0.0056476	0.0056476	0.0000000E+000	0.000000000000000E+000	2.16342e-05
1	1	0	1	0	0	3	1351.79	0.056	0.376709	0.0571995	0.00932675	0.0207921	0	0.00577559	11	1.68927e-06	0.000000000000000E+000	57621.1	0.000000000000000E+000	0.000000000000000E+000	0.00577559	0.00577559	0.0000000E+000	0.000000000000000E+000	2.15476e-05
1	1	0	1	0	0	3	1359.79	0.056	0.376331	0.0580267	0.00978747	0.0212528	0	0.00590357	11	1.73745e-06	0.000000000000000E+000	58959.6	0.000000000000000E+000	0.000000000000000E+000	0.00590357	0.00590357	0.0000000E+000	0.000000000000000E+000	2.18372e-05
1	1	0	1	0	0	3	1367.79	0.056	0.375645	0.056436	0.0102481	0.0217135	0	0.00603153	11	1.78554e-06	0.000000000000000E+000	60352.3	0.000000000000000E+000	0.000000000000000E+000	0.00603153	0.00603153	0.0000000E+000	0.000000000000000E+000	2.11999e-05
1	1	0	0	0	0	4	1374.79	0.1	0.396728	0.101483	0.000507197	0.0223359	0	0.00620441	11	1.85224e-06	0.000000000000000E+000	58645.6	0.000000000000000E+000	0.000000000000000E+000	0.00620441	0.00620441	0.0000000E+000	0.000000000000000E+000	4.0261e-05
1	1	0	0	0	0	4	1382.79	0.1	0.419818	0.101864	0.0013183	0.023147	0	0.00642971	11	1.94478e-06	0.000000000000000E+000	57301.3	0.000000000000000E+000	0.000000000000000E+000	0.00642971	0.00642971	0.0000000E+000	0.000000000000000E+000	4.27645e-05
1	1	0	0	0	0	4	1390.79	0.1	0.435339	0.101101	0.00212954	0.0239582	0	0.00665506	11	2.04143e-06	0.000000000000000E+000	57115.1	0.000000000000000E+000	0.000000000000000E+000	0.00665506	0.00665506	0.0000000E+000	0.000000000000000E+000	4.40131e-05
1	1	0	0	0	0	4	1398.79	0.1	0.447065	0.101228	0.00294072	0.0247694	0	0.00688039	11	2.14107e-06	0.000000000000000E+000	57443.1	0.000000000000000E+000	0.000000000000000E+000	0.00688039	0.00688039	0.0000000E+000	0.000000000000000E+000	4.52555e-05
1	1	0	0	0	0	4	1406.79	0.1	0.457518	0.102119	0.00375207	0.0255807	0	0.00710576	11	2.2432e-06	0.000000000000000E+000	57920.6	0.000000000000000E+000	0.000000000000000E+000	0.00710576	0.00710576	0.0000000E+000	0.000000000000000E+000	4.67213e-05
1	1	0	0	0	0	4	1414.79	0.1	0.467139	0.101101	0.00456335	0.026392	0	0.00733111	11	2.34757e-06	0.000000000000000E+000	58483.5	0.000000000000000E+000	0.000000000000000E+000	0.00733111	0.00733111	0.0000000E+000	0.000000000000000E+000	4.72282e-05
1	1	0	0	0	0	4	1422.79	0.1	0.475733	0.101355	0.00537465	0.0272033	0	0.00755648	11	2.45396e-06	0.000000000000000E+000	59154.8	0.000000000000000E+000	0.000000000000000E+000	0.00755648	0.00755648	0.0000000E+000	0.000000000000000E+000	4.82181e-05
1	1	0	0	0	0	4	1430.79	0.1	0.483626	0.100974	0.00618585	0.0280145	0	0.00778181	11	2.56218e-06	0.000000000000000E+000	59890.9	0.000000000000000E+000	0.000000000000000E+000	0.00778181	0.00778181	0.0000000E+000	0.000000000000000E+000	4.88335e-05
1	1	0	0	0	0	4	1438.79	0.1	0.49051	0.101355	0.00699703	0.0288257	0	0.00800714	11	2.67203e-06	0.000000000000000E+000	60731.2	0.000000000000000E+000	0.000000000000000E+000	0.00800714	0.00800714	0.0000000E+000	0.000000000000000E+000	4.97159e-05
1	1	0	0	0	0	4	1446.79	0.1	0.496883	0.101864	0.00780829	0.0296369	0	0.00823249	11	2.7834e-06	0.000000000000000E+000	61613.1	0.000000000000000E+000	0.000000000000000E+000	0.00823249	0.00823249	0.0000000E+000	0.000000000000000E+000	5.06147e-05
1	1	0	0	0	0	4	1454.79	0.1	0.50272	0.100846	0.00861952	0.0304482	0	0.00845783	11	2.89614e-06	0.000000000000000E+000	62540.7	0.000000000000000E+000	0.000000000000000E+000	0.00845783	0.00845783	0.0000000E+000	0.000000000000000E+000	5.06975e-05
1	1	0	0	0	0	4	1462.79	0.1	0.507162	0.100401	0.00943077	0.0312594	0	0.00868318	11	3.01005e-06	0.000000000000000E+000	63626.6	0.000000000000000E+000	0.000000000000000E+000	0.00868318	0.00868318	0.0000000E+000	0.000000000000000E+000	5.09195e-05
1	1	0	0	0	0	4	1470.79	0.1	0.51148	0.101037	0.0102421	0.0320708	0	0.00890855	11	3.1249e-06	0.000000000000000E+000	64709.2	0.000000000000000E+000	0.000000000000000E+000	0.00890855	0.00890855	0.0000000E+000	0.000000000000000E+000	5.16786e-05
1	1	0	0	0	0	4	1478.79	0.1	0.515223	0.101864	0.0110533	0.032882	0	0.00913389	11	3.24064e-06	0.000000000000000E+000	65848.7	0.000000000000000E+000	0.000000000000000E+000	0.00913389	0.00913389	0.0000000E+000	0.000000000000000E+000	5.24829e-05
1	1	0	0	0	0	4	1486.79	0.1	0.5185	0.10161	0.0118646	0.0336932	0	0.00935923	11	3.35716e-06	0.000000000000000E+000	67033.4	0.000000000000000E+000	0.000000000000000E+000	0.00935923	0.00935923	0.0000000E+000	0.000000000000000E+000	5.26847e-05
1	1	0	0	0	0	4	1494.79	0.1	0.521225	0.101037	0.0126759	0.0345046	0	0.00958461	11	3.47437e-06	0.000000000000000E+000	68277.5	0.000000000000000E+000	0.000000000000000E+000	0.00958461	0.00958461	0.0000000E+000	0.000000000000000E+000	5.26632e-05
1	1	0	0	0	0	4	1502.79	0.1	0.523492	0.10091	0.0134872	0.0353159	0	0.00980997	11	3.59213e-06	0.000000000000000E+000	69570.7	0.000000000000000E+000	0.000000000000000E+000	0.00980997	0.00980997	0.0000000E+000	0.000000000000000E+000	5.28256e-05
1	1	0	0	0	0	4	1510.79	0.1	0.525334	0.100974	0.0142985	0.0361271	0	0.0100353	11	3.71034e-06	0.000000000000000E+000	70911.6	0.000000000000000E+000	0.000000000000000E+000	0.0100353	0.0100353	0.0000000E+000	0.000000000000000E+000	5.30449e-05
1	1	0	0	0	0	4	1518.79	0.1	0.527002	0.102437	0.0151096	0.0369383	0	0.0102606	11	3.82894e-06	0.000000000000000E+000	72267.1	0.000000000000000E+000	0.000000000000000E+000	0.0102606	0.0102606	0.0000000E+000	0.000000000000000E+000	5.39845e-05
1	1	0	0	0	0	4	1526.79	0.1	0.528388	0.100656	0.0159209	0.0377496	0	0.010486	11	3.94787e-06	0.000000000000000E+000	73654.6	0.000000000000000E+000	0.000000000000000E+000	0.010486	0.010486	0.0000000E+000	0.000000000000000E+000	5.31851e-05
1	1	0	0	0	0	4	1534.79	0.1	0.529457	0.10091	0.0167322	0.0385609	0	0.0107114	11	4.06708e-06	0.000000000000000E+000	75080.9	0.000000000000000E+000	0.000000000000000E+000	0.0107114	0.0107114	0.0000000E+000	0.000000000000000E+000	5.34275e-05
1	1	0	0	0	0	4	1542.79	0.1	0.530314	0.101483	0.0175435	0.0393721	0	0.0109367	11	4.1865e-06	0.000000000000000E+000	76532.8	0.000000000000000E+000	0.000000000000000E+000	0.0109367	0.0109367	0.0000000E+000	0.000000000000000E+000	5.38177e-05
1	1	0	0	0	0	4	1549.79	0.1	0.526309	0.100974	0.0182533	0.040082	0	0.0111339	11	4.29116e-06	0.000000000000000E+000	78523.9	0.000000000000000E+000	0.000000000000000E+000	0.0111339	0.0111339	0.0000000E+000	0.000000000000000E+000	5.31434e-05
1	1	0	1	0	0	5	1557.79	0.178	0.560905	0.180187	0.00143392	0.0415159	0	0.0115322	11	4.51118e-06	0.000000000000000E+000	76170.5	0.000000000000000E+000	0.000000000000000E+000	0.0115322	0.0115322	0.0000000E+000	0.000000000000000E+000	0.000101068
1	1	0	1	0	0	5	1565.79	0.178	0.564067	0.17936	0.00286786	0.0429498	0	0.0119305	11	4.73547e-06	0.000000000000000E+000	78346.9	0.000000000000000E+000	0.000000000000000E+000	0.0119305	0.0119305	0.0000000E+000	0.000000000000000E+000	0.000101171
1	1	0	1	0	0	5	1573.79	0.178	0.565422	0.178787	0.00430183	0.0443838	0	0.0123288	11	4.96048e-06	0.000000000000000E+000	80763.1	0.000000000000000E+000	0.000000000000000E+000	0.0123288	0.0123288	0.0000000E+000	0.000000000000000E+000	0.00010109
1	1	0	1	0	0	5	1581.79	0.178	0.566238	0.178914	0.00573586	0.0458178	0	0.0127272	11	5.18592e-06	0.000000000000000E+000	83248.8	0.000000000000000E+000	0.000000000000000E+000	0.0127272	0.0127272	0.0000000E+000	0.000000000000000E+000	0.000101308
1	1	0	1	0	0	5	1589.79	0.178	0.56696	0.179805	0.00716992	0.0472519	0	0.0131255	11	5.41167e-06	0.000000000000000E+000	85742	0.000000000000000E+000	0.000000000000000E+000	0.0131255	0.0131255	0.0000000E+000	0.000000000000000E+000	0.000101942
1	1	0	1	0	0	5	1597.79	0.178	0.56754	0.179805	0.00860387	0.0486858	0	0.0135238	11	5.6376e-06	0.000000000000000E+000	88251.2	0.000000000000000E+000	0.000000000000000E+000	0.0135238	0.0135238	0.0000000E+000	0.000000000000000E+000	0.000102047
1	1	0	1	0	0	5	1605.79	0.178	0.567731	0.178914	0.0100378	0.0501198	0	0.0139222	11	5.86369e-06	0.000000000000000E+000	90818.9	0.000000000000000E+000	0.000000000000000E+000	0.0139222	0.0139222	0.0000000E+000	0.000000000000000E+000	0.000101575
1	1	0	1	0	0	5	1613.79	0.178	0.567894	0.179296	0.0114717	0.0515536	0	0.0143205	11	6.08985e-06	0.000000000000000E+000	93389.6	0.000000000000000E+000	0.000000000000000E+000	0.0143205	0.0143205	0.0000000E+000	0.000000000000000E+000	0.000101821
1	1	0	1	0	0	5	1621.79	0.178	0.568309	0.179805	0.0129057	0.0529876	0	0.0147188	11	6.31616e-06	0.000000000000000E+000	95915.2	0.000000000000000E+000	0.000000000000000E+000	0.0147188	0.0147188	0.0000000E+000	0.000000000000000E+000	0.000102185
1	1	0	1	0	0	5	1629.79	0.178	0.568408	0.178851	0.0143397	0.0544217	0	0.0151171	11	6.54255e-06	0.000000000000000E+000	98493.5	0.000000000000000E+000	0.000000000000000E+000	0.0151171	0.0151171	0.0000000E+000	0.000000000000000E+000	0.00010166
1	1	0	1	0	0	5	1637.79	0.178	0.568464	0.179233	0.0157737	0.0558557	0	0.0155155	11	6.76898e-06	0.000000000000000E+000	101078	0.000000000000000E+000	0.000000000000000E+000	0.0155155	0.0155155	0.0000000E+000	0.000000000000000E+000	0.000101887
1	1	0	1	0	0	5	1645.79	0.178	0.5687	0.179869	0.0172076	0.0572896	0	0.0159138	11	6.99546e-06	0.000000000000000E+000	103629	0.000000000000000E+000	0.000000000000000E+000	0.0159138	0.0159138	0.0000000E+000	0.000000000000000E+000	0.000102291
1	1	0	1	0	0	5	1653.79	0.178	0.568762	0.178851	0.0186416	0.0587235	0	0.0163121	11	7.22198e-06	0.000000000000000E+000	106211	0.000000000000000E+000	0.000000000000000E+000	0.0163121	0.0163121	0.0000000E+000	0.000000000000000E+000	0.000101724
1	1	0	1	0	0	5	1661.79	0.178	0.568828	0.179042	0.0200755	0.0601574	0	0.0167104	11	7.44855e-06	0.000000000000000E+000	108791	0.000000000000000E+000	0.000000000000000E+000	0.0167104	0.0167104	0.0000000E+000	0.000000000000000E+000	0.000101844
1	1	0	1	0	0	5	1669.79	0.178	0.568909	0.17866	0.0215094	0.0615914	0	0.0171087	11	7.67514e-06	0.000000000000000E+000	111368	0.000000000000000E+000	0.000000000000000E+000	0.0171087	0.0171087	0.0000000E+000	0.000000000000000E+000	0.000101641
1	1	0	1	0	0	5	1677.79	0.178	0.568943	0.179996	0.0229434	0.0630254	0	0.0175071	11	7.90177e-06	0.000000000000000E+000	113954	0.000000000000000E+000	0.000000000000000E+000	0.0175071	0.0175071	0.0000000E+000	0.000000000000000E+000	0.000102408
1	1	0	1	0	0	5	1685.79	0.178	0.568926	0.179296	0.0243773	0.0644593	0	0.0179054	11	8.12838e-06	0.000000000000000E+000	116550	0.000000000000000E+000	0.000000000000000E+000	0.0179054	0.0179054	0.0000000E+000	0.000000000000000E+000	0.000102006
1	1	0	1	0	0	5	1693.79	0.178	0.569015	0.180123	0.0258113	0.0658933	0	0.0183037	11	8.35503e-06	0.000000000000000E+000	119124	0.000000000000000E+000	0.000000000000000E+000	0.0183037	0.0183037	0.0000000E+000	0.000000000000000E+000	0.000102493
1	1	0	1	0	0	5	1701.79	0.178	0.569085	0.179042	0.0272452	0.0673272	0	0.018702	11	8.58168e-06	0.000000000000000E+000	121701	0.000000000000000E+000	0.000000000000000E+000	0.018702	0.018702	0.0000000E+000	0.000000000000000E+000	0.00010189
1	1	0	1	0	0	5	1709.79	0.178	0.569106	0.17866	0.0286791	0.0687611	0	0.0191003	11	8.80831e-06	0.000000000000000E+000	124288	0.000000000000000E+000	0.000000000000000E+000	0.0191003	0.0191003	0.0000000E+000	0.000000000000000E+000	0.000101676
1	1	0	1	0	0	5	1717.79	0.178	0.569145	0.18006	0.0301128	0.0701948	0	0.0194985	11	9.03497e-06	0.000000000000000E+000	126870	0.000000000000000E+000	0.000000000000000E+000	0.0194985	0.0194985	0.0000000E+000	0.000000000000000E+000	0.00010248
1	1	0	1	0	0	5	1725.79	0.178	0.569253	0.179614	0.0315465	0.0716285	0	0.0198968	11	9.26165e-06	0.000000000000000E+000	129436	0.000000000000000E+000	0.000000000000000E+000	0.0198968	0.0198968	0.0000000E+000	0.000000000000000E+000	0.000102246
1	1	0	0	0	0	6	1732.79	0.316	0.584215	0.317808	0.000952041	0.0732975	0	0.0203604	11	9.52856e-06	0.000000000000000E+000	128966	0.000000000000000E+000	0.000000000000000E+000	0.0203604	0.0203604	0.0000000E+000	0.000000000000000E+000	0.000185668
1	1	0	0	0	0	6	1740.79	0.316	0.585726	0.317363	0.00349096	0.0758364	0	0.0210657	11	9.94149e-06	0.000000000000000E+000	133079	0.000000000000000E+000	0.000000000000000E+000	0.0210657	0.0210657	0.0000000E+000	0.000000000000000E+000	0.000185888
1	1	0	0	0	0	6	1748.79	0.316	0.586026	0.316599	0.00602991	0.0783753	0	0.0217709	11	1.03547e-05	0.000000000000000E+000	137462	0.000000000000000E+000	0.000000000000000E+000	0.0217709	0.0217709	0.0000000E+000	0.000000000000000E+000	0.000185535
1	1	0	0	0	0	6	1756.79	0.316	0.586204	0.317681	0.00856882	0.0809143	0	0.0224762	11	1.07681e-05	0.000000000000000E+000	141871	0.000000000000000E+000	0.000000000000000E+000	0.0224762	0.0224762	0.0000000E+000	0.000000000000000E+000	0.000186226
1	1	0	0	0	0	6	1764.79	0.316	0.586442	0.317935	0.011108	0.0834534	0	0.0231815	11	1.11816e-05	0.000000000000000E+000	146262	0.000000000000000E+000	0.000000000000000E+000	0.0231815	0.0231815	0.0000000E+000	0.000000000000000E+000	0.000186451
1	1	0	0	0	0	6	1772.79	0.316	0.586523	0.317681	0.013647	0.0859924	0	0.0238868	11	1.15952e-05	0.000000000000000E+000	150690	0.000000000000000E+000	0.000000000000000E+000	0.0238868	0.0238868	0.0000000E+000	0.000000000000000E+000	0.000186327
1	1	0	0	0	0	6	1780.79	0.316	0.586492	0.317236	0.0161859	0.0885313	0	0.024592	11	1.20089e-05	0.000000000000000E+000	155148	0.000000000000000E+000	0.000000000000000E+000	0.024592	0.024592	0.0000000E+000	0.000000000000000E+000	0.000186056
1	1	0	0	0	0	6	1788.79	0.316	0.586596	0.317617	0.0187248	0.0910703	0	0.0252973	11	1.24226e-05	0.000000000000000E+000	159568	0.000000000000000E+000	0.000000000000000E+000	0.0252973	0.0252973	0.0000000E+000	0.000000000000000E+000	0.000186313
1	1	0	0	0	0	6	1796.79	0.316	0.586693	0.317999	0.0212638	0.0936093	0	0.0260026	11	1.28364e-05	0.000000000000000E+000	163989	0.000000000000000E+000	0.000000000000000E+000	0.0260026	0.0260026	0.0000000E+000	0.000000000000000E+000	0.000186568
1	1	0	0	0	0	6	1804.79	0.316	0.586718	0.317617	0.0238027	0.0961481	0	0.0267078	11	1.32501e-05	0.000000000000000E+000	168429	0.000000000000000E+000	0.000000000000000E+000	0.0267078	0.0267078	0.0000000E+000	0.000000000000000E+000	0.000186352
1	1	0	0	0	0	6	1812.79	0.316	0.586854	0.317299	0.0263416	0.0986871	0	0.0274131	11	1.3664e-05	0.000000000000000E+000	172836	0.000000000000000E+000	0.000000000000000E+000	0.0274131	0.0274131	0.0000000E+000	0.000000000000000E+000	0.000186208
1	1	0	0	0	0	6	1820.79	0.316	0.586888	0.317872	0.0288806	0.101226	0	0.0281183	11	1.40779e-05	0.000000000000000E+000	177272	0.000000000000000E+000	0.000000000000000E+000	0.0281183	0.0281183	0.0000000E+000	0.000000000000000E+000	0.000186555
1	1	0	0	0	0	6	1828.79	0.316	0.586897	0.317172	0.0314194	0.103765	0	0.0288236	11	1.44918e-05	0.000000000000000E+000	181715	0.000000000000000E+000	0.000000000000000E+000	0.0288236	0.0288236	0.0000000E+000	0.000000000000000E+000	0.000186147
1	1	0	0	0	0	6	1836.79	0.316	0.586947	0.317935	0.0339584	0.106304	0	0.0295288	11	1.49057e-05	0.000000000000000E+000	186145	0.000000000000000E+000	0.000000000000000E+000	0.0295288	0.0295288	0.0000000E+000	0.000000000000000E+000	0.000186611
1	1	0	0	0	0	6	1844.79	0.316	0.587068	0.318063	0.0364973	0.108843	0	0.0302341	11	1.53197e-05	0.000000000000000E+000	190550	0.000000000000000E+000	0.000000000000000E+000	0.0302341	0.0302341	0.0000000E+000	0.000000000000000E+000	0.000186724
1	1	0	0	0	0	6	1852.79	0.316	0.587057	0.31679	0.0390361	0.111382	0	0.0309393	11	1.57337e-05	0.000000000000000E+000	194999	0.000000000000000E+000	0.000000000000000E+000	0.0309393	0.0309393	0.0000000E+000	0.000000000000000E+000	0.000185974
1	1	0	0	0	0	6	1860.79	0.316	0.587074	0.317236	0.0415751	0.11392	0	0.0316446	11	1.61477e-05	0.000000000000000E+000	199438	0.000000000000000E+000	0.000000000000000E+000	0.0316446	0.0316446	0.0000000E+000	0.000000000000000E+000	0.000186241
1	1	0	0	0	0	6	1868.79	0.316	0.587074	0.317999	0.0441141	0.11646	0	0.0323499	11	1.65618e-05	0.000000000000000E+000	203883	0.000000000000000E+000	0.000000000000000E+000	0.0323499	0.0323499	0.0000000E+000	0.000000000000000E+000	0.000186689
1	1	0	0	0	0	6	1876.79	0.316	0.587097	0.318572	0.0466533	0.118999	0	0.0330552	11	1.69759e-05	0.000000000000000E+000	208320	0.000000000000000E+000	0.000000000000000E+000	0.0330552	0.0330552	0.0000000E+000	0.000000000000000E+000	0.000187032
1	1	0	0	0	0	6	1884.79	0.316	0.587006	0.317745	0.0491923	0.121538	0	0.0337605	11	1.73899e-05	0.000000000000000E+000	212799	0.000000000000000E+000	0.000000000000000E+000	0.0337605	0.0337605	0.0000000E+000	0.000000000000000E+000	0.000186518
1	1	0	0	0	0	6	1892.79	0.316	0.587077	0.316981	0.0517315	0.124077	0	0.0344658	11	1.7804e-05	0.000000000000000E+000	217218	0.000000000000000E+000	0.000000000000000E+000	0.0344658	0.0344658	0.0000000E+000	0.000000000000000E+000	0.000186092
1	1	0	0	0	0	6	1900.79	0.316	0.587127	0.317617	0.0542707	0.126616	0	0.0351712	11	1.82182e-05	0.000000000000000E+000	221643	0.000000000000000E+000	0.000000000000000E+000	0.0351712	0.0351712	0.0000000E+000	0.000000000000000E+000	0.000186482
1	1	0	0	0	0	6	1908.79	0.316	0.587144	0.31679	0.0568098	0.129155	0	0.0358765	11	1.86323e-05	0.000000000000000E+000	226081	0.000000000000000E+000	0.000000000000000E+000	0.0358765	0.0358765	0.0000000E+000	0.000000000000000E+000	0.000186001
1	1	0	1	0	0	7	1915.79	0.562	0.601637	0.564038	0.00338103	0.132854	0	0.0369038	11	1.92479e-05	0.000000000000000E+000	226802	0.000000000000000E+000	0.000000000000000E+000	0.0369038	0.0369038	0.0000000E+000	0.000000000000000E+000	0.000339346
1	1	0	1	0	0	7	1923.79	0.562	0.601757	0.562765	0.00788919	0.137362	0	0.0381561	11	2.00014e-05	0.000000000000000E+000	234450	0.000000000000000E+000	0.000000000000000E+000	0.0381561	0.0381561	0.0000000E+000	0.000000000000000E+000	0.000338648
1	1	0	1	0	0	7	1931.79	0.562	0.60188	0.563147	0.0123974	0.14187	0	0.0394084	11	2.07551e-05	0.000000000000000E+000	242093	0.000000000000000E+000	0.000000000000000E+000	0.0394084	0.0394084	0.0000000E+000	0.000000000000000E+000	0.000338947
1	1	0	1	0	0	7	1939.79	0.562	0.602043	0.564992	0.0169056	0.146378	0	0.0406606	11	2.15089e-05	0.000000000000000E+000	249717	0.000000000000000E+000	0.000000000000000E+000	0.0406606	0.0406606	0.0000000E+000	0.000000000000000E+000	0.00034015
1	1	0	1	0	0	7	1947.79	0.562	0.602072	0.563592	0.0214138	0.150887	0	0.0419129	11	2.22628e-05	0.000000000000000E+000	257395	0.000000000000000E+000	0.000000000000000E+000	0.0419129	0.0419129	0.0000000E+000	0.000000000000000E+000	0.000339323
1	1	0	1	0	0	7	1955.79	0.562	0.602154	0.563529	0.0259222	0.155395	0	0.0431652	11	2.30169e-05	0.000000000000000E+000	265049	0.000000000000000E+000	0.000000000000000E+000	0.0431652	0.0431652	0.0000000E+000	0.000000000000000E+000	0.000339331
1	1	0	1	0	0	7	1963.79	0.562	0.602247	0.563465	0.0304304	0.159903	0	0.0444175	11	2.3771e-05	0.000000000000000E+000	272695	0.000000000000000E+000	0.000000000000000E+000	0.0444175	0.0444175	0.0000000E+000	0.000000000000000E+000	0.000339345
1	1	0	1	0	0	7	1971.79	0.562	0.60234	0.564547	0.0349388	0.164411	0	0.0456699	11	2.45252e-05	0.000000000000000E+000	280339	0.000000000000000E+000	0.000000000000000E+000	0.0456699	0.0456699	0.0000000E+000	0.000000000000000E+000	0.000340049
1	1	0	1	0	0	7	1979.79	0.562	0.602332	0.563529	0.039447	0.16892	0	0.0469221	11	2.52795e-05	0.000000000000000E+000	288030	0.000000000000000E+000	0.000000000000000E+000	0.0469221	0.0469221	0.0000000E+000	0.000000000000000E+000	0.000339432
1	1	0	1	0	0	7	1987.79	0.562	0.602348	0.563274	0.0439552	0.173428	0	0.0481744	11	2.60338e-05	0.000000000000000E+000	295709	0.000000000000000E+000	0.000000000000000E+000	0.0481744	0.0481744	0.0000000E+000	0.000000000000000E+000	0.000339287
1	1	0	1	0	0	7	1995.79	0.562	0.602431	0.563592	0.0484633	0.177936	0	0.0494267	11	2.67882e-05	0.000000000000000E+000	303352	0.000000000000000E+000	0.000000000000000E+000	0.0494267	0.0494267	0.0000000E+000	0.000000000000000E+000	0.000339526
1	1	0	1	0	0	7	2003.79	0.562	0.60246	0.56321	0.0529714	0.182444	0	0.0506789	11	2.75427e-05	0.000000000000000E+000	311023	0.000000000000000E+000	0.000000000000000E+000	0.0506789	0.0506789	0.0000000E+000	0.000000000000000E+000	0.000339312
1	1	0	1	0	0	7	2011.79	0.562	0.60257	0.56321	0.0574794	0.186952	0	0.0519311	11	2.82971e-05	0.000000000000000E+000	318648	0.000000000000000E+000	0.000000000000000E+000	0.0519311	0.0519311	0.0000000E+000	0.000000000000000E+000	0.000339374
1	1	0	1	0	0	7	2019.79	0.562	0.602665	0.56391	0.0619876	0.19146	0	0.0531834	11	2.90517e-05	0.000000000000000E+000	326279	0.000000000000000E+000	0.000000000000000E+000	0.0531834	0.0531834	0.0000000E+000	0.000000000000000E+000	0.000339849
1	1	0	1	0	0	7	2027.79	0.562	0.602671	0.563465	0.0664954	0.195968	0	0.0544356	11	2.98062e-05	0.000000000000000E+000	333958	0.000000000000000E+000	0.000000000000000E+000	0.0544356	0.0544356	0.0000000E+000	0.000000000000000E+000	0.000339584
1	1	0	1	0	0	7	2035.79	0.562	0.602582	0.563529	0.0710035	0.200476	0	0.0556878	11	3.05609e-05	0.000000000000000E+000	341692	0.000000000000000E+000	0.000000000000000E+000	0.0556878	0.0556878	0.0000000E+000	0.000000000000000E+000	0.000339572
1	1	0	1	0	0	7	2043.79	0.562	0.602586	0.56302	0.0755116	0.204984	0	0.0569401	11	3.13155e-05	0.000000000000000E+000	349374	0.000000000000000E+000	0.000000000000000E+000	0.0569401	0.0569401	0.0000000E+000	0.000000000000000E+000	0.000339268
1	1	0	1	0	0	7	2051.79	0.562	0.602674	0.563719	0.0800198	0.209492	0	0.0581923	11	3.20702e-05	0.000000000000000E+000	357004	0.000000000000000E+000	0.000000000000000E+000	0.0581923	0.0581923	0.0000000E+000	0.000000000000000E+000	0.000339739
1	1	0	1	0	0	7	2059.79	0.562	0.602463	0.563719	0.0845279	0.214001	0	0.0594446	11	3.28249e-05	0.000000000000000E+000	364817	0.000000000000000E+000	0.000000000000000E+000	0.0594446	0.0594446	0.0000000E+000	0.000000000000000E+000	0.00033962
1	1	0	1	0	0	7	2067.79	0.562	0.602647	0.563083	0.0890361	0.218509	0	0.0606969	11	3.35796e-05	0.000000000000000E+000	372386	0.000000000000000E+000	0.000000000000000E+000	0.0606969	0.0606969	0.0000000E+000	0.000000000000000E+000	0.00033934
1	1	0	1	0	0	7	2075.79	0.562	0.602764	0.563401	0.0935442	0.223017	0	0.0619491	11	3.43343e-05	0.000000000000000E+000	379993	0.000000000000000E+000	0.000000000000000E+000	0.0619491	0.0619491	0.0000000E+000	0.000000000000000E+000	0.000339598
1	1	0	1	0	0	7	2083.79	0.562	0.602682	0.563338	0.0980524	0.227525	0	0.0632014	11	3.5089e-05	0.000000000000000E+000	387728	0.000000000000000E+000	0.000000000000000E+000	0.0632014	0.0632014	0.0000000E+000	0.000000000000000E+000	0.000339514
1	1	0	0	1	0	8	2090.79	1	0.613419	1.00248	0.00100121	0.231907	0	0.0644187	11	3.58257e-05	0.000000000000000E+000	388096	0.000000000000000E+000	0.000000000000000E+000	0.0644187	0.0644187	0.0000000E+000	0.000000000000000E+000	0.000614939
1	1	0	0	0	0	8	2098.79	1	0.617302	1.00127	0.00901171	0.239918	0	0.0666439	11	3.71991e-05	0.000000000000000E+000	398908	0.000000000000000E+000	0.000000000000000E+000	0.0666439	0.0666439	0.0000000E+000	0.000000000000000E+000	0.000618086
1	1	0	0	0	0	8	2106.79	1	0.617359	1.00184	0.0170223	0.247929	0	0.0688691	11	3.85727e-05	0.000000000000000E+000	412189	0.000000000000000E+000	0.000000000000000E+000	0.0688691	0.0688691	0.0000000E+000	0.000000000000000E+000	0.000618496
1	1	0	0	0	0	8	2114.79	1	0.617502	1.0014	0.0250328	0.255939	0	0.0710942	11	3.99467e-05	0.000000000000000E+000	425405	0.000000000000000E+000	0.000000000000000E+000	0.0710942	0.0710942	0.0000000E+000	0.000000000000000E+000	0.000618365
1	1	0	0	0	0	8	2121.79	1	0.617607	1.00222	0.032042	0.262948	0	0.0730412	11	4.1149e-05	0.000000000000000E+000	436979	0.000000000000000E+000	0.000000000000000E+000	0.0730412	0.0730412	0.0000000E+000	0.000000000000000E+000	0.000618981