File: Data_1mg/2022_01_26 IrOx 1mg  ref309 elect1 bulk_C02.mpt
EC-Lab ASCII FILE
Nb header lines : 52

Chronopotentiometry

Run on channel : 2 (SN 12477)
User :
CE vs. WE compliance from -10 V to 10 V
Electrode connection : standard
Potential control : Ewe
Ewe ctrl range : min = -2.50 V, max = 2.50 V
Safety Limits :
	Do not start on E overload
Acquisition started on : 01/26/2023 12:36:19.187
Loaded Setting File :  C:\Users\grupogalan\Documents\EC-Lab\Data\Scott\_cyclic_pause_cp2hr.mps
Saved on :
	File : 2022_01_26 IrOx 1mg  ref309 elect1 bulk_C02.mpr
	Directory : C:\Users\grupogalan\Documents\EC-Lab\Data\Scott\
	Host : 169.254.104.159
Device : VSP (SN 1176)
Address : USB
EC-Lab for windows v11.46 (software)
Internet server v11.40 (firmware)
Command interpretor v11.40 (firmware)
Electrode material :
Initial state :
Electrolyte :
Comments :
Electrode surface area : 0.000 cm²
Characteristic mass : 0.001 g
Equivalent Weight : 0.000 g/eq.
Density : 0.000 g/cm3
Volume (V) : 0.001 cm³
Cycle Definition : Charge/Discharge alternance
Is                  10.000
unit Is             mA
vs.                 <None>
ts (h:m:s)          2:00:0.0000
EM (V)              pass
dQM                 20.000
unit dQM            mA.h
record              <Ewe>
dEs (mV)            0.00
dts (s)             1.0000
E range min (V)     -2.500
E range max (V)     2.500
I Range             10 mA
Bandwidth           5
goto Ns'            0
nc cycles           0

mode	ox/red	error	control changes	Ns changes	counter inc.	Ns	time/s	control/mA	<Ewe>/V	I/mA	dQ/C	(Q-Qo)/C	half cycle	Q charge/discharge/mA.h	I Range	Energy charge/W.h	Energy discharge/W.h	Capacitance charge/µF	Capacitance discharge/µF	Q discharge/mA.h	Q charge/mA.h	Capacity/mA.h	Efficiency/%	cycle number	P/W
1	1	0	1	0	0	0	1	10	0.374959	10.0014	0.00949926	0.00949926	0	0.00263868	11	9.89399e-07	0.000000000000000E+000	0.000000000000000E+000	0.000000000000000E+000	0.000000000000000E+000	0.00263868	0.00263868	0.0000000E+000	0.000000000000000E+000	0.00375013
1	1	0	1	0	0	0	34	10	0.725561	10.0013	0.339545	0.339545	0	0.0943181	11	6.62043e-05	0.000000000000000E+000	968463	0.000000000000000E+000	0.000000000000000E+000	0.0943181	0.0943181	0.0000000E+000	0.000000000000000E+000	0.00725656
1	1	0	1	0	0	0	67	10	0.740604	10.0012	0.669591	0.669591	0	0.185998	11	0.000133501	0.000000000000000E+000	1.83126e+06	0.000000000000000E+000	0.000000000000000E+000	0.185998	0.185998	0.0000000E+000	0.000000000000000E+000	0.00740696
1	1	0	1	0	0	0	100	10	0.748409	10.0012	0.999637	0.999637	0	0.277677	11	0.000201801	0.000000000000000E+000	2.67676e+06	0.000000000000000E+000	0.000000000000000E+000	0.277677	0.277677	0.0000000E+000	0.000000000000000E+000	0.00748497
1	1	0	1	0	0	0	133	10	0.754257	10.0018	1.32968	1.32968	0	0.369356	11	0.000270714	0.000000000000000E+000	3.50565e+06	0.000000000000000E+000	0.000000000000000E+000	0.369356	0.369356	0.0000000E+000	0.000000000000000E+000	0.00754394
1	1	0	1	0	0	0	166	10	0.75854	10.0019	1.65973	1.65973	0	0.461036	11	0.000340052	0.000000000000000E+000	4.32694e+06	0.000000000000000E+000	0.000000000000000E+000	0.461036	0.461036	0.0000000E+000	0.000000000000000E+000	0.00758682
1	1	0	1	0	0	0	199	10	0.761901	10.002	1.98977	1.98977	0	0.552715	11	0.000409775	0.000000000000000E+000	5.14231e+06	0.000000000000000E+000	0.000000000000000E+000	0.552715	0.552715	0.0000000E+000	0.000000000000000E+000	0.00762054
1	1	0	1	0	0	0	232	10	0.765481	10.0016	2.31982	2.31982	0	0.644394	11	0.000479807	0.000000000000000E+000	5.94031e+06	0.000000000000000E+000	0.000000000000000E+000	0.644394	0.644394	0.0000000E+000	0.000000000000000E+000	0.00765605
1	1	0	1	0	0	0	265	10	0.768168	10.0013	2.64987	2.64987	0	0.736074	11	0.000550122	0.000000000000000E+000	6.73908e+06	0.000000000000000E+000	0.000000000000000E+000	0.736074	0.736074	0.0000000E+000	0.000000000000000E+000	0.00768268
1	1	0	1	0	0	0	298	10	0.770699	10.0014	2.97991	2.97991	0	0.827753	11	0.000620686	0.000000000000000E+000	7.52997e+06	0.000000000000000E+000	0.000000000000000E+000	0.827753	0.827753	0.0000000E+000	0.000000000000000E+000	0.0077081
1	1	0	1	0	0	0	331	10	0.772905	10.0016	3.30996	3.30996	0	0.919432	11	0.000691467	0.000000000000000E+000	8.3176e+06	0.000000000000000E+000	0.000000000000000E+000	0.919432	0.919432	0.0000000E+000	0.000000000000000E+000	0.00773031
1	1	0	1	0	0	0	364	10	0.775096	10.0002	3.64	3.64	0	1.01111	11	0.00076243	0.000000000000000E+000	9.0969e+06	0.000000000000000E+000	0.000000000000000E+000	1.01111	1.01111	0.0000000E+000	0.000000000000000E+000	0.00775108
1	1	0	1	0	0	0	397	10	0.777021	10.0023	3.97005	3.97005	0	1.10279	11	0.000833584	0.000000000000000E+000	9.87423e+06	0.000000000000000E+000	0.000000000000000E+000	1.10279	1.10279	0.0000000E+000	0.000000000000000E+000	0.00777201
1	1	0	1	0	0	0	430	10	0.779195	10.0011	4.30009	4.30009	0	1.19447	11	0.000904929	0.000000000000000E+000	1.06376e+07	0.000000000000000E+000	0.000000000000000E+000	1.19447	1.19447	0.0000000E+000	0.000000000000000E+000	0.00779281
1	1	0	1	0	0	0	463	10	0.781529	10.0013	4.63014	4.63014	0	1.28615	11	0.000976475	0.000000000000000E+000	1.13883e+07	0.000000000000000E+000	0.000000000000000E+000	1.28615	1.28615	0.0000000E+000	0.000000000000000E+000	0.00781631
1	1	0	1	0	0	0	496	10	0.783458	10.002	4.96018	4.96018	0	1.37783	11	0.00104821	0.000000000000000E+000	1.21425e+07	0.000000000000000E+000	0.000000000000000E+000	1.37783	1.37783	0.0000000E+000	0.000000000000000E+000	0.00783615
1	1	0	1	0	0	0	529	10	0.78511	10.001	5.29023	5.29023	0	1.46951	11	0.0011201	0.000000000000000E+000	1.28983e+07	0.000000000000000E+000	0.000000000000000E+000	1.46951	1.46951	0.0000000E+000	0.000000000000000E+000	0.00785187
1	1	0	1	0	0	0	562	10	0.787112	10.0004	5.62027	5.62027	0	1.56119	11	0.00119217	0.000000000000000E+000	1.36364e+07	0.000000000000000E+000	0.000000000000000E+000	1.56119	1.56119	0.0000000E+000	0.000000000000000E+000	0.00787144
1	1	0	1	0	0	0	595	10	0.789003	10.0012	5.95032	5.95032	0	1.65287	11	0.00126441	0.000000000000000E+000	1.43712e+07	0.000000000000000E+000	0.000000000000000E+000	1.65287	1.65287	0.0000000E+000	0.000000000000000E+000	0.00789096
1	1	0	1	0	0	0	628	10	0.790423	10.002	6.28036	6.28036	0	1.74454	11	0.0013368	0.000000000000000E+000	1.51165e+07	0.000000000000000E+000	0.000000000000000E+000	1.74454	1.74454	0.0000000E+000	0.000000000000000E+000	0.00790581
1	1	0	1	0	0	0	661	10	0.791857	10.001	6.61041	6.61041	0	1.83622	11	0.00140933	0.000000000000000E+000	1.58562e+07	0.000000000000000E+000	0.000000000000000E+000	1.83622	1.83622	0.0000000E+000	0.000000000000000E+000	0.00791935
1	1	0	1	0	0	0	694	10	0.793374	10.0009	6.94045	6.94045	0	1.9279	11	0.00148199	0.000000000000000E+000	1.65875e+07	0.000000000000000E+000	0.000000000000000E+000	1.9279	1.9279	0.0000000E+000	0.000000000000000E+000	0.00793442
1	1	0	1	0	0	0	727	10	0.795025	10.001	7.2705	7.2705	0	2.01958	11	0.00155481	0.000000000000000E+000	1.7308e+07	0.000000000000000E+000	0.000000000000000E+000	2.01958	2.01958	0.0000000E+000	0.000000000000000E+000	0.00795104
1	1	0	1	0	0	0	760	10	0.796689	10.001	7.60054	7.60054	0	2.11126	11	0.0016278	0.000000000000000E+000	1.80223e+07	0.000000000000000E+000	0.000000000000000E+000	2.11126	2.11126	0.0000000E+000	0.000000000000000E+000	0.00796768
1	1	0	1	0	0	0	793	10	0.798381	10.0019	7.93059	7.93059	0	2.20294	11	0.00170092	0.000000000000000E+000	1.87297e+07	0.000000000000000E+000	0.000000000000000E+000	2.20294	2.20294	0.0000000E+000	0.000000000000000E+000	0.00798536
1	1	0	1	0	0	0	826	10	0.800323	10.0014	8.26063	8.26063	0	2.29462	11	0.00177422	0.000000000000000E+000	1.94202e+07	0.000000000000000E+000	0.000000000000000E+000	2.29462	2.29462	0.0000000E+000	0.000000000000000E+000	0.00800433
1	1	0	1	0	0	0	859	10	0.801962	10.0009	8.59068	8.59068	0	2.3863	11	0.00184765	0.000000000000000E+000	2.01185e+07	0.000000000000000E+000	0.000000000000000E+000	2.3863	2.3863	0.0000000E+000	0.000000000000000E+000	0.00802036
1	1	0	1	0	0	0	892	10	0.802434	10.0017	8.92072	8.92072	0	2.47798	11	0.00192123	0.000000000000000E+000	2.08684e+07	0.000000000000000E+000	0.000000000000000E+000	2.47798	2.47798	0.0000000E+000	0.000000000000000E+000	0.00802574
1	1	0	1	0	0	0	925	10	0.804835	10.0011	9.25077	9.25077	0	2.56966	11	0.00199492	0.000000000000000E+000	2.15196e+07	0.000000000000000E+000	0.000000000000000E+000	2.56966	2.56966	0.0000000E+000	0.000000000000000E+000	0.00804925
1	1	0	1	0	0	0	958	10	0.806613	10.0015	9.58081	9.58081	0	2.66134	11	0.00206879	0.000000000000000E+000	2.21956e+07	0.000000000000000E+000	0.000000000000000E+000	2.66134	2.66134	0.0000000E+000	0.000000000000000E+000	0.00806734
1	1	0	1	0	0	0	991	10	0.808373	10.0014	9.91086	9.91086	0	2.75302	11	0.00214282	0.000000000000000E+000	2.2867e+07	0.000000000000000E+000	0.000000000000000E+000	2.75302	2.75302	0.0000000E+000	0.000000000000000E+000	0.00808483
1	1	0	1	0	0	0	1024	10	0.810136	10.0016	10.2409	10.2409	0	2.84469	11	0.00221701	0.000000000000000E+000	2.35327e+07	0.000000000000000E+000	0.000000000000000E+000	2.84469	2.84469	0.0000000E+000	0.000000000000000E+000	0.00810268
1	1	0	1	0	0	0	1057	10	0.811309	10.001	10.5709	10.5709	0	2.93637	11	0.00229134	0.000000000000000E+000	2.42258e+07	0.000000000000000E+000	0.000000000000000E+000	2.93637	2.93637	0.0000000E+000	0.000000000000000E+000	0.00811389
1	1	0	1	0	0	0	1090	10	0.812115	10.0014	10.901	10.901	0	3.02805	11	0.0023658	0.000000000000000E+000	2.49362e+07	0.000000000000000E+000	0.000000000000000E+000	3.02805	3.02805	0.0000000E+000	0.000000000000000E+000	0.00812226
1	1	0	1	0	0	0	1123	10	0.814409	10.0009	11.231	11.231	0	3.11973	11	0.00244038	0.000000000000000E+000	2.5557e+07	0.000000000000000E+000	0.000000000000000E+000	3.11973	3.11973	0.0000000E+000	0.000000000000000E+000	0.00814479
1	1	0	1	0	0	0	1156	10	0.815657	10.0018	11.5611	11.5611	0	3.21141	11	0.00251512	0.000000000000000E+000	2.62336e+07	0.000000000000000E+000	0.000000000000000E+000	3.21141	3.21141	0.0000000E+000	0.000000000000000E+000	0.00815805
1	1	0	1	0	0	0	1189	10	0.817886	10.0014	11.8911	11.8911	0	3.30309	11	0.00259	0.000000000000000E+000	2.68467e+07	0.000000000000000E+000	0.000000000000000E+000	3.30309	3.30309	0.0000000E+000	0.000000000000000E+000	0.00817998
1	1	0	1	0	0	0	1222	10	0.819675	10.0028	12.2212	12.2212	0	3.39477	11	0.00266507	0.000000000000000E+000	2.74809e+07	0.000000000000000E+000	0.000000000000000E+000	3.39477	3.39477	0.0000000E+000	0.000000000000000E+000	0.00819901
1	1	0	1	0	0	0	1255	10	0.82135	10.0013	12.5512	12.5512	0	3.48645	11	0.0027403	0.000000000000000E+000	2.81171e+07	0.000000000000000E+000	0.000000000000000E+000	3.48645	3.48645	0.0000000E+000	0.000000000000000E+000	0.00821457
1	1	0	1	0	0	0	1288	10	0.822718	10.0019	12.8813	12.8813	0	3.57813	11	0.00281567	0.000000000000000E+000	2.87683e+07	0.000000000000000E+000	0.000000000000000E+000	3.57813	3.57813	0.0000000E+000	0.000000000000000E+000	0.00822872
1	1	0	1	0	0	0	1321	10	0.824624	10.0009	13.2113	13.2113	0	3.66981	11	0.00289119	0.000000000000000E+000	2.93803e+07	0.000000000000000E+000	0.000000000000000E+000	3.66981	3.66981	0.0000000E+000	0.000000000000000E+000	0.008247
1	1	0	1	0	0	0	1354	10	0.826144	10.0014	13.5414	13.5414	0	3.76149	11	0.00296686	0.000000000000000E+000	3.00129e+07	0.000000000000000E+000	0.000000000000000E+000	3.76149	3.76149	0.0000000E+000	0.000000000000000E+000	0.00826257
1	1	0	1	0	0	0	1387	10	0.827969	10.0015	13.8714	13.8714	0	3.85317	11	0.00304269	0.000000000000000E+000	3.06205e+07	0.000000000000000E+000	0.000000000000000E+000	3.85317	3.85317	0.0000000E+000	0.000000000000000E+000	0.00828093
1	1	0	1	0	0	0	1420	10	0.829401	10.0007	14.2014	14.2014	0	3.94485	11	0.00311866	0.000000000000000E+000	3.12503e+07	0.000000000000000E+000	0.000000000000000E+000	3.94485	3.94485	0.0000000E+000	0.000000000000000E+000	0.00829462
1	1	0	1	0	0	0	1453	10	0.83111	10.0019	14.5315	14.5315	0	4.03652	11	0.00319478	0.000000000000000E+000	3.18568e+07	0.000000000000000E+000	0.000000000000000E+000	4.03652	4.03652	0.0000000E+000	0.000000000000000E+000	0.00831266
1	1	0	1	0	0	0	1486	10	0.832978	10.0014	14.8615	14.8615	0	4.1282	11	0.00327105	0.000000000000000E+000	3.24474e+07	0.000000000000000E+000	0.000000000000000E+000	4.1282	4.1282	0.0000000E+000	0.000000000000000E+000	0.00833092
1	1	0	1	0	0	0	1519	10	0.834403	10.0014	15.1916	15.1916	0	4.21988	11	0.00334749	0.000000000000000E+000	3.30651e+07	0.000000000000000E+000	0.000000000000000E+000	4.21988	4.21988	0.0000000E+000	0.000000000000000E+000	0.00834523
1	1	0	1	0	0	0	1552	10	0.835974	10.0017	15.5216	15.5216	0	4.31156	11	0.00342408	0.000000000000000E+000	3.36684e+07	0.000000000000000E+000	0.000000000000000E+000	4.31156	4.31156	0.0000000E+000	0.000000000000000E+000	0.00836115
1	1	0	1	0	0	0	1585	10	0.837668	10.0011	15.8517	15.8517	0	4.40324	11	0.00350081	0.000000000000000E+000	3.42584e+07	0.000000000000000E+000	0.000000000000000E+000	4.40324	4.40324	0.0000000E+000	0.000000000000000E+000	0.00837761
1	1	0	1	0	0	0	1618	10	0.839698	10.0014	16.1817	16.1817	0	4.49492	11	0.00357771	0.000000000000000E+000	3.4819e+07	0.000000000000000E+000	0.000000000000000E+000	4.49492	4.49492	0.0000000E+000	0.000000000000000E+000	0.00839818
1	1	0	1	0	0	0	1651	10	0.84134	10.0006	16.5118	16.5118	0	4.5866	11	0.00365477	0.000000000000000E+000	3.54041e+07	0.000000000000000E+000	0.000000000000000E+000	4.5866	4.5866	0.0000000E+000	0.000000000000000E+000	0.00841391
1	1	0	1	0	0	0	1684	10	0.843122	10.0012	16.8418	16.8418	0	4.67828	11	0.00373199	0.000000000000000E+000	3.59742e+07	0.000000000000000E+000	0.000000000000000E+000	4.67828	4.67828	0.0000000E+000	0.000000000000000E+000	0.00843221
1	1	0	1	0	0	0	1717	10	0.844952	10.0013	17.1718	17.1718	0	4.76996	11	0.00380937	0.000000000000000E+000	3.65364e+07	0.000000000000000E+000	0.000000000000000E+000	4.76996	4.76996	0.0000000E+000	0.000000000000000E+000	0.00845062
1	1	0	1	0	0	0	1750	10	0.846381	10.0014	17.5019	17.5019	0	4.86164	11	0.00388689	0.000000000000000E+000	3.71258e+07	0.000000000000000E+000	0.000000000000000E+000	4.86164	4.86164	0.0000000E+000	0.000000000000000E+000	0.00846502
1	1	0	1	0	0	0	1783	10	0.848488	10.0012	17.8319	17.8319	0	4.95332	11	0.00396459	0.000000000000000E+000	3.76576e+07	0.000000000000000E+000	0.000000000000000E+000	4.95332	4.95332	0.0000000E+000	0.000000000000000E+000	0.00848588
1	1	0	1	0	0	0	1816	10	0.850506	10.001	18.162	18.162	0	5.045	11	0.00404248	0.000000000000000E+000	3.81918e+07	0.000000000000000E+000	0.000000000000000E+000	5.045	5.045	0.0000000E+000	0.000000000000000E+000	0.0085059
1	1	0	1	0	0	0	1849	10	0.852346	10.002	18.492	18.492	0	5.13667	11	0.00412055	0.000000000000000E+000	3.87359e+07	0.000000000000000E+000	0.000000000000000E+000	5.13667	5.13667	0.0000000E+000	0.000000000000000E+000	0.00852517
1	1	0	1	0	0	0	1882	10	0.854061	10.0019	18.8221	18.8221	0	5.22835	11	0.00419877	0.000000000000000E+000	3.92862e+07	0.000000000000000E+000	0.000000000000000E+000	5.22835	5.22835	0.0000000E+000	0.000000000000000E+000	0.00854227
1	1	0	1	0	0	0	1915	10	0.85651	10.0016	19.1521	19.1521	0	5.32003	11	0.00427719	0.000000000000000E+000	3.97717e+07	0.000000000000000E+000	0.000000000000000E+000	5.32003	5.32003	0.0000000E+000	0.000000000000000E+000	0.00856649
1	1	0	1	0	0	0	1948	10	0.858211	10.0011	19.4822	19.4822	0	5.41171	11	0.00435578	0.000000000000000E+000	4.03148e+07	0.000000000000000E+000	0.000000000000000E+000	5.41171	5.41171	0.0000000E+000	0.000000000000000E+000	0.00858306
1	1	0	1	0	0	0	1981	10	0.860017	10.0021	19.8122	19.8122	0	5.50339	11	0.00443454	0.000000000000000E+000	4.08451e+07	0.000000000000000E+000	0.000000000000000E+000	5.50339	5.50339	0.0000000E+000	0.000000000000000E+000	0.008602
1	1	0	1	0	0	0	2014	10	0.86208	10.0021	20.1423	20.1423	0	5.59507	11	0.00451348	0.000000000000000E+000	4.13496e+07	0.000000000000000E+000	0.000000000000000E+000	5.59507	5.59507	0.0000000E+000	0.000000000000000E+000	0.00862258
1	1	0	1	0	0	0	2047	10	0.864358	10.0015	20.4723	20.4723	0	5.68675	11	0.00459262	0.000000000000000E+000	4.18315e+07	0.000000000000000E+000	0.000000000000000E+000	5.68675	5.68675	0.0000000E+000	0.000000000000000E+000	0.00864487
1	1	0	1	0	0	0	2080	10	0.866207	10.0014	20.8023	20.8023	0	5.77843	11	0.00467195	0.000000000000000E+000	4.2346e+07	0.000000000000000E+000	0.000000000000000E+000	5.77843	5.77843	0.0000000E+000	0.000000000000000E+000	0.00866325
1	1	0	1	0	0	0	2113	10	0.867975	10.0016	21.1324	21.1324	0	5.87011	11	0.00475145	0.000000000000000E+000	4.28635e+07	0.000000000000000E+000	0.000000000000000E+000	5.87011	5.87011	0.0000000E+000	0.000000000000000E+000	0.0086811
1	1	0	1	0	0	0	2146	10	0.870207	10.0017	21.4624	21.4624	0	5.96179	11	0.00483111	0.000000000000000E+000	4.33368e+07	0.000000000000000E+000	0.000000000000000E+000	5.96179	5.96179	0.0000000E+000	0.000000000000000E+000	0.00870353
1	1	0	1	0	0	0	2179	10	0.872146	10.0021	21.7925	21.7925	0	6.05347	11	0.00491097	0.000000000000000E+000	4.38316e+07	0.000000000000000E+000	0.000000000000000E+000	6.05347	6.05347	0.0000000E+000	0.000000000000000E+000	0.00872332
1	1	0	1	0	0	0	2212	10	0.874615	10.0007	22.1225	22.1225	0	6.14515	11	0.00499104	0.000000000000000E+000	4.42755e+07	0.000000000000000E+000	0.000000000000000E+000	6.14515	6.14515	0.0000000E+000	0.000000000000000E+000	0.00874679
1	1	0	1	0	0	0	2245	10	0.876548	10.002	22.4526	22.4526	0	6.23683	11	0.00507132	0.000000000000000E+000	4.47629e+07	0.000000000000000E+000	0.000000000000000E+000	6.23683	6.23683	0.0000000E+000	0.000000000000000E+000	0.00876724
1	1	0	1	0	0	0	2278	10	0.878648	10.0016	22.7826	22.7826	0	6.3285	11	0.00515176	0.000000000000000E+000	4.52316e+07	0.000000000000000E+000	0.000000000000000E+000	6.3285	6.3285	0.0000000E+000	0.000000000000000E+000	0.0087879
1	1	0	1	0	0	0	2311	10	0.880795	10.0017	23.1127	23.1127	0	6.42018	11	0.00523241	0.000000000000000E+000	4.56921e+07	0.000000000000000E+000	0.000000000000000E+000	6.42018	6.42018	0.0000000E+000	0.000000000000000E+000	0.00880943
1	1	0	1	0	0	0	2344	10	0.882963	10.0011	23.4427	23.4427	0	6.51186	11	0.00531327	0.000000000000000E+000	4.61468e+07	0.000000000000000E+000	0.000000000000000E+000	6.51186	6.51186	0.0000000E+000	0.000000000000000E+000	0.00883061
1	1	0	1	0	0	0	2377	10	0.885087	10.0014	23.7728	23.7728	0	6.60354	11	0.00539432	0.000000000000000E+000	4.66016e+07	0.000000000000000E+000	0.000000000000000E+000	6.60354	6.60354	0.0000000E+000	0.000000000000000E+000	0.00885213
1	1	0	1	0	0	0	2410	10	0.887512	10.0019	24.1028	24.1028	0	6.69522	11	0.00547558	0.000000000000000E+000	4.70251e+07	0.000000000000000E+000	0.000000000000000E+000	6.69522	6.69522	0.0000000E+000	0.000000000000000E+000	0.00887678
1	1	0	1	0	0	0	2443	10	0.88984	10.0015	24.4328	24.4328	0	6.7869	11	0.00555705	0.000000000000000E+000	4.74535e+07	0.000000000000000E+000	0.000000000000000E+000	6.7869	6.7869	0.0000000E+000	0.000000000000000E+000	0.00889973
1	1	0	1	0	0	0	2476	10	0.891839	10.0013	24.7629	24.7629	0	6.87858	11	0.00563872	0.000000000000000E+000	4.79084e+07	0.000000000000000E+000	0.000000000000000E+000	6.87858	6.87858	0.0000000E+000	0.000000000000000E+000	0.00891955
1	1	0	1	0	0	0	2509	10	0.894592	10.0012	25.0929	25.0929	0	6.97026	11	0.00572063	0.000000000000000E+000	4.82898e+07	0.000000000000000E+000	0.000000000000000E+000	6.97026	6.97026	0.0000000E+000	0.000000000000000E+000	0.00894703
1	1	0	1	0	0	0	2542	10	0.896599	10.0016	25.423	25.423	0	7.06194	11	0.00580276	0.000000000000000E+000	4.87367e+07	0.000000000000000E+000	0.000000000000000E+000	7.06194	7.06194	0.0000000E+000	0.000000000000000E+000	0.00896738
1	1	0	1	0	0	0	2575	10	0.899536	10.0017	25.753	25.753	0	7.15362	11	0.00588511	0.000000000000000E+000	4.9093e+07	0.000000000000000E+000	0.000000000000000E+000	7.15362	7.15362	0.0000000E+000	0.000000000000000E+000	0.00899693
1	1	0	1	0	0	0	2608	10	0.90191	10.0014	26.0831	26.0831	0	7.2453	11	0.00596769	0.000000000000000E+000	4.94981e+07	0.000000000000000E+000	0.000000000000000E+000	7.2453	7.2453	0.0000000E+000	0.000000000000000E+000	0.00902034
1	1	0	1	0	0	0	2641	10	0.904469	10.0013	26.4131	26.4131	0	7.33698	11	0.00605049	0.000000000000000E+000	4.98822e+07	0.000000000000000E+000	0.000000000000000E+000	7.33698	7.33698	0.0000000E+000	0.000000000000000E+000	0.00904587
1	1	0	1	0	0	0	2674	10	0.906711	10.001	26.7432	26.7432	0	7.42866	11	0.0061335	0.000000000000000E+000	5.02926e+07	0.000000000000000E+000	0.000000000000000E+000	7.42866	7.42866	0.0000000E+000	0.000000000000000E+000	0.009068
1	1	0	1	0	0	0	2707	10	0.909383	10.0016	27.0732	27.0732	0	7.52033	11	0.00621674	0.000000000000000E+000	5.06587e+07	0.000000000000000E+000	0.000000000000000E+000	7.52033	7.52033	0.0000000E+000	0.000000000000000E+000	0.0090953
1	1	0	1	0	0	0	2740	10	0.911689	10.0014	27.4033	27.4033	0	7.61201	11	0.00630021	0.000000000000000E+000	5.1056e+07	0.000000000000000E+000	0.000000000000000E+000	7.61201	7.61201	0.0000000E+000	0.000000000000000E+000	0.00911814
1	1	0	1	0	0	0	2773	10	0.914254	10.0016	27.7333	27.7333	0	7.70369	11	0.00638391	0.000000000000000E+000	5.14251e+07	0.000000000000000E+000	0.000000000000000E+000	7.70369	7.70369	0.0000000E+000	0.000000000000000E+000	0.00914397
1	1	0	1	0	0	0	2806	10	0.916838	10.0019	28.0633	28.0633	0	7.79537	11	0.00646785	0.000000000000000E+000	5.1789e+07	0.000000000000000E+000	0.000000000000000E+000	7.79537	7.79537	0.0000000E+000	0.000000000000000E+000	0.0091701
1	1	0	1	0	0	0	2839	10	0.920007	10.001	28.3934	28.3934	0	7.88705	11	0.00655203	0.000000000000000E+000	5.20934e+07	0.000000000000000E+000	0.000000000000000E+000	7.88705	7.88705	0.0000000E+000	0.000000000000000E+000	0.00920097
1	1	0	1	0	0	0	2872	10	0.922368	10.0013	28.7234	28.7234	0	7.97873	11	0.00663649	0.000000000000000E+000	5.24717e+07	0.000000000000000E+000	0.000000000000000E+000	7.97873	7.97873	0.0000000E+000	0.000000000000000E+000	0.00922488
1	1	0	1	0	0	0	2905	10	0.925292	10.0017	29.0535	29.0535	0	8.07041	11	0.00672119	0.000000000000000E+000	5.27926e+07	0.000000000000000E+000	0.000000000000000E+000	8.07041	8.07041	0.0000000E+000	0.000000000000000E+000	0.00925454
1	1	0	1	0	0	0	2938	10	0.92774	10.0012	29.3835	29.3835	0	8.16209	11	0.00680614	0.000000000000000E+000	5.31559e+07	0.000000000000000E+000	0.000000000000000E+000	8.16209	8.16209	0.0000000E+000	0.000000000000000E+000	0.00927849
1	1	0	1	0	0	0	2971	10	0.93114	10.0011	29.7136	29.7136	0	8.25377	11	0.00689136	0.000000000000000E+000	5.34244e+07	0.000000000000000E+000	0.000000000000000E+000	8.25377	8.25377	0.0000000E+000	0.000000000000000E+000	0.00931243
1	1	0	1	0	0	0	3004	10	0.934112	10.0009	30.0436	30.0436	0	8.34545	11	0.00697686	0.000000000000000E+000	5.37307e+07	0.000000000000000E+000	0.000000000000000E+000	8.34545	8.34545	0.0000000E+000	0.000000000000000E+000	0.00934192
1	1	0	1	0	0	0	3037	10	0.937206	10.0021	30.3737	30.3737	0	8.43713	11	0.00706264	0.000000000000000E+000	5.4022e+07	0.000000000000000E+000	0.000000000000000E+000	8.43713	8.43713	0.0000000E+000	0.000000000000000E+000	0.00937405
1	1	0	1	0	0	0	3070	10	0.939847	10.0021	30.7037	30.7037	0	8.52881	11	0.00714864	0.000000000000000E+000	5.43537e+07	0.000000000000000E+000	0.000000000000000E+000	8.52881	8.52881	0.0000000E+000	0.000000000000000E+000	0.00940041
1	1	0	1	0	0	0	3103	10	0.943195	10.0014	31.0338	31.0338	0	8.62049	11	0.00723495	0.000000000000000E+000	5.46143e+07	0.000000000000000E+000	0.000000000000000E+000	8.62049	8.62049	0.0000000E+000	0.000000000000000E+000	0.0094333
1	1	0	1	0	0	0	3136	10	0.946302	10.0012	31.3638	31.3638	0	8.71217	11	0.00732156	0.000000000000000E+000	5.4895e+07	0.000000000000000E+000	0.000000000000000E+000	8.71217	8.71217	0.0000000E+000	0.000000000000000E+000	0.00946419
1	1	0	1	0	0	0	3169	10	0.949354	9.99952	31.6939	31.6939	0	8.80385	11	0.00740847	0.000000000000000E+000	5.51778e+07	0.000000000000000E+000	0.000000000000000E+000	8.80385	8.80385	0.0000000E+000	0.000000000000000E+000	0.00949309
1	1	0	1	0	0	0	3202	10	0.952448	10.002	32.0239	32.0239	0	8.89553	11	0.00749566	0.000000000000000E+000	5.54538e+07	0.000000000000000E+000	0.000000000000000E+000	8.89553	8.89553	0.0000000E+000	0.000000000000000E+000	0.00952639
1	1	0	1	0	0	0	3235	10	0.955599	10.0012	32.3539	32.3539	0	8.98721	11	0.00758315	0.000000000000000E+000	5.57212e+07	0.000000000000000E+000	0.000000000000000E+000	8.98721	8.98721	0.0000000E+000	0.000000000000000E+000	0.00955712
1	1	0	1	0	0	0	3268	10	0.959611	10.0009	32.684	32.684	0	9.07889	11	0.00767098	0.000000000000000E+000	5.59033e+07	0.000000000000000E+000	0.000000000000000E+000	9.07889	9.07889	0.0000000E+000	0.000000000000000E+000	0.00959694
1	1	0	1	0	0	0	3301	10	0.962669	10.0011	33.014	33.014	0	9.17057	11	0.00775909	0.000000000000000E+000	5.6174e+07	0.000000000000000E+000	0.000000000000000E+000	9.17057	9.17057	0.0000000E+000	0.000000000000000E+000	0.00962776
1	1	0	1	0	0	0	3334	10	0.966505	10.0017	33.3441	33.3441	0	9.26224	11	0.00784754	0.000000000000000E+000	5.63678e+07	0.000000000000000E+000	0.000000000000000E+000	9.26224	9.26224	0.0000000E+000	0.000000000000000E+000	0.00966667
1	1	0	1	0	0	0	3367	10	0.969948	10.0008	33.6741	33.6741	0	9.35392	11	0.0079363	0.000000000000000E+000	5.65963e+07	0.000000000000000E+000	0.000000000000000E+000	9.35392	9.35392	0.0000000E+000	0.000000000000000E+000	0.00970025
1	1	0	1	0	0	0	3400	10	0.973899	10.0012	34.0042	34.0042	0	9.4456	11	0.00802541	0.000000000000000E+000	5.67739e+07	0.000000000000000E+000	0.000000000000000E+000	9.4456	9.4456	0.0000000E+000	0.000000000000000E+000	0.0097402
1	1	0	1	0	0	0	3433	10	0.977081	10.0016	34.3342	34.3342	0	9.53728	11	0.00811482	0.000000000000000E+000	5.7022e+07	0.000000000000000E+000	0.000000000000000E+000	9.53728	9.53728	0.0000000E+000	0.000000000000000E+000	0.00977233
1	1	0	1	0	0	0	3466	10	0.98052	10.0014	34.6643	34.6643	0	9.62896	11	0.00820455	0.000000000000000E+000	5.72433e+07	0.000000000000000E+000	0.000000000000000E+000	9.62896	9.62896	0.0000000E+000	0.000000000000000E+000	0.0098066
1	1	0	1	0	0	0	3499	10	0.984902	10.0003	34.9943	34.9943	0	9.72064	11	0.00829465	0.000000000000000E+000	5.73731e+07	0.000000000000000E+000	0.000000000000000E+000	9.72064	9.72064	0.0000000E+000	0.000000000000000E+000	0.00984936
1	1	0	1	0	0	0	3532	10	0.988823	10.0016	35.3244	35.3244	0	9.81232	11	0.00838509	0.000000000000000E+000	5.75443e+07	0.000000000000000E+000	0.000000000000000E+000	9.81232	9.81232	0.0000000E+000	0.000000000000000E+000	0.00988977
1	1	0	1	0	0	0	3565	10	0.992215	10.0019	35.6544	35.6544	0	9.904	11	0.0084759	0.000000000000000E+000	5.77627e+07	0.000000000000000E+000	0.000000000000000E+000	9.904	9.904	0.0000000E+000	0.000000000000000E+000	0.00992402
1	1	0	1	0	0	0	3598	10	0.99659	10.0014	35.9844	35.9844	0	9.99568	11	0.00856705	0.000000000000000E+000	5.78872e+07	0.000000000000000E+000	0.000000000000000E+000	9.99568	9.99568	0.0000000E+000	0.000000000000000E+000	0.00996726
1	1	0	1	0	0	0	3631	10	1.00017	10.0019	36.3145	36.3145	0	10.0874	11	0.0086586	0.000000000000000E+000	5.80837e+07	0.000000000000000E+000	0.000000000000000E+000	10.0874	10.0874	0.0000000E+000	0.000000000000000E+000	0.0100036
1	1	0	1	0	0	0	3664	10	1.00442	10.001	36.6445	36.6445	0	10.179	11	0.00875046	0.000000000000000E+000	5.82159e+07	0.000000000000000E+000	0.000000000000000E+000	10.179	10.179	0.0000000E+000	0.000000000000000E+000	0.0100452
1	1	0	1	0	0	0	3697	10	1.0085	10.0005	36.9746	36.9746	0	10.2707	11	0.00884271	0.000000000000000E+000	5.8362e+07	0.000000000000000E+000	0.000000000000000E+000	10.2707	10.2707	0.0000000E+000	0.000000000000000E+000	0.0100855
1	1	0	1	0	0	0	3730	10	1.01257	10.002	37.3046	37.3046	0	10.3624	11	0.00893535	0.000000000000000E+000	5.85069e+07	0.000000000000000E+000	0.000000000000000E+000	10.3624	10.3624	0.0000000E+000	0.000000000000000E+000	0.0101277
1	1	0	1	0	0	0	3763	10	1.0169	10.0016	37.6347	37.6347	0	10.4541	11	0.00902839	0.000000000000000E+000	5.86263e+07	0.000000000000000E+000	0.000000000000000E+000	10.4541	10.4541	0.0000000E+000	0.000000000000000E+000	0.0101707
1	1	0	1	0	0	0	3796	10	1.02132	10.0011	37.9647	37.9647	0	10.5458	11	0.00912184	0.000000000000000E+000	5.87364e+07	0.000000000000000E+000	0.000000000000000E+000	10.5458	10.5458	0.0000000E+000	0.000000000000000E+000	0.0102143
1	1	0	1	0	0	0	3829	10	1.02671	10.0017	38.2948	38.2948	0	10.6374	11	0.00921571	0.000000000000000E+000	5.87571e+07	0.000000000000000E+000	0.000000000000000E+000	10.6374	10.6374	0.0000000E+000	0.000000000000000E+000	0.0102688
1	1	0	1	0	0	0	3862	10	1.03148	10.0024	38.6248	38.6248	0	10.7291	11	0.00930999	0.000000000000000E+000	5.88323e+07	0.000000000000000E+000	0.000000000000000E+000	10.7291	10.7291	0.0000000E+000	0.000000000000000E+000	0.0103174
1	1	0	1	0	0	0	3895	10	1.03475	10.0017	38.9549	38.9549	0	10.8208	11	0.00940464	0.000000000000000E+000	5.90411e+07	0.000000000000000E+000	0.000000000000000E+000	10.8208	10.8208	0.0000000E+000	0.000000000000000E+000	0.0103493
1	1	0	1	0	0	0	3928	10	1.03982	10.0017	39.2849	39.2849	0	10.9125	11	0.00949973	0.000000000000000E+000	5.90874e+07	0.000000000000000E+000	0.000000000000000E+000	10.9125	10.9125	0.0000000E+000	0.000000000000000E+000	0.0103999
1	1	0	1	0	0	0	3961	10	1.0442	10.0015	39.6149	39.6149	0	11.0042	11	0.00959523	0.000000000000000E+000	5.91941e+07	0.000000000000000E+000	0.000000000000000E+000	11.0042	11.0042	0.0000000E+000	0.000000000000000E+000	0.0104435
1	1	0	1	0	0	0	3994	10	1.04992	10.0005	39.945	39.945	0	11.0958	11	0.00969121	0.000000000000000E+000	5.91812e+07	0.000000000000000E+000	0.000000000000000E+000	11.0958	11.0958	0.0000000E+000	0.000000000000000E+000	0.0104997
1	1	0	1	0	0	0	4027	10	1.04979	10.0013	40.275	40.275	0	11.1875	11	0.00978763	0.000000000000000E+000	5.96817e+07	0.000000000000000E+000	0.000000000000000E+000	11.1875	11.1875	0.0000000E+000	0.000000000000000E+000	0.0104993
1	1	0	1	0	0	0	4060	10	1.05807	10.0014	40.6051	40.6051	0	11.2792	11	0.00988435	0.000000000000000E+000	5.94411e+07	0.000000000000000E+000	0.000000000000000E+000	11.2792	11.2792	0.0000000E+000	0.000000000000000E+000	0.0105822
1	1	0	1	0	0	0	4093	10	1.06241	10.0015	40.9351	40.9351	0	11.3709	11	0.00998149	0.000000000000000E+000	5.95462e+07	0.000000000000000E+000	0.000000000000000E+000	11.3709	11.3709	0.0000000E+000	0.000000000000000E+000	0.0106257
1	1	0	1	0	0	0	4126	10	1.0684	10.0017	41.2652	41.2652	0	11.4625	11	0.0100792	0.000000000000000E+000	5.95075e+07	0.000000000000000E+000	0.000000000000000E+000	11.4625	11.4625	0.0000000E+000	0.000000000000000E+000	0.0106858
1	1	0	1	0	0	0	4159	10	1.0735	10.0012	41.5952	41.5952	0	11.5542	11	0.0101772	0.000000000000000E+000	5.95456e+07	0.000000000000000E+000	0.000000000000000E+000	11.5542	11.5542	0.0000000E+000	0.000000000000000E+000	0.0107363
1	1	0	1	0	0	0	4192	10	1.08013	10.0014	41.9253	41.9253	0	11.6459	11	0.0102759	0.000000000000000E+000	5.94541e+07	0.000000000000000E+000	0.000000000000000E+000	11.6459	11.6459	0.0000000E+000	0.000000000000000E+000	0.0108028
1	1	0	1	0	0	0	4225	10	1.08415	10.0014	42.2553	42.2553	0	11.7376	11	0.010375	0.000000000000000E+000	5.95827e+07	0.000000000000000E+000	0.000000000000000E+000	11.7376	11.7376	0.0000000E+000	0.000000000000000E+000	0.0108429
1	1	0	1	0	0	0	4258	10	1.09049	10.0025	42.5854	42.5854	0	11.8293	11	0.0104747	0.000000000000000E+000	5.95161e+07	0.000000000000000E+000	0.000000000000000E+000	11.8293	11.8293	0.0000000E+000	0.000000000000000E+000	0.0109076
1	1	0	1	0	0	0	4291	10	1.09617	10.0018	42.9154	42.9154	0	11.9209	11	0.0105749	0.000000000000000E+000	5.95045e+07	0.000000000000000E+000	0.000000000000000E+000	11.9209	11.9209	0.0000000E+000	0.000000000000000E+000	0.0109637
1	1	0	1	0	0	0	4324	10	1.1017	10.0014	43.2454	43.2454	0	12.0126	11	0.0106757	0.000000000000000E+000	5.95061e+07	0.000000000000000E+000	0.000000000000000E+000	12.0126	12.0126	0.0000000E+000	0.000000000000000E+000	0.0110185
1	1	0	1	0	0	0	4357	10	1.10537	10.0012	43.5755	43.5755	0	12.1043	11	0.0107767	0.000000000000000E+000	5.9659e+07	0.000000000000000E+000	0.000000000000000E+000	12.1043	12.1043	0.0000000E+000	0.000000000000000E+000	0.011055
1	1	0	1	0	0	0	4390	10	1.1129	10.0009	43.9055	43.9055	0	12.196	11	0.0108785	0.000000000000000E+000	5.94976e+07	0.000000000000000E+000	0.000000000000000E+000	12.196	12.196	0.0000000E+000	0.000000000000000E+000	0.01113
1	1	0	1	0	0	0	4423	10	1.12053	10.0021	44.2356	44.2356	0	12.2877	11	0.010981	0.000000000000000E+000	5.9331e+07	0.000000000000000E+000	0.000000000000000E+000	12.2877	12.2877	0.0000000E+000	0.000000000000000E+000	0.0112076
1	1	0	1	0	0	0	4456	10	1.12591	10.0014	44.5656	44.5656	0	12.3793	11	0.011084	0.000000000000000E+000	5.9346e+07	0.000000000000000E+000	0.000000000000000E+000	12.3793	12.3793	0.0000000E+000	0.000000000000000E+000	0.0112606
1	1	0	1	0	0	0	4489	10	1.13275	10.0016	44.8957	44.8957	0	12.471	11	0.0111876	0.000000000000000E+000	5.92458e+07	0.000000000000000E+000	0.000000000000000E+000	12.471	12.471	0.0000000E+000	0.000000000000000E+000	0.0113292
1	1	0	1	0	0	0	4522	10	1.1385	10.0012	45.2257	45.2257	0	12.5627	11	0.0112917	0.000000000000000E+000	5.92314e+07	0.000000000000000E+000	0.000000000000000E+000	12.5627	12.5627	0.0000000E+000	0.000000000000000E+000	0.0113864
1	1	0	1	0	0	0	4555	10	1.1441	10.0005	45.5558	45.5558	0	12.6544	11	0.0113963	0.000000000000000E+000	5.92292e+07	0.000000000000000E+000	0.000000000000000E+000	12.6544	12.6544	0.0000000E+000	0.000000000000000E+000	0.0114416
1	1	0	1	0	0	0	4588	10	1.15097	10.0021	45.8858	45.8858	0	12.7461	11	0.0115015	0.000000000000000E+000	5.913e+07	0.000000000000000E+000	0.000000000000000E+000	12.7461	12.7461	0.0000000E+000	0.000000000000000E+000	0.0115121
1	1	0	1	0	0	0	4621	10	1.15813	10.001	46.2159	46.2159	0	12.8377	11	0.0116072	0.000000000000000E+000	5.90112e+07	0.000000000000000E+000	0.000000000000000E+000	12.8377	12.8377	0.0000000E+000	0.000000000000000E+000	0.0115824
1	1	0	1	0	0	0	4654	10	1.16322	10.0014	46.5459	46.5459	0	12.9294	11	0.0117136	0.000000000000000E+000	5.90489e+07	0.000000000000000E+000	0.000000000000000E+000	12.9294	12.9294	0.0000000E+000	0.000000000000000E+000	0.0116338
1	1	0	1	0	0	0	4687	10	1.17306	10.002	46.8759	46.8759	0	13.0211	11	0.0118207	0.000000000000000E+000	5.87343e+07	0.000000000000000E+000	0.000000000000000E+000	13.0211	13.0211	0.0000000E+000	0.000000000000000E+000	0.011733
1	1	0	1	0	0	0	4720	10	1.17772	10.001	47.206	47.206	0	13.1128	11	0.0119284	0.000000000000000E+000	5.88047e+07	0.000000000000000E+000	0.000000000000000E+000	13.1128	13.1128	0.0000000E+000	0.000000000000000E+000	0.0117783
1	1	0	1	0	0	0	4753	10	1.18593	10.001	47.536	47.536	0	13.2045	11	0.0120369	0.000000000000000E+000	5.86165e+07	0.000000000000000E+000	0.000000000000000E+000	13.2045	13.2045	0.0000000E+000	0.000000000000000E+000	0.0118604
1	1	0	1	0	0	0	4786	10	1.19323	10.0023	47.8661	47.8661	0	13.2961	11	0.0121459	0.000000000000000E+000	5.84968e+07	0.000000000000000E+000	0.000000000000000E+000	13.2961	13.2961	0.0000000E+000	0.000000000000000E+000	0.011935
1	1	0	1	0	0	0	4819	10	1.19936	10.0016	48.1961	48.1961	0	13.3878	11	0.0122557	0.000000000000000E+000	5.84617e+07	0.000000000000000E+000	0.000000000000000E+000	13.3878	13.3878	0.0000000E+000	0.000000000000000E+000	0.0119956
1	1	0	1	0	0	0	4852	10	1.20584	10.0014	48.5262	48.5262	0	13.4795	11	0.0123661	0.000000000000000E+000	5.84031e+07	0.000000000000000E+000	0.000000000000000E+000	13.4795	13.4795	0.0000000E+000	0.000000000000000E+000	0.0120601
1	1	0	1	0	0	0	4885	10	1.21414	10.0019	48.8562	48.8562	0	13.5712	11	0.0124771	0.000000000000000E+000	5.8219e+07	0.000000000000000E+000	0.000000000000000E+000	13.5712	13.5712	0.0000000E+000	0.000000000000000E+000	0.0121437
1	1	0	1	0	0	0	4918	10	1.22074	10.002	49.1863	49.1863	0	13.6629	11	0.0125889	0.000000000000000E+000	5.81551e+07	0.000000000000000E+000	0.000000000000000E+000	13.6629	13.6629	0.0000000E+000	0.000000000000000E+000	0.0122098
1	1	0	1	0	0	0	4951	10	1.22791	10.0016	49.5163	49.5163	0	13.7545	11	0.012701	0.000000000000000E+000	5.80528e+07	0.000000000000000E+000	0.000000000000000E+000	13.7545	13.7545	0.0000000E+000	0.000000000000000E+000	0.0122811
1	1	0	1	0	0	0	4984	10	1.23448	10.0019	49.8464	49.8464	0	13.8462	11	0.012814	0.000000000000000E+000	5.79934e+07	0.000000000000000E+000	0.000000000000000E+000	13.8462	13.8462	0.0000000E+000	0.000000000000000E+000	0.0123471
1	1	0	1	0	0	0	5017	10	1.24077	10.0018	50.1764	50.1764	0	13.9379	11	0.0129275	0.000000000000000E+000	5.79529e+07	0.000000000000000E+000	0.000000000000000E+000	13.9379	13.9379	0.0000000E+000	0.000000000000000E+000	0.01241
1	1	0	1	0	0	0	5050	10	1.24526	10.0021	50.5065	50.5065	0	14.0296	11	0.0130416	0.000000000000000E+000	5.80337e+07	0.000000000000000E+000	0.000000000000000E+000	14.0296	14.0296	0.0000000E+000	0.000000000000000E+000	0.0124551
1	1	0	1	0	0	0	5083	10	1.2544	10.0007	50.8365	50.8365	0	14.1212	11	0.0131565	0.000000000000000E+000	5.78052e+07	0.000000000000000E+000	0.000000000000000E+000	14.1212	14.1212	0.0000000E+000	0.000000000000000E+000	0.0125449
1	1	0	1	0	0	0	5116	10	1.26432	10.001	51.1665	51.1665	0	14.2129	11	0.013272	0.000000000000000E+000	5.75316e+07	0.000000000000000E+000	0.000000000000000E+000	14.2129	14.2129	0.0000000E+000	0.000000000000000E+000	0.0126445
1	1	0	1	0	0	0	5149	10	1.27257	10.0013	51.4966	51.4966	0	14.3046	11	0.0133882	0.000000000000000E+000	5.7371e+07	0.000000000000000E+000	0.000000000000000E+000	14.3046	14.3046	0.0000000E+000	0.000000000000000E+000	0.0127273
1	1	0	1	0	0	0	5182	10	1.28099	10.0016	51.8266	51.8266	0	14.3963	11	0.0135051	0.000000000000000E+000	5.72016e+07	0.000000000000000E+000	0.000000000000000E+000	14.3963	14.3963	0.0000000E+000	0.000000000000000E+000	0.0128119
1	1	0	1	0	0	0	5215	10	1.28532	10.0017	52.1567	52.1567	0	14.488	11	0.0136227	0.000000000000000E+000	5.72926e+07	0.000000000000000E+000	0.000000000000000E+000	14.488	14.488	0.0000000E+000	0.000000000000000E+000	0.0128553
1	1	0	1	0	0	0	5248	10	1.29276	10.0016	52.4867	52.4867	0	14.5796	11	0.013741	0.000000000000000E+000	5.71872e+07	0.000000000000000E+000	0.000000000000000E+000	14.5796	14.5796	0.0000000E+000	0.000000000000000E+000	0.0129297
1	1	0	1	0	0	0	5281	10	1.29863	10.0022	52.8168	52.8168	0	14.6713	11	0.01386	0.000000000000000E+000	5.71815e+07	0.000000000000000E+000	0.000000000000000E+000	14.6713	14.6713	0.0000000E+000	0.000000000000000E+000	0.0129891
1	1	0	1	0	0	0	5314	10	1.30858	10.0012	53.1468	53.1468	0	14.763	11	0.0139794	0.000000000000000E+000	5.69255e+07	0.000000000000000E+000	0.000000000000000E+000	14.763	14.763	0.0000000E+000	0.000000000000000E+000	0.0130873
1	1	0	1	0	0	0	5347	10	1.3209	10.0016	53.4769	53.4769	0	14.8547	11	0.0140998	0.000000000000000E+000	5.6533e+07	0.000000000000000E+000	0.000000000000000E+000	14.8547	14.8547	0.0000000E+000	0.000000000000000E+000	0.0132111
1	1	0	1	0	0	0	5380	10	1.33005	10.0009	53.8069	53.8069	0	14.9464	11	0.014221	0.000000000000000E+000	5.63367e+07	0.000000000000000E+000	0.000000000000000E+000	14.9464	14.9464	0.0000000E+000	0.000000000000000E+000	0.0133018
1	1	0	1	0	0	0	5413	10	1.33201	10.0009	54.137	54.137	0	15.038	11	0.014343	0.000000000000000E+000	5.65665e+07	0.000000000000000E+000	0.000000000000000E+000	15.038	15.038	0.0000000E+000	0.000000000000000E+000	0.0133212
1	1	0	1	0	0	0	5446	10	1.33958	10.0019	54.467	54.467	0	15.1297	11	0.0144655	0.000000000000000E+000	5.64649e+07	0.000000000000000E+000	0.000000000000000E+000	15.1297	15.1297	0.0000000E+000	0.000000000000000E+000	0.0133983
1	1	0	1	0	0	0	5479	10	1.33728	10.0007	54.797	54.797	0	15.2214	11	0.0145881	0.000000000000000E+000	5.69427e+07	0.000000000000000E+000	0.000000000000000E+000	15.2214	15.2214	0.0000000E+000	0.000000000000000E+000	0.0133738
1	1	0	1	0	0	0	5512	10	1.34984	10.0009	55.1271	55.1271	0	15.3131	11	0.0147113	0.000000000000000E+000	5.65475e+07	0.000000000000000E+000	0.000000000000000E+000	15.3131	15.3131	0.0000000E+000	0.000000000000000E+000	0.0134996
1	1	0	1	0	0	0	5545	10	1.35634	10.0015	55.4571	55.4571	0	15.4048	11	0.0148354	0.000000000000000E+000	5.65094e+07	0.000000000000000E+000	0.000000000000000E+000	15.4048	15.4048	0.0000000E+000	0.000000000000000E+000	0.0135654
1	1	0	1	0	0	0	5578	10	1.36289	10.0017	55.7872	55.7872	0	15.4964	11	0.0149604	0.000000000000000E+000	5.64685e+07	0.000000000000000E+000	0.000000000000000E+000	15.4964	15.4964	0.0000000E+000	0.000000000000000E+000	0.0136313
1	1	0	1	0	0	0	5611	10	1.36707	10.0019	56.1172	56.1172	0	15.5881	11	0.0150859	0.000000000000000E+000	5.65634e+07	0.000000000000000E+000	0.000000000000000E+000	15.5881	15.5881	0.0000000E+000	0.000000000000000E+000	0.0136733
1	1	0	1	0	0	0	5644	10	1.38337	10.0024	56.4473	56.4473	0	15.6798	11	0.0152123	0.000000000000000E+000	5.59767e+07	0.000000000000000E+000	0.000000000000000E+000	15.6798	15.6798	0.0000000E+000	0.000000000000000E+000	0.013837
1	1	0	1	0	0	0	5677	10	1.37759	10.001	56.7773	56.7773	0	15.7715	11	0.0153394	0.000000000000000E+000	5.66283e+07	0.000000000000000E+000	0.000000000000000E+000	15.7715	15.7715	0.0000000E+000	0.000000000000000E+000	0.0137773
1	1	0	1	0	0	0	5710	10	1.39167	10.0012	57.1074	57.1074	0	15.8632	11	0.0154668	0.000000000000000E+000	5.61688e+07	0.000000000000000E+000	0.000000000000000E+000	15.8632	15.8632	0.0000000E+000	0.000000000000000E+000	0.0139184
1	1	0	1	0	0	0	5743	10	1.40073	10.0011	57.4374	57.4374	0	15.9548	11	0.015595	0.000000000000000E+000	5.59946e+07	0.000000000000000E+000	0.000000000000000E+000	15.9548	15.9548	0.0000000E+000	0.000000000000000E+000	0.0140088
1	1	0	1	0	0	0	5776	10	1.41397	10.0009	57.7674	57.7674	0	16.0465	11	0.0157241	0.000000000000000E+000	5.55985e+07	0.000000000000000E+000	0.000000000000000E+000	16.0465	16.0465	0.0000000E+000	0.000000000000000E+000	0.014141
1	1	0	1	0	0	0	5809	10	1.41629	10.0005	58.0975	58.0975	0	16.1382	11	0.0158535	0.000000000000000E+000	5.57918e+07	0.000000000000000E+000	0.000000000000000E+000	16.1382	16.1382	0.0000000E+000	0.000000000000000E+000	0.0141636
1	1	0	1	0	0	0	5842	10	1.41813	10.0013	58.4275	58.4275	0	16.2299	11	0.0159835	0.000000000000000E+000	5.60096e+07	0.000000000000000E+000	0.000000000000000E+000	16.2299	16.2299	0.0000000E+000	0.000000000000000E+000	0.0141831
1	1	0	1	0	0	0	5875	10	1.42262	10.001	58.7576	58.7576	0	16.3216	11	0.0161141	0.000000000000000E+000	5.60847e+07	0.000000000000000E+000	0.000000000000000E+000	16.3216	16.3216	0.0000000E+000	0.000000000000000E+000	0.0142276
1	1	0	1	0	0	0	5908	10	1.4344	10.0014	59.0876	59.0876	0	16.4132	11	0.0162453	0.000000000000000E+000	5.57724e+07	0.000000000000000E+000	0.000000000000000E+000	16.4132	16.4132	0.0000000E+000	0.000000000000000E+000	0.0143461
1	1	0	1	0	0	0	5941	10	1.44307	10.0017	59.4177	59.4177	0	16.5049	11	0.0163771	0.000000000000000E+000	5.56288e+07	0.000000000000000E+000	0.000000000000000E+000	16.5049	16.5049	0.0000000E+000	0.000000000000000E+000	0.0144332
1	1	0	1	0	0	0	5974	10	1.45087	10.0022	59.7477	59.7477	0	16.5966	11	0.0165097	0.000000000000000E+000	5.55321e+07	0.000000000000000E+000	0.000000000000000E+000	16.5966	16.5966	0.0000000E+000	0.000000000000000E+000	0.0145119
1	1	0	1	0	0	0	6007	10	1.46449	10.0007	60.0778	60.0778	0	16.6883	11	0.0166433	0.000000000000000E+000	5.51407e+07	0.000000000000000E+000	0.000000000000000E+000	16.6883	16.6883	0.0000000E+000	0.000000000000000E+000	0.014646
1	1	0	1	0	0	0	6040	10	1.45966	10.0019	60.4078	60.4078	0	16.7799	11	0.0167774	0.000000000000000E+000	5.56908e+07	0.000000000000000E+000	0.000000000000000E+000	16.7799	16.7799	0.0000000E+000	0.000000000000000E+000	0.0145993
1	1	0	1	0	0	0	6073	10	1.47523	10.0017	60.7379	60.7379	0	16.8716	11	0.0169121	0.000000000000000E+000	5.52027e+07	0.000000000000000E+000	0.000000000000000E+000	16.8716	16.8716	0.0000000E+000	0.000000000000000E+000	0.0147548
1	1	0	1	0	0	0	6106	10	1.46611	10.001	61.0679	61.0679	0	16.9633	11	0.0170474	0.000000000000000E+000	5.59665e+07	0.000000000000000E+000	0.000000000000000E+000	16.9633	16.9633	0.0000000E+000	0.000000000000000E+000	0.0146626
1	1	0	1	0	0	0	6139	10	1.48772	10.0014	61.3979	61.3979	0	17.055	11	0.0171831	0.000000000000000E+000	5.5176e+07	0.000000000000000E+000	0.000000000000000E+000	17.055	17.055	0.0000000E+000	0.000000000000000E+000	0.0148794
1	1	0	1	0	0	0	6172	10	1.49501	10.002	61.728	61.728	0	17.1467	11	0.0173196	0.000000000000000E+000	5.51117e+07	0.000000000000000E+000	0.000000000000000E+000	17.1467	17.1467	0.0000000E+000	0.000000000000000E+000	0.0149531
1	1	0	1	0	0	0	6205	10	1.50181	10.0005	62.058	62.058	0	17.2383	11	0.017457	0.000000000000000E+000	5.50721e+07	0.000000000000000E+000	0.000000000000000E+000	17.2383	17.2383	0.0000000E+000	0.000000000000000E+000	0.0150188
1	1	0	1	0	0	0	6238	10	1.51154	10.0016	62.3881	62.3881	0	17.33	11	0.0175949	0.000000000000000E+000	5.48908e+07	0.000000000000000E+000	0.000000000000000E+000	17.33	17.33	0.0000000E+000	0.000000000000000E+000	0.0151179
1	1	0	1	0	0	0	6271	10	1.51512	10.0018	62.7181	62.7181	0	17.4217	11	0.0177338	0.000000000000000E+000	5.5008e+07	0.000000000000000E+000	0.000000000000000E+000	17.4217	17.4217	0.0000000E+000	0.000000000000000E+000	0.015154
1	1	0	1	0	0	0	6304	10	1.51971	10.001	63.0482	63.0482	0	17.5134	11	0.0178731	0.000000000000000E+000	5.50761e+07	0.000000000000000E+000	0.000000000000000E+000	17.5134	17.5134	0.0000000E+000	0.000000000000000E+000	0.0151987
1	1	0	1	0	0	0	6337	10	1.51884	10.0009	63.3782	63.3782	0	17.6051	11	0.0180123	0.000000000000000E+000	5.54063e+07	0.000000000000000E+000	0.000000000000000E+000	17.6051	17.6051	0.0000000E+000	0.000000000000000E+000	0.0151898
1	1	0	1	0	0	0	6370	10	1.52658	10.0014	63.7083	63.7083	0	17.6967	11	0.0181518	0.000000000000000E+000	5.53204e+07	0.000000000000000E+000	0.000000000000000E+000	17.6967	17.6967	0.0000000E+000	0.000000000000000E+000	0.015268
1	1	0	1	0	0	0	6403	10	1.52495	10.0015	64.0383	64.0383	0	17.7884	11	0.0182918	0.000000000000000E+000	5.56857e+07	0.000000000000000E+000	0.000000000000000E+000	17.7884	17.7884	0.0000000E+000	0.000000000000000E+000	0.0152518
1	1	0	1	0	0	0	6436	10	1.53748	10.0012	64.3683	64.3683	0	17.8801	11	0.0184324	0.000000000000000E+000	5.53695e+07	0.000000000000000E+000	0.000000000000000E+000	17.8801	17.8801	0.0000000E+000	0.000000000000000E+000	0.0153767
1	1	0	1	0	0	0	6469	10	1.54539	10.0024	64.6984	64.6984	0	17.9718	11	0.0185736	0.000000000000000E+000	5.52776e+07	0.000000000000000E+000	0.000000000000000E+000	17.9718	17.9718	0.0000000E+000	0.000000000000000E+000	0.0154575
1	1	0	1	0	0	0	6502	10	1.55226	10.0009	65.0284	65.0284	0	18.0635	11	0.0187156	0.000000000000000E+000	5.52354e+07	0.000000000000000E+000	0.000000000000000E+000	18.0635	18.0635	0.0000000E+000	0.000000000000000E+000	0.015524
1	1	0	1	0	0	0	6535	10	1.55022	10.0017	65.3585	65.3585	0	18.1551	11	0.0188575	0.000000000000000E+000	5.56117e+07	0.000000000000000E+000	0.000000000000000E+000	18.1551	18.1551	0.0000000E+000	0.000000000000000E+000	0.015505
1	1	0	1	0	0	0	6568	10	1.56546	10.0009	65.6885	65.6885	0	18.2468	11	0.0190005	0.000000000000000E+000	5.51774e+07	0.000000000000000E+000	0.000000000000000E+000	18.2468	18.2468	0.0000000E+000	0.000000000000000E+000	0.0156559
1	1	0	1	0	0	0	6601	10	1.55631	10.0011	66.0186	66.0186	0	18.3385	11	0.0191432	0.000000000000000E+000	5.58842e+07	0.000000000000000E+000	0.000000000000000E+000	18.3385	18.3385	0.0000000E+000	0.000000000000000E+000	0.0155648
1	1	0	1	0	0	0	6634	10	1.57334	10.0016	66.3486	66.3486	0	18.4302	11	0.0192864	0.000000000000000E+000	5.53651e+07	0.000000000000000E+000	0.000000000000000E+000	18.4302	18.4302	0.0000000E+000	0.000000000000000E+000	0.015736
1	1	0	1	0	0	0	6667	10	1.56324	10.0018	66.6787	66.6787	0	18.5218	11	0.0194305	0.000000000000000E+000	5.61138e+07	0.000000000000000E+000	0.000000000000000E+000	18.5218	18.5218	0.0000000E+000	0.000000000000000E+000	0.0156352
1	1	0	1	0	0	0	6700	10	1.58284	10.0019	67.0087	67.0087	0	18.6135	11	0.019575	0.000000000000000E+000	5.54765e+07	0.000000000000000E+000	0.000000000000000E+000	18.6135	18.6135	0.0000000E+000	0.000000000000000E+000	0.0158313
1	1	0	1	0	0	0	6733	10	1.57556	10.001	67.3387	67.3387	0	18.7052	11	0.0197193	0.000000000000000E+000	5.60876e+07	0.000000000000000E+000	0.000000000000000E+000	18.7052	18.7052	0.0000000E+000	0.000000000000000E+000	0.0157571
1	1	0	1	0	0	0	6766	10	1.58744	10.0016	67.6688	67.6688	0	18.7969	11	0.0198642	0.000000000000000E+000	5.581e+07	0.000000000000000E+000	0.000000000000000E+000	18.7969	18.7969	0.0000000E+000	0.000000000000000E+000	0.015877
1	1	0	1	0	0	0	6799	10	1.59441	10.0009	67.9988	67.9988	0	18.8886	11	0.0200098	0.000000000000000E+000	5.57618e+07	0.000000000000000E+000	0.000000000000000E+000	18.8886	18.8886	0.0000000E+000	0.000000000000000E+000	0.0159455
1	1	0	1	0	0	0	6832	10	1.60093	10.0016	68.3289	68.3289	0	18.9802	11	0.0201562	0.000000000000000E+000	5.57344e+07	0.000000000000000E+000	0.000000000000000E+000	18.9802	18.9802	0.0000000E+000	0.000000000000000E+000	0.0160119
1	1	0	1	0	0	0	6865	10	1.59172	10.0012	68.6589	68.6589	0	19.0719	11	0.020302	0.000000000000000E+000	5.64277e+07	0.000000000000000E+000	0.000000000000000E+000	19.0719	19.0719	0.0000000E+000	0.000000000000000E+000	0.0159192
1	1	0	1	0	0	0	6898	10	1.59198	10.0019	68.989	68.989	0	19.1636	11	0.0204478	0.000000000000000E+000	5.66868e+07	0.000000000000000E+000	0.000000000000000E+000	19.1636	19.1636	0.0000000E+000	0.000000000000000E+000	0.0159228
1	1	0	1	0	0	0	6931	10	1.60773	10.0007	69.319	69.319	0	19.2553	11	0.0205941	0.000000000000000E+000	5.62301e+07	0.000000000000000E+000	0.000000000000000E+000	19.2553	19.2553	0.0000000E+000	0.000000000000000E+000	0.0160785
1	1	0	1	0	0	0	6964	10	1.59696	10.0011	69.6491	69.6491	0	19.347	11	0.020741	0.000000000000000E+000	5.69958e+07	0.000000000000000E+000	0.000000000000000E+000	19.347	19.347	0.0000000E+000	0.000000000000000E+000	0.0159714
1	1	0	1	0	0	0	6997	10	1.60721	10.0006	69.9791	69.9791	0	19.4386	11	0.0208879	0.000000000000000E+000	5.67894e+07	0.000000000000000E+000	0.000000000000000E+000	19.4386	19.4386	0.0000000E+000	0.000000000000000E+000	0.0160731
1	1	0	1	0	0	0	7030	10	1.60518	10.0017	70.3092	70.3092	0	19.5303	11	0.0210351	0.000000000000000E+000	5.71517e+07	0.000000000000000E+000	0.000000000000000E+000	19.5303	19.5303	0.0000000E+000	0.000000000000000E+000	0.0160545
1	1	0	1	0	0	0	7063	10	1.61766	10.0009	70.6392	70.6392	0	19.622	11	0.0211833	0.000000000000000E+000	5.68433e+07	0.000000000000000E+000	0.000000000000000E+000	19.622	19.622	0.0000000E+000	0.000000000000000E+000	0.0161781
1	1	0	1	0	0	0	7096	10	1.62521	10.0019	70.9692	70.9692	0	19.7137	11	0.0213323	0.000000000000000E+000	5.6764e+07	0.000000000000000E+000	0.000000000000000E+000	19.7137	19.7137	0.0000000E+000	0.000000000000000E+000	0.0162553
1	1	0	1	0	0	0	7129	10	1.62593	10.0007	71.2993	71.2993	0	19.8054	11	0.0214811	0.000000000000000E+000	5.6995e+07	0.000000000000000E+000	0.000000000000000E+000	19.8054	19.8054	0.0000000E+000	0.000000000000000E+000	0.0162605
1	1	0	1	0	0	0	7162	10	1.6303	10.0018	71.6293	71.6293	0	19.897	11	0.0216307	0.000000000000000E+000	5.70596e+07	0.000000000000000E+000	0.000000000000000E+000	19.897	19.897	0.0000000E+000	0.000000000000000E+000	0.016306
1	1	0	1	0	0	0	7195	10	1.62627	10.0011	71.9594	71.9594	0	19.9887	11	0.0217794	0.000000000000000E+000	5.75071e+07	0.000000000000000E+000	0.000000000000000E+000	19.9887	19.9887	0.0000000E+000	0.000000000000000E+000	0.0162645
1	1	0	1	0	0	0	7200.05	10	1.62863	10.0015	72.0099	72.0099	0	20.0027	11	0.0218022	0.000000000000000E+000	5.74392e+07	0.000000000000000E+000	0.000000000000000E+000	20.0027	20.0027	0.0000000E+000	0.000000000000000E+000	0.0162887