File: Data_1mg/2022_01_27 Ni60Co30Fe10Ox 1mg ref309__01_CV_C02.mpt
EC-Lab ASCII FILE
Nb header lines : 57

Cyclic Voltammetry

Run on channel : 2 (SN 12477)
User :
CE vs. WE compliance from -10 V to 10 V
Electrode connection : standard
Potential control : Ewe
Ewe ctrl range : min = -2.50 V, max = 2.50 V
Safety Limits :
	Do not start on E overload
Acquisition started on : 01/27/2023 11:35:24.466
Loaded Setting File :  C:\Users\grupogalan\Documents\EC-Lab\Data\Scott\_cyclic_pause_tafel.mps
Saved on :
	File : 2022_01_27 Ni60Co30Fe10Ox 1mg ref309__01_CV_C02.mpr
	Directory : C:\Users\grupogalan\Documents\EC-Lab\Data\Scott\
	Host : 169.254.104.159
Device : VSP (SN 1176)
Address : USB
EC-Lab for windows v11.46 (software)
Internet server v11.40 (firmware)
Command interpretor v11.40 (firmware)
Electrode material :
Initial state :
Electrolyte :
Comments :
Electrode surface area : 0.000 cm²
Characteristic mass : 0.001 g
Equivalent Weight : 0.000 g/eq.
Density : 0.000 g/cm3
Volume (V) : 0.001 cm³
Cycle Definition : Charge/Discharge alternance
Ei (V)              0.000
vs.                 Eoc
dE/dt               10.000
dE/dt unit          mV/s
E1 (V)              1.000
vs.                 Ref
Step percent        50
N                   10
E range min (V)     -2.500
E range max (V)     2.500
I Range             Auto
I Range min         Unset
I Range max         Unset
I Range init        Unset
Bandwidth           5
E2 (V)              0.000
vs.                 Ref
nc cycles           2
Reverse Scan        1
Ef (V)              0.000
vs.                 Eoc

mode	ox/red	error	control changes	counter inc.	time/s	control/V	Ewe/V	<I>/mA	cycle number	(Q-Qo)/C	I Range	P/W
2	0	0	1	0	0.000000000000000E+000	-0.0167346	-0.0159557	-0.00276033	1	0.0000000E+000	13	4.40429e-08
2	0	0	1	0	0.8553	-0.00818242	-0.0080549	0.00105717	1	5.59384e-07	13	-8.51538e-09
2	0	0	1	0	1.7555	0.000818589	-0.000380902	0.0011738	1	1.40457e-06	13	-4.47101e-10
2	0	0	1	0	2.6558	0.00982159	0.00893985	0.00141196	1	2.4494e-06	13	1.26227e-08
2	0	0	0	0	3.556	0.0188237	0.0185126	0.00155051	1	3.65949e-06	13	2.8704e-08
2	0	0	1	0	4.4562	0.0278258	0.0274723	0.00175048	1	5.01605e-06	13	4.80897e-08
2	0	0	0	0	5.3564	0.0368279	0.0376454	0.00195114	1	6.51753e-06	13	7.34513e-08
2	1	0	1	0	6.2566	0.04583	0.0451371	0.002033	1	8.15327e-06	13	9.17638e-08
2	0	0	0	0	7.1568	0.0548321	0.0549994	0.00223048	1	9.92868e-06	13	1.22675e-07
2	0	0	1	0	8.057	0.0638343	0.063468	0.00240503	1	1.18443e-05	13	1.52643e-07
2	0	0	0	0	8.9572	0.0728364	0.0724765	0.00256857	1	1.38989e-05	13	1.86161e-07
2	1	0	1	0	9.8574	0.0818385	0.0821744	0.0028426	1	1.6105e-05	13	2.33589e-07
2	1	0	0	0	10.7576	0.0908406	0.0905995	0.00293255	1	1.84692e-05	13	2.65687e-07
2	1	0	1	0	11.6578	0.0998427	0.0993895	0.00311995	1	2.10025e-05	13	3.1009e-07
2	1	0	0	0	12.558	0.108845	0.10847	0.00333675	1	2.37195e-05	13	3.61937e-07
2	1	0	1	0	13.4582	0.117847	0.117276	0.0035085	1	2.66319e-05	13	4.11462e-07
2	1	0	0	0	14.3584	0.126849	0.126983	0.00380909	1	2.97511e-05	13	4.83692e-07
2	0	0	1	0	15.2586	0.135851	0.136016	0.0040369	1	3.3092e-05	13	5.49085e-07
2	0	0	1	0	16.1589	0.144854	0.144313	0.004394	1	3.66768e-05	13	6.3411e-07
2	1	0	1	0	17.0591	0.153855	0.153235	0.00463011	1	4.05267e-05	13	7.09493e-07
2	1	0	1	0	17.9594	0.162857	0.162669	0.00497993	1	4.46754e-05	13	8.10083e-07
2	1	0	0	0	18.8596	0.17186	0.171608	0.0053214	1	4.91471e-05	13	9.13194e-07
2	1	0	1	0	19.7598	0.180862	0.18036	0.00569121	1	5.39881e-05	13	1.02646e-06
2	1	0	0	0	20.66	0.189864	0.189814	0.00621128	1	5.92575e-05	13	1.17898e-06
2	1	0	1	0	21.5602	0.198866	0.198516	0.00670952	1	6.50013e-05	13	1.33194e-06
2	1	0	0	0	22.4604	0.207868	0.206832	0.00735546	1	7.12742e-05	13	1.52135e-06
2	1	0	1	0	23.3606	0.21687	0.217067	0.0080356	1	7.81415e-05	13	1.74426e-06
2	1	0	0	0	24.2608	0.225872	0.225325	0.00871382	1	8.56451e-05	13	1.96344e-06
2	1	0	1	0	25.161	0.234874	0.234944	0.0094793	1	9.38432e-05	13	2.22711e-06
2	1	0	0	0	26.0612	0.243876	0.243699	0.010263	1	0.000102781	13	2.50108e-06
2	1	0	1	0	26.9614	0.252879	0.252744	0.0112191	1	0.00011251	13	2.83555e-06
2	1	0	0	0	27.8616	0.261881	0.260963	0.0122124	1	0.000123092	13	3.18699e-06
2	1	0	1	0	28.7618	0.270883	0.269551	0.0132091	1	0.000134604	13	3.56054e-06
2	1	0	0	0	29.662	0.279885	0.280151	0.0143791	1	0.000147138	13	4.02833e-06
2	1	0	1	0	30.5622	0.288887	0.288093	0.0156505	1	0.000160812	13	4.5088e-06
2	1	0	1	0	31.4625	0.29789	0.297907	0.0173265	1	0.000175777	13	5.16169e-06
2	1	0	1	0	32.3627	0.306891	0.306615	0.0189936	1	0.000192195	13	5.82371e-06
2	1	0	1	0	33.263	0.315893	0.315282	0.0209209	1	0.000210283	13	6.59598e-06
2	1	0	0	0	34.1632	0.324895	0.324964	0.0231824	1	0.000230284	13	7.53343e-06
2	1	0	1	0	35.0634	0.333898	0.333471	0.0257354	1	0.000252473	13	8.58199e-06
2	1	0	0	0	35.9636	0.3429	0.342742	0.028832	1	0.000277152	13	9.88196e-06
2	1	0	1	0	36.8638	0.351902	0.351052	0.032047	1	0.000304632	13	1.12501e-05
2	1	0	0	0	37.764	0.360904	0.360314	0.0357708	1	0.000335219	13	1.28887e-05
2	1	0	1	0	38.6642	0.369906	0.370578	0.0396382	1	0.000369228	13	1.46891e-05
2	1	0	0	0	39.5644	0.378908	0.378709	0.0438752	1	0.000406936	13	1.66159e-05
2	1	0	1	0	40.4646	0.38791	0.388517	0.0484496	1	0.000448614	13	1.88235e-05
2	1	0	0	0	41.3648	0.396912	0.396742	0.0532788	1	0.000494485	13	2.1138e-05
2	1	0	1	0	42.265	0.405915	0.404449	0.0582956	1	0.00054476	13	2.35776e-05
2	1	0	0	0	43.1652	0.414917	0.41488	0.0635387	1	0.000599612	13	2.63609e-05
2	1	0	1	0	44.0654	0.423919	0.424216	0.0689848	1	0.000659201	13	2.92645e-05
2	1	0	0	0	44.9656	0.432921	0.431913	0.0745799	1	0.000723675	13	3.2212e-05
2	1	0	1	0	45.8658	0.441923	0.441511	0.0802338	1	0.000793176	13	3.54241e-05
2	1	0	0	0	46.766	0.450925	0.45099	0.0859991	1	0.000867817	13	3.87848e-05
2	1	0	1	0	47.6663	0.459927	0.459409	0.0919177	1	0.000947739	13	4.22278e-05
2	1	0	1	0	48.5665	0.468929	0.469156	0.0979029	1	0.00103306	13	4.59318e-05
2	1	0	0	0	49.4968	0.478231	0.477899	0.104272	1	0.00112747	12	4.98317e-05
2	1	0	1	0	50.397	0.487234	0.488072	0.110756	1	0.00122435	12	5.40569e-05
2	1	0	0	0	51.2972	0.496236	0.496693	0.117424	1	0.00132712	12	5.83238e-05
2	1	0	1	0	52.1974	0.505238	0.505098	0.124178	1	0.00143595	12	6.27224e-05
2	1	0	0	0	53.0976	0.51424	0.513864	0.131274	1	0.00155103	12	6.74567e-05
2	1	0	1	0	53.9978	0.523242	0.523107	0.138495	1	0.00167262	12	7.24479e-05
2	1	0	0	0	54.898	0.532244	0.53068	0.145998	1	0.00180087	12	7.74782e-05
2	1	0	1	0	55.7982	0.541246	0.541578	0.154027	1	0.00193605	12	8.34176e-05
2	1	0	0	0	56.6984	0.550248	0.55012	0.161974	1	0.0020784	12	8.91053e-05
2	1	0	1	0	57.5986	0.55925	0.559081	0.170413	1	0.00222812	12	9.52747e-05
2	1	0	0	0	58.4988	0.568253	0.568832	0.179001	1	0.00238551	12	0.000101822
2	1	0	1	0	59.399	0.577255	0.576263	0.187856	1	0.00255081	12	0.000108254
2	1	0	0	0	60.2992	0.586257	0.585434	0.197289	1	0.00272424	12	0.0001155
2	1	0	1	0	61.1994	0.595259	0.594778	0.206456	1	0.00290608	12	0.000122795
2	1	0	0	0	62.0996	0.604261	0.603917	0.216185	1	0.00309653	12	0.000130558
2	1	0	1	0	62.9999	0.613263	0.613438	0.226234	1	0.00329587	12	0.00013878
2	1	0	1	0	63.9002	0.622265	0.621456	0.236208	1	0.00350412	12	0.000146793
2	1	0	0	0	64.8004	0.631267	0.631969	0.246772	1	0.00372169	12	0.000155952
2	1	0	1	0	65.7006	0.64027	0.640083	0.257668	1	0.00394892	12	0.000164929
2	1	0	0	0	66.6008	0.649272	0.649178	0.269053	1	0.00418613	12	0.000174663
2	1	0	1	0	67.501	0.658274	0.658187	0.280826	1	0.00443367	12	0.000184836
2	1	0	0	0	68.4012	0.667276	0.666085	0.292932	1	0.00469202	12	0.000195118
2	1	0	1	0	69.3014	0.676278	0.675464	0.306043	1	0.00496174	12	0.000206721
2	1	0	0	0	70.2016	0.68528	0.685001	0.319557	1	0.00524351	12	0.000218897
2	1	0	1	0	71.1018	0.694282	0.693569	0.334395	1	0.00553803	12	0.000231926
2	1	0	0	0	72.002	0.703284	0.703464	0.350331	1	0.00584642	12	0.000246445
2	1	0	1	0	72.9022	0.712286	0.711631	0.367658	1	0.00616975	12	0.000261637
2	1	0	0	0	73.8024	0.721288	0.721148	0.386418	1	0.00650924	12	0.000278664
2	1	0	1	0	74.7026	0.730291	0.730114	0.406852	1	0.00686641	12	0.000297049
2	1	0	0	0	75.6028	0.739293	0.739037	0.429377	1	0.00724286	12	0.000317325
2	1	0	1	0	76.503	0.748295	0.748138	0.454079	1	0.00764056	12	0.000339714
2	1	0	0	0	77.4032	0.757297	0.756872	0.480594	1	0.00806121	12	0.000363748
2	1	0	1	0	78.3035	0.7663	0.765809	0.51041	1	0.00850757	12	0.000390877
2	1	0	1	0	79.2037	0.775301	0.774412	0.543492	1	0.00898204	12	0.000420886
2	1	0	0	0	80.104	0.784303	0.784459	0.579646	1	0.00948755	12	0.000454708
2	1	0	1	0	81.0042	0.793305	0.793474	0.619079	1	0.0100271	12	0.000491223
2	1	0	0	0	81.9044	0.802307	0.802041	0.663101	1	0.0106042	12	0.000531834
2	1	0	1	0	82.8046	0.81131	0.811548	0.710742	1	0.0112229	12	0.000576801
2	1	0	0	0	83.7048	0.820312	0.819768	0.762103	1	0.0118862	12	0.000624748
2	1	0	1	0	84.605	0.829314	0.828577	0.816526	1	0.0125968	12	0.000676555
2	1	0	0	0	85.5052	0.838316	0.838279	0.873871	1	0.0133576	12	0.000732548
2	1	0	1	0	86.4054	0.847318	0.846817	0.934215	1	0.0141713	12	0.000791109
2	1	0	0	0	87.3056	0.85632	0.856403	0.997902	1	0.0150409	12	0.000854607
2	1	0	1	0	88.2058	0.865322	0.86514	1.06291	1	0.0159684	12	0.000919568
2	1	0	0	0	89.136	0.874624	0.873489	1.13325	1	0.0169912	11	0.00098988
2	1	0	1	0	90.0362	0.883627	0.883078	1.20515	1	0.0180446	11	0.00106424
2	1	0	0	0	90.9364	0.892629	0.89204	1.27019	1	0.0191591	11	0.00113306
2	1	0	1	0	91.8366	0.901631	0.902706	1.33634	1	0.0203347	11	0.00120632
2	1	0	0	0	92.7368	0.910633	0.910651	1.40042	1	0.0215685	11	0.00127529
2	1	0	1	0	93.6371	0.919635	0.919362	1.46244	1	0.0228588	11	0.00134451
2	1	0	1	0	94.5373	0.928636	0.928482	1.52236	1	0.0242029	11	0.00141348
2	1	0	0	0	95.4376	0.937639	0.936292	1.5799	1	0.025599	11	0.00147925
2	1	0	1	0	96.3378	0.946641	0.946768	1.64156	1	0.0270487	11	0.00155418
2	1	0	0	0	97.238	0.955643	0.954971	1.69624	1	0.0285518	11	0.00161986
2	1	0	1	0	98.1382	0.964646	0.964318	1.7551	1	0.0301062	11	0.00169247
2	1	0	0	0	99.0384	0.973648	0.972866	1.81483	1	0.0317137	11	0.00176558
2	1	0	1	0	99.9386	0.98265	0.982866	1.877	1	0.0333766	11	0.00184484
2	1	0	0	0	100.839	0.991652	0.991736	1.93399	1	0.0350932	11	0.001918
2	1	0	1	0	101.674	1	1.00026	1.98984	1	0.0367324	11	0.00199036
2	1	0	0	0	102.53	0.991452	0.992093	1.83803	1	0.0383681	11	0.0018235
2	1	0	1	0	103.43	0.98245	0.982591	1.69932	1	0.0399587	11	0.00166974
2	1	0	0	0	104.33	0.973448	0.973303	1.57647	1	0.0414342	11	0.00153438
2	1	0	1	0	105.23	0.964446	0.963791	1.46387	1	0.0428001	11	0.00141087
2	1	0	0	0	106.13	0.955443	0.955153	1.359	1	0.0440691	11	0.00129805
2	1	0	1	0	107.031	0.946441	0.946066	1.25978	1	0.0452464	11	0.00119183
2	1	0	0	0	107.931	0.937439	0.937074	1.17105	1	0.0463395	11	0.00109736
2	1	0	1	0	108.831	0.928437	0.928753	1.08515	1	0.0473541	11	0.00100784
2	1	0	1	0	109.731	0.919435	0.918841	1.00508	1	0.0482935	11	0.000923509
2	1	0	0	0	110.632	0.910433	0.910415	0.928823	1	0.0491634	11	0.000845614
2	1	0	1	0	111.532	0.901431	0.902127	0.85651	1	0.0499661	11	0.000772681
2	1	0	0	0	112.432	0.892429	0.891986	0.789444	1	0.0507063	11	0.000704173
2	1	0	1	0	113.332	0.883427	0.883324	0.725591	1	0.0513877	11	0.000640932
2	1	0	0	0	114.232	0.874424	0.874368	0.665414	1	0.0520128	11	0.000581817
2	1	0	1	0	115.133	0.865422	0.864803	0.607421	1	0.0525857	11	0.000525299
2	1	0	0	0	116.033	0.85642	0.856178	0.555867	1	0.053109	11	0.000475921
2	1	0	1	0	116.933	0.847418	0.847191	0.505324	1	0.0535857	11	0.000428106
2	1	0	0	0	117.833	0.838416	0.838208	0.457436	1	0.0540183	11	0.000383427
2	1	0	1	0	118.763	0.829114	0.82939	0.411628	1	0.0544217	12	0.0003414
2	1	0	0	0	119.664	0.820112	0.819432	0.371049	1	0.0547733	12	0.000304049
2	1	0	1	0	120.564	0.81111	0.810657	0.33328	1	0.0550898	12	0.000270176
2	1	0	0	0	121.464	0.802107	0.801961	0.298464	1	0.0553739	12	0.000239357
2	1	0	1	0	122.364	0.793105	0.792417	0.266943	1	0.055628	12	0.00021153
2	1	0	1	0	123.264	0.784102	0.783886	0.237775	1	0.0558546	12	0.000186389
2	1	0	1	0	124.165	0.775102	0.774828	0.210837	1	0.0560561	12	0.000163362
2	1	0	1	0	125.065	0.766099	0.765535	0.186797	1	0.0562346	12	0.000143
2	1	0	0	0	125.965	0.757097	0.756962	0.164674	1	0.0563923	12	0.000124652
2	1	0	1	0	126.865	0.748095	0.748168	0.144826	1	0.0565312	12	0.000108355
2	1	0	0	0	127.766	0.739093	0.7387	0.126855	1	0.056653	12	9.37076e-05
2	1	0	1	0	128.666	0.73009	0.729722	0.110965	1	0.0567598	12	8.09735e-05
2	1	0	0	0	129.566	0.721088	0.720823	0.0966446	1	0.0568528	12	6.96637e-05
2	1	0	1	0	130.466	0.712086	0.712066	0.0840348	1	0.0569338	12	5.98384e-05
2	1	0	0	0	131.366	0.703084	0.704003	0.0729471	1	0.0570041	12	5.1355e-05
2	1	0	1	0	132.267	0.694082	0.694554	0.0631942	1	0.0570651	12	4.38918e-05
2	1	0	0	0	133.167	0.68508	0.685092	0.0547551	1	0.0571178	12	3.75123e-05
2	1	0	1	0	134.067	0.676078	0.67528	0.0473681	1	0.0571635	12	3.19868e-05
2	1	0	0	0	134.967	0.667076	0.665689	0.0410419	1	0.0572031	12	2.73211e-05
2	1	0	1	0	135.867	0.658074	0.658002	0.0355347	1	0.0572373	12	2.33819e-05
2	1	0	0	0	136.768	0.649072	0.648698	0.0308933	1	0.057267	12	2.00404e-05
2	1	0	1	0	137.668	0.640069	0.639769	0.0270246	1	0.0572928	12	1.72895e-05
2	1	0	0	0	138.568	0.631067	0.631377	0.0235932	1	0.0573153	12	1.48962e-05
2	1	0	1	0	139.468	0.622065	0.621393	0.0204638	1	0.057335	12	1.27161e-05
2	1	0	1	0	140.368	0.613064	0.612596	0.0180099	1	0.0573522	12	1.10328e-05
2	1	0	0	0	141.269	0.604061	0.604145	0.0160327	1	0.0573673	12	9.68605e-06
2	0	0	1	0	142.169	0.595059	0.595341	0.0140283	1	0.0573806	12	8.35165e-06
2	0	0	0	0	143.069	0.586057	0.585281	0.0123805	1	0.0573924	12	7.24604e-06
2	0	0	1	0	143.969	0.577055	0.576592	0.0110708	1	0.0574027	12	6.38334e-06
2	0	0	0	0	144.87	0.568053	0.568025	0.00967032	1	0.0574118	12	5.49299e-06
2	0	0	1	0	145.77	0.55905	0.559101	0.00861766	1	0.0574199	12	4.81814e-06
2	0	0	0	0	146.67	0.550048	0.549866	0.00758666	1	0.057427	12	4.17165e-06
2	0	0	1	0	147.57	0.541046	0.541548	0.00665637	1	0.0574332	12	3.60474e-06
2	0	0	0	0	148.47	0.532044	0.531668	0.00588106	1	0.0574387	12	3.12677e-06
2	0	0	1	0	149.371	0.523042	0.522396	0.00519978	1	0.0574436	12	2.71635e-06
2	0	0	0	0	150.271	0.51404	0.513309	0.00455989	1	0.0574478	12	2.34063e-06
2	1	0	1	0	151.171	0.505038	0.504688	0.00395065	1	0.0574514	12	1.99384e-06
2	1	0	0	0	152.071	0.496036	0.496472	0.00340486	1	0.0574546	12	1.69042e-06
2	1	0	1	0	152.971	0.487033	0.486543	0.00307335	1	0.0574574	12	1.49532e-06
2	1	0	0	0	153.872	0.478031	0.477549	0.00252214	1	0.0574597	12	1.20445e-06
2	1	0	1	0	154.772	0.469029	0.468171	0.00222861	1	0.0574618	12	1.04337e-06
2	1	0	1	0	155.672	0.460027	0.459649	0.00194614	1	0.0574634	12	8.94542e-07
2	0	0	0	0	156.572	0.451025	0.450948	0.00159256	1	0.0574648	12	7.1816e-07
2	0	0	1	0	157.473	0.442023	0.440913	0.00124493	1	0.0574659	12	5.48905e-07
2	0	0	0	0	158.373	0.433021	0.432966	0.000965525	1	0.0574667	12	4.18039e-07
2	0	0	1	0	159.273	0.424019	0.423423	0.000794428	1	0.0574673	12	3.36379e-07
2	1	0	0	0	160.173	0.415017	0.414668	0.000518941	1	0.0574677	12	2.15188e-07
2	1	0	1	0	161.073	0.406015	0.4055	0.000260947	1	0.0574679	12	1.05814e-07
2	1	0	0	0	161.974	0.397012	0.396877	0.000123572	1	0.0574679	12	4.90428e-08
2	1	0	1	0	162.874	0.38801	0.387621	-0.000101112	1	0.0574677	12	-3.91932e-08
2	1	0	0	0	163.774	0.379008	0.378283	-0.000362963	1	0.0574674	12	-1.37303e-07
2	1	0	1	0	164.674	0.370006	0.370074	-0.000603433	1	0.0574669	12	-2.23315e-07
2	1	0	0	0	165.574	0.361004	0.360218	-0.000603507	1	0.0574662	12	-2.17394e-07
2	0	0	1	0	166.475	0.352002	0.351886	-0.000781937	1	0.0574654	12	-2.75152e-07
2	0	0	0	0	167.375	0.343	0.342844	-0.000982176	1	0.0574645	12	-3.36733e-07
2	0	0	1	0	168.275	0.333998	0.33379	-0.0011579	1	0.0574634	12	-3.86495e-07
2	0	0	0	0	169.175	0.324996	0.325593	-0.0012987	1	0.0574622	12	-4.22849e-07
2	0	0	1	0	170.075	0.315993	0.31519	-0.00153144	1	0.0574609	12	-4.82695e-07
2	0	0	1	0	170.976	0.306991	0.306054	-0.00142255	1	0.0574595	12	-4.35377e-07
2	0	0	1	0	171.876	0.29799	0.29714	-0.00170251	1	0.0574579	12	-5.05883e-07
2	0	0	1	0	172.776	0.288987	0.287988	-0.00178705	1	0.0574562	12	-5.1465e-07
2	0	0	0	0	173.676	0.279985	0.279584	-0.0018504	1	0.0574544	12	-5.17343e-07
2	0	0	1	0	174.577	0.270983	0.270885	-0.00204653	1	0.0574524	12	-5.54374e-07
2	0	0	0	0	175.477	0.261981	0.261254	-0.00231256	1	0.0574503	12	-6.04168e-07
2	0	0	1	0	176.377	0.252979	0.252351	-0.0023684	1	0.0574482	12	-5.97669e-07
2	0	0	0	0	177.277	0.243977	0.243883	-0.00237217	1	0.0574459	12	-5.78532e-07
2	0	0	1	0	178.177	0.234974	0.234751	-0.00260962	1	0.0574434	12	-6.12612e-07
2	0	0	0	0	179.078	0.225972	0.225732	-0.00277691	1	0.0574409	12	-6.26837e-07
2	0	0	1	0	179.978	0.21697	0.217471	-0.00286289	1	0.0574383	12	-6.22596e-07
2	0	0	0	0	180.878	0.207968	0.207128	-0.0030421	1	0.0574355	12	-6.30106e-07
2	0	0	1	0	181.778	0.198966	0.198374	-0.00318588	1	0.0574326	12	-6.31998e-07
2	0	0	0	0	182.678	0.189964	0.189513	-0.00326975	1	0.0574297	12	-6.19661e-07
2	1	0	1	0	183.579	0.180962	0.181698	-0.0034102	1	0.0574265	12	-6.19627e-07
2	1	0	0	0	184.479	0.17196	0.172182	-0.00374898	1	0.0574233	12	-6.45505e-07
2	1	0	1	0	185.379	0.162958	0.162978	-0.00382468	1	0.05742	12	-6.23339e-07
2	1	0	1	0	186.279	0.153955	0.154975	-0.00389341	1	0.0574165	12	-6.03381e-07
2	1	0	1	0	187.179	0.144954	0.144703	-0.00401667	1	0.057413	12	-5.81222e-07
2	1	0	1	0	188.08	0.135951	0.13481	-0.00401251	1	0.0574093	12	-5.40927e-07
2	0	0	0	0	188.98	0.126949	0.126621	-0.00413551	1	0.0574055	12	-5.23641e-07
2	0	0	1	0	189.88	0.117947	0.118063	-0.0041711	1	0.0574016	12	-4.92453e-07
2	0	0	0	0	190.78	0.108945	0.109305	-0.00426816	1	0.0573976	12	-4.6653e-07
2	0	0	1	0	191.681	0.0999427	0.0998222	-0.00438738	1	0.0573935	12	-4.37958e-07
2	0	0	0	0	192.581	0.0909406	0.0906112	-0.00453676	1	0.0573893	12	-4.11081e-07
2	0	0	1	0	193.481	0.0819385	0.0816122	-0.00470027	1	0.057385	12	-3.83599e-07
2	0	0	0	0	194.381	0.0729364	0.0724701	-0.00466656	1	0.0573805	12	-3.38186e-07
2	0	0	1	0	195.281	0.0639343	0.0638499	-0.00474517	1	0.057376	12	-3.02978e-07
2	0	0	0	0	196.182	0.0549322	0.0541731	-0.00498359	1	0.0573714	12	-2.69977e-07
2	1	0	1	0	197.082	0.0459301	0.0446534	-0.00514055	1	0.0573666	12	-2.29543e-07
2	1	0	0	0	197.982	0.0369279	0.0363121	-0.00519299	1	0.0573618	12	-1.88568e-07
2	1	0	1	0	198.882	0.0279258	0.0272676	-0.00534837	1	0.0573568	12	-1.45837e-07
2	1	0	0	0	199.782	0.0189237	0.0187799	-0.00544187	1	0.0573518	12	-1.02198e-07
2	1	0	1	0	200.683	0.00992161	0.00986159	-0.00548809	1	0.0573467	12	-5.41213e-08
2	1	0	1	0	201.583	0.000918612	0.00130931	-0.00568663	1	0.0573414	12	-7.44557e-09
2	1	0	0	1	202.334	0.00652081	0.00521894	-0.00494184	2	0.0573376	12	-2.57912e-08
2	1	0	1	1	203.234	0.0155229	0.0147206	-0.00432764	2	0.0573336	12	-6.37055e-08
2	1	0	0	1	204.134	0.024525	0.0248046	-0.00401662	2	0.05733	12	-9.96307e-08
2	1	0	1	1	205.034	0.0335272	0.0332032	-0.00356	2	0.0573269	12	-1.18204e-07
2	1	0	1	1	205.934	0.0425301	0.0418843	-0.00326006	2	0.057324	12	-1.36545e-07
2	0	0	1	1	206.835	0.0515311	0.0500494	-0.0030361	2	0.0573215	12	-1.51955e-07
2	1	0	1	1	207.735	0.0605335	0.0616786	-0.00270465	2	0.0573192	12	-1.66819e-07
2	1	0	0	1	208.635	0.0695356	0.0686771	-0.00245723	2	0.0573172	12	-1.68755e-07
2	1	0	1	1	209.535	0.0785377	0.0781491	-0.00210995	2	0.0573154	12	-1.64891e-07
2	0	0	0	1	210.436	0.0875398	0.0869655	-0.0018953	2	0.0573138	12	-1.64826e-07
2	1	0	1	1	211.336	0.0965419	0.0961151	-0.0016806	2	0.0573124	12	-1.61531e-07
2	1	0	0	1	212.236	0.105544	0.105448	-0.00136456	2	0.0573111	12	-1.4389e-07
2	0	0	1	1	213.136	0.114546	0.113804	-0.00118529	2	0.0573101	12	-1.34891e-07
2	0	0	0	1	214.036	0.123548	0.123513	-0.00115548	2	0.0573092	12	-1.42717e-07
2	1	0	1	1	214.937	0.13255	0.132498	-0.000952534	2	0.0573085	12	-1.26209e-07
2	1	0	0	1	215.837	0.141552	0.141177	-0.000887903	2	0.0573079	12	-1.25351e-07
2	1	0	1	1	216.737	0.150555	0.150696	-0.000777637	2	0.0573075	12	-1.17187e-07
2	1	0	0	1	217.637	0.159557	0.159354	-0.000565249	2	0.0573071	12	-9.00745e-08
2	1	0	1	1	218.537	0.168559	0.168717	-0.000415033	2	0.057307	12	-7.00233e-08
2	0	0	0	1	219.438	0.177561	0.177979	-0.000264993	2	0.0573069	12	-4.71634e-08
2	0	0	1	1	220.338	0.186563	0.186105	-0.000166243	2	0.057307	12	-3.09388e-08
2	1	0	0	1	221.238	0.195565	0.195409	9.97901e-05	2	0.0573072	12	1.94999e-08
2	1	0	1	1	222.138	0.204568	0.204482	0.000102025	2	0.0573075	12	2.08623e-08
2	1	0	1	1	223.038	0.213569	0.212935	0.000151069	2	0.0573079	12	3.21678e-08
2	1	0	0	1	223.939	0.222571	0.223036	0.000275143	2	0.0573084	12	6.13667e-08
2	1	0	1	1	224.839	0.231574	0.231254	0.000444502	2	0.057309	12	1.02793e-07
2	1	0	0	1	225.739	0.240576	0.240307	0.000570215	2	0.0573097	12	1.37027e-07
2	1	0	1	1	226.639	0.249578	0.249095	0.000701627	2	0.0573106	12	1.74772e-07
2	0	0	0	1	227.54	0.25858	0.258265	0.000840063	2	0.0573115	12	2.16959e-07
2	0	0	1	1	228.44	0.267582	0.267467	0.00105304	2	0.0573126	12	2.81653e-07
2	0	0	0	1	229.34	0.276584	0.275873	0.00112399	2	0.0573138	12	3.10078e-07
2	0	0	1	1	230.24	0.285586	0.284741	0.00126552	2	0.057315	12	3.60345e-07
2	0	0	0	1	231.14	0.294588	0.294392	0.0014308	2	0.0573164	12	4.21215e-07
2	1	0	1	1	232.041	0.30359	0.303497	0.00159088	2	0.0573179	12	4.82826e-07
2	1	0	0	1	232.941	0.312593	0.31219	0.00182189	2	0.0573196	12	5.68777e-07
2	1	0	1	1	233.841	0.321595	0.321658	0.00193873	2	0.0573213	12	6.23607e-07
2	1	0	0	1	234.741	0.330597	0.329862	0.00204631	2	0.0573232	12	6.75002e-07
2	0	0	1	1	235.641	0.339599	0.339347	0.00214171	2	0.0573253	12	7.26782e-07
2	0	0	0	1	236.542	0.348601	0.348386	0.00225882	2	0.0573274	12	7.86942e-07
2	0	0	1	1	237.442	0.357604	0.358096	0.00242735	2	0.0573298	12	8.69222e-07
2	1	0	1	1	238.342	0.366605	0.366381	0.0026319	2	0.0573322	12	9.64279e-07
2	0	0	0	1	239.242	0.375607	0.374973	0.00294042	2	0.0573349	12	1.10258e-06
2	1	0	1	1	240.143	0.384609	0.384664	0.00316047	2	0.0573377	12	1.21572e-06
2	1	0	0	1	241.043	0.393612	0.392795	0.00346846	2	0.0573407	12	1.36239e-06
2	1	0	1	1	241.943	0.402614	0.402126	0.00367118	2	0.057344	12	1.47628e-06
2	1	0	0	1	242.843	0.411616	0.41171	0.00398318	2	0.0573474	12	1.63991e-06
2	0	0	1	1	243.743	0.420618	0.419812	0.00419481	2	0.0573511	12	1.76103e-06
2	0	0	0	1	244.644	0.42962	0.429556	0.00440797	2	0.0573551	12	1.89347e-06
2	0	0	1	1	245.544	0.438622	0.438592	0.00467832	2	0.0573593	12	2.05187e-06
2	0	0	0	1	246.444	0.447624	0.447748	0.00484866	2	0.0573638	12	2.17098e-06
2	1	0	1	1	247.344	0.456626	0.457014	0.00523299	2	0.0573686	12	2.39155e-06
2	1	0	0	1	248.244	0.465629	0.465299	0.00563726	2	0.0573737	12	2.62301e-06
2	1	0	1	1	249.145	0.474631	0.474666	0.00605871	2	0.0573792	12	2.87586e-06
2	1	0	0	1	250.045	0.483633	0.482542	0.00656405	2	0.0573851	12	3.16743e-06
2	1	0	1	1	250.945	0.492635	0.492264	0.00707684	2	0.0573914	12	3.48368e-06
2	0	0	0	1	251.845	0.501637	0.502117	0.00750615	2	0.0573982	12	3.76897e-06
2	0	0	1	1	252.745	0.51064	0.510669	0.00807178	2	0.0574054	12	4.12201e-06
2	0	0	1	1	253.646	0.519641	0.519973	0.00883703	2	0.0574132	12	4.59502e-06
2	0	0	1	1	254.546	0.528642	0.528945	0.00947936	2	0.0574216	12	5.01406e-06
2	1	0	1	1	255.446	0.537645	0.537152	0.0102171	2	0.0574307	12	5.48811e-06
2	0	0	0	1	256.346	0.546648	0.545673	0.0110114	2	0.0574404	12	6.00865e-06
2	0	0	1	1	257.247	0.55565	0.555766	0.0118885	2	0.0574509	12	6.60723e-06
2	0	0	0	1	258.147	0.564652	0.565232	0.012782	2	0.0574621	12	7.22478e-06
2	0	0	1	1	259.047	0.573654	0.572545	0.0138775	2	0.0574743	12	7.94551e-06
2	0	0	0	1	259.947	0.582656	0.582471	0.0149951	2	0.0574875	12	8.73422e-06
2	1	0	1	1	260.847	0.591658	0.591901	0.0161235	2	0.0575017	12	9.54352e-06
2	1	0	0	1	261.748	0.60066	0.599933	0.0175153	2	0.0575171	12	1.0508e-05
2	1	0	1	1	262.648	0.609662	0.609737	0.0191102	2	0.0575338	12	1.16522e-05
2	1	0	0	1	263.548	0.618664	0.618088	0.0208686	2	0.057552	12	1.28986e-05
2	1	0	1	1	264.448	0.627667	0.627045	0.0228687	2	0.0575719	12	1.43397e-05
2	1	0	0	1	265.348	0.636669	0.635745	0.0250648	2	0.0575937	12	1.59348e-05
2	1	0	1	1	266.249	0.645671	0.644725	0.0277802	2	0.0576176	12	1.79106e-05
2	1	0	0	1	267.149	0.654673	0.654755	0.0307744	2	0.0576441	12	2.01497e-05
2	1	0	1	1	268.049	0.663675	0.663052	0.0344138	2	0.0576737	12	2.28181e-05
2	1	0	1	1	268.949	0.672678	0.672258	0.0387792	2	0.0577068	12	2.60697e-05
2	1	0	1	1	269.849	0.681678	0.681894	0.0439282	2	0.0577442	12	2.99544e-05
2	1	0	1	1	270.75	0.690681	0.690184	0.0499821	2	0.0577866	12	3.44968e-05
2	1	0	0	1	271.65	0.699683	0.699481	0.0572751	2	0.0578351	12	4.00629e-05
2	1	0	1	1	272.55	0.708686	0.708911	0.065757	2	0.0578906	12	4.66159e-05
2	1	0	0	1	273.45	0.717688	0.716881	0.0757544	2	0.0579545	12	5.43069e-05
2	1	0	1	1	274.351	0.72669	0.726403	0.0874953	2	0.0580282	12	6.35568e-05
2	1	0	0	1	275.251	0.735692	0.734811	0.101042	2	0.0581132	12	7.4247e-05
2	1	0	1	1	276.151	0.744694	0.744808	0.116601	2	0.0582113	12	8.68455e-05
2	1	0	0	1	277.051	0.753696	0.753176	0.134396	2	0.0583244	12	0.000101224
2	1	0	1	1	277.951	0.762698	0.761971	0.154759	2	0.0584547	12	0.000117922
2	1	0	0	1	278.852	0.7717	0.772212	0.177661	2	0.0586042	12	0.000137192
2	1	0	1	1	279.752	0.780702	0.780117	0.202934	2	0.0587757	12	0.000158312
2	1	0	0	1	280.652	0.789704	0.789356	0.231701	2	0.0589717	12	0.000182894
2	1	0	1	1	281.552	0.798707	0.798042	0.263888	2	0.059195	12	0.000210594
2	1	0	0	1	282.452	0.807709	0.807051	0.299399	2	0.0594487	12	0.000241631
2	1	0	1	1	283.353	0.816711	0.817422	0.337447	2	0.0597356	12	0.000275837
2	1	0	1	1	284.253	0.825714	0.825597	0.379215	2	0.0600588	12	0.000313079
2	1	0	1	1	285.153	0.834714	0.834725	0.424582	2	0.0604209	12	0.000354409
2	1	0	1	1	286.053	0.843717	0.843412	0.472697	2	0.0608255	12	0.000398678
2	1	0	0	1	286.954	0.852719	0.852369	0.525927	2	0.0612752	12	0.000448283
2	1	0	1	1	287.854	0.861721	0.862198	0.579582	2	0.0617729	12	0.000499714
2	1	0	0	1	288.754	0.870724	0.869784	0.635746	2	0.0623202	12	0.000552962
2	1	0	1	1	289.654	0.879726	0.879953	0.695084	2	0.06292	12	0.000611642
2	1	0	0	1	290.554	0.888728	0.887551	0.756179	2	0.0635735	12	0.000671147
2	1	0	1	1	291.455	0.89773	0.898627	0.81958	2	0.0642828	12	0.000736496
2	1	0	0	1	292.355	0.906732	0.906421	0.88272	2	0.0650495	12	0.000800116
2	1	0	1	1	293.255	0.915734	0.91551	0.947593	2	0.0658738	12	0.00086753
2	1	0	0	1	294.155	0.924736	0.923984	1.01589	2	0.0667594	12	0.000938671
2	1	0	1	1	295.085	0.934038	0.934228	1.08728	2	0.0677386	11	0.00101577
2	1	0	0	1	295.986	0.943041	0.943412	1.15318	2	0.068746	11	0.00108792
2	1	0	1	1	296.886	0.952043	0.951036	1.21938	2	0.0698147	11	0.00115967
2	1	0	0	1	297.786	0.961045	0.961199	1.2878	2	0.0709429	11	0.00123783
2	1	0	1	1	298.686	0.970047	0.969203	1.35585	2	0.0721336	11	0.0013141
2	1	0	1	1	299.586	0.97905	0.980047	1.42216	2	0.0733857	11	0.00139379
2	1	0	1	1	300.487	0.98805	0.988919	1.48527	2	0.074697	11	0.00146881
2	1	0	1	1	301.387	0.997053	0.997538	1.55058	2	0.0760663	11	0.00154677
2	1	0	0	1	302.138	0.995453	0.994314	1.51606	2	0.077231	11	0.00150744
2	1	0	1	1	303.038	0.986451	0.986754	1.40996	2	0.0785474	11	0.00139128
2	1	0	0	1	303.938	0.977449	0.977792	1.31077	2	0.0797712	11	0.00128167
2	1	0	1	1	304.838	0.968446	0.968563	1.22153	2	0.0809107	11	0.00118313
2	1	0	0	1	305.738	0.959444	0.959515	1.13756	2	0.0819716	11	0.0010915
2	1	0	1	1	306.639	0.950442	0.950726	1.05882	2	0.0829585	11	0.00100664
2	1	0	0	1	307.539	0.94144	0.941728	0.985092	2	0.0838766	11	0.000927688
2	1	0	1	1	308.439	0.932438	0.93186	0.915679	2	0.084731	11	0.000853285
2	1	0	0	1	309.339	0.923436	0.92381	0.849191	2	0.0855241	11	0.000784491
2	1	0	1	1	310.239	0.914434	0.913546	0.7852	2	0.0862593	11	0.000717317
2	1	0	0	1	311.14	0.905432	0.90535	0.726897	2	0.0869389	11	0.000658096
2	1	0	1	1	312.04	0.89643	0.896684	0.667428	2	0.087566	11	0.000598473
2	1	0	0	1	312.94	0.887427	0.88625	0.61713	2	0.0881432	11	0.000546932
2	1	0	1	1	313.84	0.878425	0.878522	0.564402	2	0.0886735	11	0.00049584
2	1	0	0	1	314.74	0.869423	0.868862	0.516836	2	0.0891588	11	0.00044906
2	1	0	1	1	315.641	0.860421	0.861067	0.470398	2	0.0896021	11	0.000405044
2	1	0	1	1	316.571	0.851119	0.850938	0.426439	2	0.090018	12	0.000362873
2	1	0	0	1	317.471	0.842117	0.841925	0.385113	2	0.090382	12	0.000324237
2	1	0	1	1	318.371	0.833115	0.832751	0.347863	2	0.0907112	12	0.000289683
2	1	0	0	1	319.272	0.824113	0.82356	0.312994	2	0.091008	12	0.00025777
2	1	0	1	1	320.172	0.81511	0.814937	0.281244	2	0.0912746	12	0.000229196
2	1	0	0	1	321.072	0.806108	0.805634	0.251517	2	0.0915134	12	0.00020263
2	1	0	1	1	321.972	0.797106	0.796259	0.223627	2	0.0917266	12	0.000178065
2	1	0	0	1	322.872	0.788104	0.788086	0.199463	2	0.0919164	12	0.000157194
2	1	0	1	1	323.773	0.779102	0.778426	0.176646	2	0.092085	12	0.000137506
2	1	0	0	1	324.673	0.7701	0.771082	0.155861	2	0.092234	12	0.000120182
2	1	0	1	1	325.573	0.761098	0.761478	0.137036	2	0.0923653	12	0.00010435
2	1	0	0	1	326.473	0.752096	0.751539	0.12023	2	0.0924807	12	9.03574e-05
2	1	0	1	1	327.373	0.743094	0.742758	0.105095	2	0.0925817	12	7.806e-05
2	1	0	0	1	328.274	0.734091	0.733528	0.0917384	2	0.0926699	12	6.72927e-05
2	1	0	1	1	329.174	0.725089	0.724388	0.0798158	2	0.0927467	12	5.78176e-05
2	1	0	1	1	330.074	0.716086	0.71657	0.069344	2	0.0928134	12	4.96898e-05
2	1	0	1	1	330.974	0.707086	0.707194	0.0599884	2	0.0928711	12	4.24235e-05
2	1	0	1	1	331.875	0.698083	0.697311	0.0515389	2	0.0929211	12	3.59386e-05
2	1	0	0	1	332.775	0.689081	0.68924	0.044517	2	0.0929642	12	3.06829e-05
2	1	0	1	1	333.675	0.680079	0.679483	0.0384041	2	0.0930015	12	2.60949e-05
2	1	0	0	1	334.575	0.671077	0.66985	0.0333313	2	0.0930336	12	2.2327e-05
2	1	0	1	1	335.475	0.662075	0.661558	0.0288529	2	0.0930614	12	1.90879e-05
2	1	0	0	1	336.376	0.653072	0.652525	0.0250209	2	0.0930855	12	1.63268e-05
2	1	0	1	1	337.276	0.64407	0.644417	0.0217993	2	0.0931064	12	1.40478e-05
2	1	0	0	1	338.176	0.635068	0.633646	0.0190993	2	0.0931246	12	1.21022e-05
2	1	0	1	1	339.076	0.626066	0.626154	0.0167855	2	0.0931406	12	1.05103e-05
2	0	0	0	1	339.976	0.617064	0.616557	0.0148797	2	0.0931546	12	9.1742e-06
2	1	0	1	1	340.877	0.608062	0.608112	0.0132258	2	0.0931669	12	8.04277e-06
2	1	0	0	1	341.777	0.59906	0.60006	0.0117087	2	0.0931779	12	7.02594e-06
2	1	0	1	1	342.677	0.590058	0.588857	0.0105244	2	0.0931876	12	6.19737e-06
2	1	0	0	1	343.577	0.581056	0.580386	0.00936102	2	0.0931962	12	5.433e-06
2	1	0	1	1	344.477	0.572053	0.571615	0.00828738	2	0.0932039	12	4.73719e-06
2	1	0	0	1	345.378	0.563051	0.562821	0.00741912	2	0.0932108	12	4.17564e-06
2	1	0	1	1	346.278	0.554049	0.553463	0.00666147	2	0.0932169	12	3.68688e-06
2	1	0	1	1	347.178	0.545048	0.545529	0.00611858	2	0.0932224	12	3.33786e-06
2	1	0	0	1	348.078	0.536045	0.534698	0.00531271	2	0.0932273	12	2.8407e-06
2	1	0	1	1	348.979	0.527043	0.52699	0.0049054	2	0.0932317	12	2.5851e-06
2	1	0	0	1	349.879	0.518041	0.518347	0.00443826	2	0.0932356	12	2.30056e-06
2	1	0	1	1	350.779	0.509039	0.509181	0.00392902	2	0.0932391	12	2.00058e-06
2	1	0	0	1	351.679	0.500037	0.499086	0.00365183	2	0.0932423	12	1.82258e-06
2	0	0	1	1	352.579	0.491034	0.490956	0.00325798	2	0.093245	12	1.59953e-06
2	0	0	0	1	353.48	0.482032	0.481225	0.00292658	2	0.0932475	12	1.40835e-06
2	0	0	1	1	354.38	0.47303	0.473009	0.00249215	2	0.0932497	12	1.17881e-06
2	0	0	0	1	355.28	0.464028	0.464015	0.00229743	2	0.0932516	12	1.06604e-06
2	0	0	1	1	356.18	0.455026	0.455018	0.00199012	2	0.0932532	12	9.0554e-07
2	0	0	0	1	357.08	0.446024	0.445746	0.00171718	2	0.0932547	12	7.65427e-07
2	1	0	1	1	357.981	0.437022	0.436686	0.00142533	2	0.0932559	12	6.22423e-07
2	1	0	0	1	358.881	0.42802	0.428249	0.00124863	2	0.093257	12	5.34723e-07
2	1	0	1	1	359.781	0.419018	0.418576	0.00101706	2	0.0932578	12	4.25718e-07
2	1	0	0	1	360.681	0.410016	0.409648	0.000837029	2	0.0932586	12	3.42887e-07
2	1	0	1	1	361.581	0.401012	0.401218	0.000615216	2	0.0932591	12	2.46836e-07
2	1	0	1	1	362.482	0.392011	0.391625	0.00055264	2	0.0932596	12	2.16428e-07
2	1	0	0	1	363.382	0.383009	0.382285	0.000352457	2	0.0932599	12	1.34739e-07
2	1	0	1	1	364.282	0.374007	0.372997	0.000359521	2	0.09326	12	1.341e-07
2	1	0	0	1	365.182	0.365005	0.365109	9.27217e-05	2	0.0932601	12	3.38535e-08
2	0	0	1	1	366.083	0.356003	0.355414	1.95206e-05	2	0.09326	12	6.93789e-09
2	0	0	0	1	366.983	0.347001	0.346345	-6.38708e-05	2	0.0932599	12	-2.21213e-08
2	0	0	1	1	367.883	0.337999	0.337938	-0.000199229	2	0.0932596	12	-6.73271e-08
2	1	0	0	1	368.783	0.328996	0.327851	-0.000348149	2	0.0932592	12	-1.14141e-07
2	1	0	1	1	369.683	0.319994	0.319824	-0.000400057	2	0.0932588	12	-1.27948e-07
2	1	0	0	1	370.584	0.310992	0.311391	-0.000551952	2	0.0932582	12	-1.71873e-07
2	1	0	1	1	371.484	0.30199	0.302155	-0.000607424	2	0.0932575	12	-1.83536e-07
2	1	0	0	1	372.384	0.292988	0.292769	-0.000649775	2	0.0932568	12	-1.90234e-07
2	1	0	1	1	373.284	0.283986	0.282703	-0.000802347	2	0.0932559	12	-2.26826e-07
2	1	0	0	1	374.184	0.274984	0.275213	-0.00090497	2	0.093255	12	-2.4906e-07
2	1	0	1	1	375.085	0.265982	0.265331	-0.00110929	2	0.093254	12	-2.94328e-07
2	1	0	0	1	375.985	0.25698	0.256579	-0.00114796	2	0.0932529	12	-2.94542e-07
2	1	0	1	1	376.885	0.247977	0.247482	-0.00121874	2	0.0932517	12	-3.01618e-07
2	1	0	1	1	377.785	0.238975	0.239238	-0.00141919	2	0.0932505	12	-3.39523e-07
2	0	0	1	1	378.685	0.229974	0.230659	-0.0013689	2	0.0932491	12	-3.15749e-07
2	0	0	1	1	379.586	0.220971	0.220763	-0.00137984	2	0.0932477	12	-3.04617e-07
2	0	0	0	1	380.486	0.211969	0.212582	-0.00149242	2	0.0932462	12	-3.17262e-07
2	0	0	1	1	381.386	0.202967	0.202088	-0.00157643	2	0.0932447	12	-3.18577e-07
2	0	0	0	1	382.286	0.193965	0.192722	-0.00149576	2	0.093243	12	-2.88266e-07
2	0	0	1	1	383.187	0.184963	0.184943	-0.00169449	2	0.0932413	12	-3.13383e-07
2	0	0	0	1	384.087	0.175961	0.17537	-0.00181154	2	0.0932395	12	-3.1769e-07
2	0	0	1	1	384.987	0.166958	0.16651	-0.00172233	2	0.0932376	12	-2.86786e-07
2	0	0	0	1	385.887	0.157956	0.158144	-0.00190614	2	0.0932357	12	-3.01445e-07
2	0	0	1	1	386.787	0.148954	0.14808	-0.00197407	2	0.0932337	12	-2.92319e-07
2	0	0	0	1	387.688	0.139952	0.139843	-0.00206819	2	0.0932316	12	-2.89223e-07
2	0	0	1	1	388.588	0.13095	0.131326	-0.00215727	2	0.0932295	12	-2.83305e-07
2	1	0	0	1	389.488	0.121948	0.121155	-0.00225045	2	0.0932272	12	-2.72653e-07
2	1	0	1	1	390.388	0.112946	0.112705	-0.00240164	2	0.0932249	12	-2.70678e-07
2	1	0	0	1	391.288	0.103944	0.103525	-0.00243726	2	0.0932226	12	-2.52318e-07
2	1	0	1	1	392.189	0.0949415	0.0947107	-0.00249256	2	0.0932201	12	-2.36072e-07
2	1	0	1	1	393.089	0.0859388	0.0855648	-0.0025074	2	0.0932176	12	-2.14545e-07
2	1	0	1	1	393.989	0.0769378	0.0764678	-0.00270854	2	0.093215	12	-2.07116e-07
2	0	0	1	1	394.889	0.0679352	0.0682093	-0.00277202	2	0.0932124	12	-1.89077e-07
2	0	0	0	1	395.79	0.0589331	0.0586567	-0.0029152	2	0.0932097	12	-1.70996e-07
2	0	0	1	1	396.69	0.049931	0.0499792	-0.00270081	2	0.0932069	12	-1.34984e-07
2	0	0	0	1	397.59	0.0409289	0.0408996	-0.00270821	2	0.093204	12	-1.10765e-07
2	0	0	1	1	398.49	0.0319268	0.031522	-0.00273188	2	0.0932011	12	-8.61143e-08
2	1	0	0	1	399.39	0.0229247	0.0225496	-0.00287056	2	0.0931981	12	-6.47301e-08
2	1	0	1	1	400.291	0.0139226	0.0133905	-0.00299734	2	0.0931951	12	-4.01359e-08
2	1	0	0	1	401.191	0.00492044	0.00418158	-0.00314835	2	0.093192	12	-1.31651e-08
2	1	0	0	0	401.942	0.00251988	0.00205701	-0.00288555	3	0.0931895	12	-5.93561e-09
2	0	0	1	0	402.842	0.011522	0.0112087	-0.00234116	3	0.0931872	12	-2.62413e-08
2	0	0	0	0	403.742	0.0205241	0.0204738	-0.002122	3	0.0931853	12	-4.34455e-08
2	0	0	1	0	404.642	0.0295262	0.0291779	-0.00202446	3	0.0931835	12	-5.90694e-08
2	1	0	0	0	405.542	0.0385283	0.0377419	-0.00184436	3	0.093182	12	-6.96098e-08
2	1	0	1	0	406.443	0.0475304	0.0475777	-0.00165947	3	0.0931807	12	-7.89537e-08
2	1	0	0	0	407.343	0.0565325	0.0565311	-0.00137448	3	0.0931795	12	-7.77009e-08
2	0	0	1	0	408.243	0.0655347	0.0652531	-0.00126719	3	0.0931785	12	-8.26882e-08
2	0	0	0	0	409.143	0.0745368	0.0740781	-0.00118739	3	0.0931776	12	-8.79598e-08
2	0	0	1	0	410.043	0.0835389	0.0833475	-0.000906752	3	0.0931768	12	-7.55755e-08
2	0	0	0	0	410.944	0.092541	0.0915202	-0.000846921	3	0.0931762	12	-7.75104e-08
2	1	0	1	0	411.844	0.101543	0.101647	-0.000629232	3	0.0931757	12	-6.39593e-08
2	1	0	0	0	412.744	0.110545	0.110067	-0.000768404	3	0.0931753	12	-8.45763e-08
2	1	0	1	0	413.644	0.119547	0.119059	-0.000605073	3	0.0931751	12	-7.20393e-08
2	1	0	1	0	414.544	0.128549	0.128456	-0.000620187	3	0.0931749	12	-7.96668e-08
2	0	0	0	0	415.445	0.137552	0.137941	-0.000438697	3	0.0931748	12	-6.05145e-08
2	0	0	1	0	416.345	0.146554	0.146229	-0.000437357	3	0.0931748	12	-6.39541e-08
2	0	0	0	0	417.245	0.155556	0.154707	-0.000261577	3	0.0931749	12	-4.04678e-08
2	1	0	1	0	418.145	0.164558	0.164428	6.25274e-06	3	0.0931751	12	1.02813e-09
2	1	0	0	0	419.046	0.17356	0.173324	4.69198e-06	3	0.0931754	12	8.13233e-10
2	1	0	1	0	419.946	0.182562	0.181559	0.000215298	3	0.0931758	12	3.90893e-08
2	1	0	0	0	420.846	0.191564	0.191667	0.000258518	3	0.0931763	12	4.95492e-08
2	1	0	1	0	421.746	0.200566	0.200437	0.000276689	3	0.0931768	12	5.54589e-08
2	1	0	0	0	422.646	0.209568	0.208491	0.000413078	3	0.0931775	12	8.61232e-08
2	0	0	1	0	423.547	0.218571	0.217792	0.000591891	3	0.0931782	12	1.28909e-07
2	0	0	0	0	424.447	0.227573	0.227228	0.000586325	3	0.093179	12	1.3323e-07
2	0	0	1	0	425.347	0.236575	0.23594	0.000705735	3	0.0931799	12	1.66511e-07
2	0	0	0	0	426.247	0.245577	0.245467	0.000961225	3	0.0931808	12	2.35949e-07
2	0	0	1	0	427.147	0.254579	0.253969	0.000988895	3	0.0931819	12	2.51148e-07
2	0	0	0	0	428.048	0.263581	0.263848	0.000985228	3	0.093183	12	2.5995e-07
2	0	0	1	0	428.948	0.272584	0.272265	0.0012025	3	0.0931842	12	3.27399e-07
2	0	0	1	0	429.848	0.281585	0.281635	0.00133831	3	0.0931856	12	3.76915e-07
2	1	0	0	0	430.748	0.290587	0.290547	0.00143602	3	0.093187	12	4.17232e-07
2	1	0	1	0	431.649	0.29959	0.298559	0.00159485	3	0.0931885	12	4.76158e-07
2	1	0	0	0	432.549	0.308592	0.308488	0.00169682	3	0.0931901	12	5.23448e-07
2	1	0	1	0	433.449	0.317594	0.317539	0.00177675	3	0.0931918	12	5.64186e-07
2	1	0	0	0	434.349	0.326596	0.325525	0.00183319	3	0.0931937	12	5.96749e-07
2	1	0	1	0	435.249	0.335598	0.335688	0.00204273	3	0.0931956	12	6.85721e-07
2	0	0	0	0	436.15	0.3446	0.343378	0.0020405	3	0.0931977	12	7.00661e-07
2	0	0	1	0	437.05	0.353602	0.353498	0.00227187	3	0.0931999	12	8.031e-07
2	0	0	0	0	437.95	0.362604	0.361898	0.00239639	3	0.0932022	12	8.67248e-07
2	0	0	1	0	438.85	0.371606	0.371507	0.00260885	3	0.0932047	12	9.69206e-07
2	0	0	0	0	439.75	0.380609	0.380553	0.00293102	3	0.0932073	12	1.11541e-06
2	1	0	1	0	440.651	0.389611	0.388418	0.00317823	3	0.09321	12	1.23448e-06
2	1	0	0	0	441.551	0.398613	0.398345	0.00331145	3	0.093213	12	1.3191e-06
2	1	0	1	0	442.451	0.407615	0.407286	0.00344731	3	0.0932161	12	1.40404e-06
2	1	0	0	0	443.351	0.416617	0.416441	0.00375433	3	0.0932195	12	1.56346e-06
2	0	0	1	0	444.251	0.42562	0.424636	0.00387759	3	0.093223	12	1.64657e-06
2	0	0	1	0	445.152	0.434621	0.433818	0.00412588	3	0.0932267	12	1.78988e-06
2	1	0	0	0	446.052	0.443623	0.444026	0.00443427	3	0.0932307	12	1.96893e-06
2	1	0	1	0	446.952	0.452625	0.452176	0.00471235	3	0.093235	12	2.13081e-06
2	1	0	0	0	447.852	0.461628	0.462107	0.00496713	3	0.0932395	12	2.29535e-06
2	0	0	1	0	448.753	0.47063	0.470247	0.00535331	3	0.0932443	12	2.51738e-06
2	0	0	0	0	449.653	0.479632	0.478788	0.00567864	3	0.0932495	12	2.71887e-06
2	0	0	1	0	450.553	0.488634	0.487728	0.00615996	3	0.093255	12	3.00438e-06
2	1	0	0	0	451.453	0.497636	0.497224	0.00654255	3	0.0932609	12	3.25311e-06
2	1	0	1	0	452.353	0.506638	0.506189	0.00698899	3	0.0932673	12	3.53775e-06
2	1	0	0	0	453.254	0.51564	0.51579	0.00753331	3	0.093274	12	3.88561e-06
2	1	0	1	0	454.154	0.524642	0.52372	0.00816457	3	0.0932813	12	4.27595e-06
2	1	0	0	0	455.054	0.533644	0.53372	0.00875889	3	0.0932891	12	4.6748e-06
2	1	0	1	0	455.954	0.542647	0.541747	0.00937618	3	0.0932975	12	5.07951e-06
2	1	0	0	0	456.854	0.551649	0.551482	0.0101707	3	0.0933065	12	5.60894e-06
2	1	0	1	0	457.755	0.560651	0.560768	0.0110814	3	0.0933163	12	6.21411e-06
2	1	0	0	0	458.655	0.569653	0.568539	0.0119218	3	0.0933268	12	6.77803e-06
2	1	0	1	0	459.555	0.578655	0.577804	0.012983	3	0.0933381	12	7.50162e-06
2	1	0	1	0	460.455	0.587658	0.587287	0.0137649	3	0.0933503	12	8.08392e-06
2	0	0	1	0	461.355	0.596659	0.596002	0.01478	3	0.0933635	12	8.80893e-06
2	0	0	1	0	462.256	0.605661	0.606108	0.0161118	3	0.0933779	12	9.7655e-06
2	0	0	0	0	463.156	0.614663	0.614231	0.01761	3	0.0933935	12	1.08166e-05
2	1	0	1	0	464.056	0.623666	0.623634	0.0192523	3	0.0934105	12	1.20064e-05
2	1	0	0	0	464.956	0.632668	0.631233	0.0212562	3	0.0934291	12	1.34176e-05
2	1	0	1	0	465.857	0.64167	0.641627	0.023456	3	0.0934496	12	1.505e-05
2	1	0	0	0	466.757	0.650672	0.649916	0.0259768	3	0.0934723	12	1.68828e-05
2	1	0	1	0	467.657	0.659674	0.658908	0.0290613	3	0.0934975	12	1.91487e-05
2	1	0	0	0	468.557	0.668676	0.667657	0.0326978	3	0.0935257	12	2.18309e-05
2	1	0	1	0	469.457	0.677678	0.67725	0.0370806	3	0.0935575	12	2.51128e-05
2	1	0	0	0	470.358	0.68668	0.686857	0.0422211	3	0.0935936	12	2.89998e-05
2	1	0	1	0	471.258	0.695682	0.696243	0.0484683	3	0.0936347	12	3.37457e-05
2	1	0	0	0	472.158	0.704685	0.704287	0.0555912	3	0.0936818	12	3.91522e-05
2	1	0	1	0	473.058	0.713687	0.712552	0.0640449	3	0.093736	12	4.56353e-05
2	1	0	0	0	473.958	0.722689	0.722315	0.0739512	3	0.0937985	12	5.34161e-05
2	1	0	1	0	474.859	0.731691	0.731082	0.085371	3	0.0938705	12	6.24132e-05
2	1	0	1	0	475.759	0.740694	0.740133	0.0985412	3	0.0939535	12	7.29336e-05
2	1	0	1	0	476.659	0.749695	0.748944	0.113324	3	0.0940492	12	8.48733e-05
2	1	0	1	0	477.559	0.758697	0.758894	0.130659	3	0.0941592	12	9.91566e-05
2	1	0	0	0	478.46	0.767699	0.767673	0.149766	3	0.0942857	12	0.000114971
2	1	0	1	0	479.36	0.776702	0.776703	0.171539	3	0.0944307	12	0.000133234
2	1	0	0	0	480.26	0.785703	0.785858	0.196066	3	0.0945962	12	0.00015408
2	1	0	1	0	481.16	0.794706	0.79466	0.222901	3	0.0947849	12	0.000177131
2	1	0	0	0	482.06	0.803708	0.802793	0.25289	3	0.0949993	12	0.000203019
2	1	0	1	0	482.961	0.81271	0.812485	0.285831	3	0.0952422	12	0.000232234
2	1	0	0	0	483.861	0.821712	0.821695	0.322257	3	0.0955162	12	0.000264797
2	1	0	1	0	484.761	0.830714	0.830975	0.361096	3	0.095824	12	0.000300062
2	1	0	0	0	485.661	0.839716	0.839056	0.403039	3	0.0961681	12	0.000338172
2	1	0	1	0	486.561	0.848718	0.848179	0.447998	3	0.0965517	12	0.000379983
2	1	0	0	0	487.462	0.85772	0.857787	0.495719	3	0.096977	12	0.000425221
2	1	0	1	0	488.362	0.866723	0.866199	0.547093	3	0.0974469	12	0.000473891
2	1	0	0	0	489.262	0.875725	0.875117	0.598524	3	0.0979633	12	0.000523779
2	1	0	1	0	490.162	0.884727	0.88425	0.654019	3	0.0985282	12	0.000578316
2	1	0	1	0	491.062	0.89373	0.893369	0.70999	3	0.0991433	12	0.000634283
2	1	0	1	0	491.963	0.902731	0.902794	0.770276	3	0.0998104	12	0.000695401
2	1	0	1	0	492.863	0.911732	0.911694	0.828525	3	0.10053	12	0.000755362
2	1	0	0	0	493.763	0.920735	0.920473	0.889296	3	0.101304	12	0.000818573
2	1	0	1	0	494.663	0.929737	0.930414	0.948194	3	0.102132	12	0.000882213
2	1	0	0	0	495.564	0.93874	0.93857	1.00916	3	0.103014	12	0.00094717
2	1	0	1	0	496.479	0.947892	0.948259	1.06691	3	0.103965	12	0.0010117
2	1	0	0	0	497.394	0.957044	0.955887	1.13117	3	0.104973	11	0.00108127
2	1	0	1	0	498.294	0.966046	0.966022	1.19499	3	0.106019	11	0.00115439
2	1	0	0	0	499.194	0.975048	0.975273	1.25207	3	0.10712	11	0.00122111
2	1	0	1	0	500.095	0.98405	0.98379	1.3117	3	0.108276	11	0.00129044
2	1	0	0	0	500.995	0.993052	0.993261	1.36982	3	0.109483	11	0.00136059
2	1	0	1	0	501.745	0.999454	0.99999	1.41095	3	0.11053	11	0.00141093
2	1	0	0	0	502.646	0.990452	0.989575	1.31709	3	0.111755	11	0.00130336
2	1	0	1	0	503.546	0.98145	0.980874	1.22141	3	0.112896	11	0.00119805
2	1	0	0	0	504.446	0.972447	0.971471	1.13514	3	0.113957	11	0.00110276
2	1	0	1	0	505.346	0.963445	0.963966	1.05593	3	0.114942	11	0.00101788
2	1	0	0	0	506.246	0.954443	0.955233	0.981147	3	0.115859	11	0.000937223
2	1	0	1	0	507.147	0.945441	0.945758	0.912673	3	0.11671	11	0.000863168
2	1	0	1	0	508.047	0.93644	0.936558	0.845606	3	0.1175	11	0.000791959
2	1	0	0	0	508.947	0.927437	0.927013	0.78364	3	0.118233	11	0.000726445
2	1	0	1	0	509.847	0.918435	0.918361	0.725905	3	0.118911	11	0.000666642
2	1	0	0	0	510.748	0.909433	0.909764	0.669155	3	0.119538	11	0.000608773
2	1	0	1	0	511.648	0.900431	0.90013	0.616416	3	0.120116	11	0.000554854
2	1	0	0	0	512.548	0.891428	0.891127	0.56846	3	0.120648	11	0.00050657
2	1	0	1	0	513.448	0.882426	0.882037	0.518616	3	0.121136	11	0.000457439
2	1	0	0	0	514.348	0.873424	0.872631	0.473916	3	0.121583	11	0.000413554
2	1	0	1	0	515.279	0.864122	0.864935	0.430076	3	0.122004	12	0.000371987
2	1	0	0	0	516.179	0.85512	0.855835	0.390022	3	0.122373	12	0.000333795
2	1	0	1	0	517.079	0.846118	0.845839	0.353033	3	0.122707	12	0.000298609
2	1	0	0	0	517.979	0.837116	0.837362	0.319901	3	0.12301	12	0.000267873
2	1	0	1	0	518.879	0.828113	0.827229	0.287375	3	0.123282	12	0.000237725
2	1	0	0	0	519.78	0.819111	0.81864	0.25744	3	0.123527	12	0.000210751
2	1	0	1	0	520.68	0.810109	0.809696	0.230616	3	0.123746	12	0.000186729
2	1	0	1	0	521.58	0.801106	0.80028	0.205032	3	0.123942	12	0.000164083
2	1	0	1	0	522.48	0.792105	0.791124	0.182027	3	0.124115	12	0.000144006
2	1	0	1	0	523.381	0.783103	0.782416	0.161306	3	0.12427	12	0.000126208
2	1	0	0	0	524.281	0.774101	0.774517	0.142442	3	0.124406	12	0.000110324
2	1	0	1	0	525.181	0.765099	0.765769	0.125465	3	0.124526	12	9.60769e-05
2	1	0	0	0	526.081	0.756097	0.756605	0.109913	3	0.124631	12	8.31611e-05
2	1	0	1	0	526.981	0.747095	0.746473	0.0962201	3	0.124724	12	7.18258e-05
2	1	0	0	0	527.882	0.738092	0.737198	0.0838481	3	0.124804	12	6.18127e-05
2	1	0	1	0	528.782	0.72909	0.728796	0.0730341	3	0.124875	12	5.32269e-05
2	1	0	0	0	529.682	0.720088	0.720074	0.0633617	3	0.124935	12	4.56251e-05
2	1	0	1	0	530.582	0.711086	0.709766	0.0548696	3	0.124988	12	3.89446e-05
2	1	0	0	0	531.482	0.702084	0.702793	0.0473344	3	0.125034	12	3.32663e-05
2	1	0	1	0	532.383	0.693082	0.693386	0.0409034	3	0.125073	12	2.83619e-05
2	1	0	0	0	533.283	0.68408	0.683271	0.035216	3	0.125107	12	2.40621e-05
2	0	0	1	0	534.183	0.675078	0.675149	0.0304929	3	0.125137	12	2.05872e-05
2	1	0	0	0	535.083	0.666076	0.665686	0.0263035	3	0.125162	12	1.75099e-05
2	1	0	1	0	535.983	0.657073	0.656475	0.0228523	3	0.125184	12	1.5002e-05
2	1	0	1	0	536.884	0.64807	0.647399	0.0199435	3	0.125204	12	1.29114e-05
2	1	0	1	0	537.784	0.639069	0.638985	0.0175157	3	0.12522	12	1.11923e-05
2	1	0	1	0	538.684	0.630068	0.629776	0.0153609	3	0.125235	12	9.67392e-06
2	1	0	0	0	539.584	0.621065	0.621036	0.0137099	3	0.125248	12	8.51432e-06
2	1	0	1	0	540.485	0.612063	0.612825	0.0120629	3	0.125259	12	7.39242e-06
2	1	0	0	0	541.385	0.603061	0.602876	0.0106909	3	0.125269	12	6.44531e-06
2	1	0	1	0	542.285	0.594059	0.593859	0.00963117	3	0.125278	12	5.71956e-06
2	1	0	0	0	543.185	0.585057	0.584777	0.00869279	3	0.125286	12	5.08334e-06
2	1	0	1	0	544.085	0.576054	0.575593	0.00780467	3	0.125294	12	4.49232e-06
2	1	0	0	0	544.986	0.567052	0.567069	0.00693783	3	0.1253	12	3.93423e-06
2	1	0	1	0	545.886	0.55805	0.557415	0.00624106	3	0.125306	12	3.47886e-06
2	1	0	0	0	546.786	0.549048	0.549399	0.0057335	3	0.125311	12	3.14998e-06
2	1	0	1	0	547.686	0.540046	0.539587	0.00498898	3	0.125316	12	2.69199e-06
2	0	0	0	0	548.586	0.531044	0.530924	0.00460806	3	0.12532	12	2.44653e-06
2	0	0	1	0	549.487	0.522042	0.522129	0.00414129	3	0.125324	12	2.16229e-06
2	0	0	0	0	550.387	0.51304	0.51232	0.00376865	3	0.125328	12	1.93076e-06
2	0	0	1	0	551.287	0.504038	0.5027	0.00335268	3	0.125331	12	1.68539e-06
2	0	0	0	0	552.187	0.495035	0.494876	0.00307985	3	0.125334	12	1.52414e-06
2	0	0	1	0	553.087	0.486032	0.48609	0.00281958	3	0.125336	12	1.37057e-06
2	0	0	1	0	553.988	0.477031	0.47661	0.00240551	3	0.125339	12	1.14649e-06
2	0	0	0	0	554.888	0.468029	0.467093	0.00232441	3	0.125341	12	1.08571e-06
2	0	0	1	0	555.788	0.459027	0.458864	0.0018631	3	0.125343	12	8.54908e-07
2	0	0	0	0	556.688	0.450025	0.449546	0.00163012	3	0.125344	12	7.32815e-07
2	0	0	1	0	557.589	0.441023	0.440588	0.00154938	3	0.125346	12	6.82639e-07
2	0	0	0	0	558.489	0.432021	0.43162	0.00130545	3	0.125347	12	5.63459e-07
2	0	0	1	0	559.389	0.423018	0.421568	0.00112533	3	0.125348	12	4.74402e-07
2	0	0	0	0	560.289	0.414016	0.413731	0.00108625	3	0.125349	12	4.49414e-07
2	1	0	1	0	561.189	0.405014	0.405089	0.000951639	3	0.12535	12	3.85498e-07
2	1	0	0	0	562.09	0.396012	0.396011	0.000811951	3	0.125351	12	3.21542e-07
2	1	0	1	0	562.99	0.38701	0.38581	0.000589594	3	0.125351	12	2.27471e-07
2	1	0	0	0	563.89	0.378008	0.376972	0.000659114	3	0.125352	12	2.48467e-07
2	1	0	1	0	564.79	0.369006	0.368808	0.000465914	3	0.125352	12	1.71833e-07
2	1	0	0	0	565.69	0.360004	0.359219	0.000358372	3	0.125352	12	1.28734e-07
2	1	0	1	0	566.591	0.351002	0.350707	0.000297482	3	0.125353	12	1.04329e-07
2	1	0	0	0	567.491	0.342	0.341054	0.000151344	3	0.125353	12	5.16166e-08
2	1	0	1	0	568.391	0.332997	0.332421	0.000144689	3	0.125353	12	4.80975e-08
2	1	0	1	0	569.291	0.323995	0.323851	4.38442e-05	3	0.125353	12	1.4199e-08
2	1	0	0	0	570.192	0.314993	0.315299	-9.77656e-05	3	0.125352	12	-3.08254e-08
2	1	0	1	0	571.092	0.305991	0.306015	-0.000238576	3	0.125352	12	-7.30077e-08
2	1	0	0	0	571.992	0.296989	0.297184	-0.000354216	3	0.125352	12	-1.05268e-07
2	1	0	1	0	572.892	0.287987	0.287648	-0.000237869	3	0.125351	12	-6.84224e-08
2	1	0	0	0	573.792	0.278985	0.278408	-0.000597955	3	0.125351	12	-1.66475e-07
2	1	0	1	0	574.693	0.269983	0.26981	-0.000634519	3	0.12535	12	-1.712e-07
2	1	0	0	0	575.593	0.26098	0.259846	-0.000791906	3	0.12535	12	-2.05774e-07
2	1	0	1	0	576.493	0.251978	0.251273	-0.000857642	3	0.125349	12	-2.15503e-07
2	1	0	0	0	577.393	0.242976	0.243266	-0.000937793	3	0.125348	12	-2.28133e-07
2	0	0	1	0	578.293	0.233974	0.233315	-0.00103793	3	0.125347	12	-2.42164e-07
2	0	0	0	0	579.194	0.224972	0.225604	-0.000967642	3	0.125346	12	-2.18304e-07
2	0	0	1	0	580.094	0.21597	0.215505	-0.00110726	3	0.125345	12	-2.38619e-07
2	0	0	0	0	580.994	0.206968	0.205617	-0.00134111	3	0.125344	12	-2.75756e-07
2	0	0	1	0	581.894	0.197966	0.197624	-0.00119763	3	0.125343	12	-2.36679e-07
2	0	0	0	0	582.794	0.188964	0.18857	-0.00132763	3	0.125342	12	-2.50351e-07
2	0	0	1	0	583.695	0.179962	0.179651	-0.00137679	3	0.125341	12	-2.47343e-07
2	0	0	1	0	584.595	0.170959	0.170974	-0.00137968	3	0.12534	12	-2.3589e-07
2	0	0	1	0	585.495	0.161958	0.160724	-0.00150807	3	0.125338	12	-2.42384e-07
2	0	0	1	0	586.395	0.152955	0.152235	-0.00140239	3	0.125337	12	-2.13493e-07
2	1	0	0	0	587.296	0.143953	0.143746	-0.00142962	3	0.125335	12	-2.05501e-07
2	1	0	1	0	588.196	0.134951	0.135224	-0.00147021	3	0.125334	12	-1.98808e-07
2	1	0	0	0	589.096	0.125949	0.124948	-0.00167226	3	0.125332	12	-2.08946e-07
2	1	0	1	0	589.996	0.116947	0.117725	-0.00161754	3	0.125331	12	-1.90425e-07
2	1	0	0	0	590.896	0.107945	0.107496	-0.00158522	3	0.125329	12	-1.70405e-07
2	0	0	1	0	591.797	0.0989425	0.098699	-0.00174756	3	0.125327	12	-1.72482e-07
2	0	0	0	0	592.697	0.0899404	0.0895929	-0.00184691	3	0.125326	12	-1.6547e-07
2	0	0	1	0	593.597	0.0809383	0.0807584	-0.00189774	3	0.125324	12	-1.53259e-07
2	1	0	0	0	594.497	0.0719362	0.0715664	-0.0019488	3	0.125322	12	-1.39468e-07
2	0	0	1	0	595.397	0.062934	0.062856	-0.00208822	3	0.12532	12	-1.31257e-07
2	1	0	0	0	596.298	0.0539319	0.053752	-0.00189671	3	0.125318	12	-1.01952e-07
2	1	0	1	0	597.198	0.0449298	0.0443808	-0.00190331	3	0.125316	12	-8.44704e-08
2	1	0	0	0	598.098	0.0359277	0.0356237	-0.00201618	3	0.125314	12	-7.18239e-08
2	0	0	1	0	598.998	0.0269256	0.0260138	-0.00205802	3	0.125312	12	-5.35369e-08
2	0	0	1	0	599.898	0.0179226	0.0184153	-0.00206916	3	0.125309	12	-3.81041e-08
2	0	0	1	0	600.799	0.0089216	0.00887792	-0.00215263	3	0.125307	12	-1.91109e-08
2	0	0	1	0	601.669	0.000219335	0.000314288	-0.00229485	3	0.125305	12	-7.21244e-10
2	1	0	1	1	602.45	-0.00758338	-0.00794176	-0.00223316	3	0.125303	12	1.77352e-08
2	1	0	1	1	603.34	-0.0164846	-0.0165875	-0.00230252	3	0.125301	12	3.81931e-08
2	1	0	1	1	603.383	-0.0169347	-0.0175022	-0.00712395	3	0.125301	12	1.24685e-07