File: Data_1mg/2023_01_31_Co45Ni45Fe10Nx 1mg ref309_01_PEIS_C05.mpt
EC-Lab ASCII FILE
Nb header lines : 63

Potentio Electrochemical Impedance Spectroscopy

Run on channel : 5 (SN 30436)
User :
CE vs. WE compliance from -10 V to 10 V
Electrode connection : standard
Potential control : Ewe
Ewe ctrl range : min = -10.00 V, max = 10.00 V
Safety Limits :
	Do not start on E overload
Acquisition started on : 01/31/2023 13:05:58.350
Loaded Setting File :  C:\Users\grupogalan\Documents\EC-Lab\Data\Scott\_cyclic_pause_tafel_CA.mps
Saved on :
	File : 2023_01_31_Co45Ni45Fe10Nx 1mg ref309_01_PEIS_C05.mpr
	Directory : C:\Users\grupogalan\Documents\EC-Lab\Data\Scott\
	Host : 169.254.104.159
Device : VSP (SN 1176)
Address : USB
EC-Lab for windows v11.46 (software)
Internet server v11.40 (firmware)
Command interpretor v11.40 (firmware)
Electrode material :
Initial state :
Electrolyte :
Comments :
Electrode surface area : 0.001 cm²
Characteristic mass : 0.001 g
Equivalent Weight : 0.000 g/eq.
Density : 0.000 g/cm3
Volume (V) : 0.001 cm³
Cycle Definition : Charge/Discharge alternance
Mode                Single sine
E (V)               0.0000
vs.                 Eoc
tE (h:m:s)          0:00:0.0000
record              0
dI                  0.000
unit dI             mA
dt (s)              0.000
fi                  200.000
unit fi             kHz
ff                  100.000
unit ff             mHz
Nd                  6
Points              per decade
spacing             Logarithmic
Va (mV)             10.0
pw                  0.10
Na                  2
corr                0
E range min (V)     -10.000
E range max (V)     10.000
I Range             Auto
Bandwidth           5
nc cycles           0
goto Ns'            0
nr cycles           0
inc. cycle          0

freq/Hz	Re(Z)/Ohm	-Im(Z)/Ohm	|Z|/Ohm	Phase(Z)/deg	time/s	<Ewe>/V	<I>/mA	Cs/µF	Cp/µF	cycle number	I Range	|Ewe|/V	|I|/A	Ns	(Q-Qo)/mA.h	Re(Y)/Ohm-1	Im(Y)/Ohm-1	|Y|/Ohm-1	Phase(Y)/deg	Re(C)/nF	Im(C)/nF	|C|/nF	Phase(C)/deg	Re(M)	Im(M)	|M|	Phase(M)/deg	Re(Permittivity)	Im(Permittivity)	|Permittivity|	Phase(Permittivity)/deg	Re(Resistivity)/Ohm.cm	Im(Resistivity)/Ohm.cm	|Resistivity|/Ohm.cm	Phase(Resistivity)/deg	Re(Conductivity)/mS/cm	Im(Conductivity)/mS/cm	|Conductivity|/mS/cm	Phase(Conductivity)/deg	Tan(Delta)	Loss Angle(Delta)/deg	dq/mA.h
199998	2.11422	-1.99561	2.9073	43.3469	2.12048	-0.15687	-0.177708	-0.398767	-0.187884	1	9	0.0101329	0.00348534	0	-2.38921e-05	0.250133	-0.2361	0.343962	-43.3469	-187.884	199.051	273.719	-133.347	0.0000000E+000	0.0000000E+000	0.0000000E+000	133.347	0.0000000E+000	0.0000000E+000	0.0000000E+000	-133.347	0.0000000E+000	0.0000000E+000	0.0000000E+000	43.3469	0.0000000E+000	0.0000000E+000	0.0000000E+000	-43.3469	-1.05944	-43.3469	-2.38921e-05
135123	1.07242	-0.744673	1.30561	34.7756	2.54249	-0.156856	-0.176366	-1.58171	-0.514552	1	9	0.0101587	0.00778081	0	-5.36854e-05	0.629125	-0.436855	0.765925	-34.7756	-514.552	741.017	902.148	-124.776	0.0000000E+000	0.0000000E+000	0.0000000E+000	124.776	0.0000000E+000	0.0000000E+000	0.0000000E+000	-124.776	0.0000000E+000	0.0000000E+000	0.0000000E+000	34.7756	0.0000000E+000	0.0000000E+000	0.0000000E+000	-34.7756	-1.44012	-34.7756	-2.97933e-05
91291.2	0.898286	-0.249623	0.932325	15.53	3.10149	-0.156813	-0.177	-6.98404	-0.500658	1	9	0.00946215	0.010149	0	-5.16703e-05	1.03343	-0.287177	1.07259	-15.53	-500.658	1801.65	1869.92	-105.53	0.0000000E+000	0.0000000E+000	0.0000000E+000	105.53	0.0000000E+000	0.0000000E+000	0.0000000E+000	-105.53	0.0000000E+000	0.0000000E+000	0.0000000E+000	15.53	0.0000000E+000	0.0000000E+000	0.0000000E+000	-15.53	-3.59857	-15.53	2.01512e-06
61674.2	0.891545	-0.0623427	0.893722	3.99999	3.66049	-0.156971	-0.177484	-41.3934	-0.201418	1	9	0.0099781	0.0111647	0	-0.000127224	1.11619	-0.0780515	1.11892	-3.99999	-201.418	2880.41	2887.45	-94	0.0000000E+000	0.0000000E+000	0.0000000E+000	94	0.0000000E+000	0.0000000E+000	0.0000000E+000	-94	0.0000000E+000	0.0000000E+000	0.0000000E+000	3.99999	0.0000000E+000	0.0000000E+000	0.0000000E+000	-3.99999	-14.3007	-3.99999	-7.55541e-05
41669.8	0.895452	0.0531106	0.897025	-3.39432	4.0825	-0.156887	-0.170515	71.9147	0.252099	1	9	0.00995476	0.0110975	0	-0.000130367	1.11284	0.0660043	1.1148	3.39432	252.099	4250.42	4257.89	-86.6057	0.0000000E+000	0.0000000E+000	0.0000000E+000	86.6057	0.0000000E+000	0.0000000E+000	0.0000000E+000	-86.6057	0.0000000E+000	0.0000000E+000	0.0000000E+000	-3.39432	0.0000000E+000	0.0000000E+000	0.0000000E+000	3.39432	16.8601	3.39432	-3.14236e-06
28151	0.907916	0.137794	0.918313	-8.62989	4.50448	-0.156805	-0.167365	41.0296	0.923794	1	9	0.0108415	0.0118059	0	-0.000155243	1.07662	0.163399	1.08895	8.62989	923.795	6086.83	6156.53	-81.3701	0.0000000E+000	0.0000000E+000	0.0000000E+000	81.3701	0.0000000E+000	0.0000000E+000	0.0000000E+000	-81.3701	0.0000000E+000	0.0000000E+000	0.0000000E+000	-8.62989	0.0000000E+000	0.0000000E+000	0.0000000E+000	8.62989	6.58894	8.62989	-2.48761e-05
19020.9	0.922847	0.249427	0.95596	-15.1245	5.0635	-0.156793	-0.166881	33.5463	2.28377	1	9	0.0101329	0.0105997	0	-0.000140473	1.00983	0.272938	1.04607	15.1245	2283.77	8449.64	8752.83	-74.8755	0.0000000E+000	0.0000000E+000	0.0000000E+000	74.8755	0.0000000E+000	0.0000000E+000	0.0000000E+000	-74.8755	0.0000000E+000	0.0000000E+000	0.0000000E+000	-15.1245	0.0000000E+000	0.0000000E+000	0.0000000E+000	15.1245	3.69986	15.1245	1.47699e-05
12850.7	0.940414	0.372146	1.01137	-21.59	5.48548	-0.156839	-0.168875	33.2797	4.50593	1	9	0.0104714	0.0103536	0	-0.000179786	0.919387	0.363825	0.988757	21.59	4505.93	11386.5	12245.7	-68.41	0.0000000E+000	0.0000000E+000	0.0000000E+000	68.41	0.0000000E+000	0.0000000E+000	0.0000000E+000	-68.41	0.0000000E+000	0.0000000E+000	0.0000000E+000	-21.59	0.0000000E+000	0.0000000E+000	0.0000000E+000	21.59	2.527	21.59	-3.93135e-05
8683.37	0.966891	0.526663	1.10102	-28.577	5.93499	-0.156712	-0.183	34.8016	7.96291	1	9	0.0101156	0.00918748	0	-0.000204488	0.797599	0.43445	0.908246	28.577	7962.91	14618.9	16647	-61.423	0.0000000E+000	0.0000000E+000	0.0000000E+000	61.423	0.0000000E+000	0.0000000E+000	0.0000000E+000	-61.423	0.0000000E+000	0.0000000E+000	0.0000000E+000	-28.577	0.0000000E+000	0.0000000E+000	0.0000000E+000	28.577	1.83588	28.577	-2.47018e-05
5865.09	1.02333	0.766837	1.27877	-36.8462	6.35182	-0.156954	-0.205026	35.3869	12.7253	1	9	0.00983885	0.00769402	0	-0.000224082	0.625797	0.468944	0.782004	36.8462	12725.3	16981.6	21220.5	-53.1538	0.0000000E+000	0.0000000E+000	0.0000000E+000	53.1538	0.0000000E+000	0.0000000E+000	0.0000000E+000	-53.1538	0.0000000E+000	0.0000000E+000	0.0000000E+000	-36.8462	0.0000000E+000	0.0000000E+000	0.0000000E+000	36.8462	1.33448	36.8462	-1.95942e-05
3961.2	1.11994	1.08685	1.56061	-44.1409	6.81493	-0.156845	-0.176981	36.9679	17.9298	1	9	0.00946984	0.00606805	0	-0.000249991	0.45984	0.446253	0.640776	44.1409	17929.8	18475.7	25745.4	-45.8591	0.0000000E+000	0.0000000E+000	0.0000000E+000	45.8591	0.0000000E+000	0.0000000E+000	0.0000000E+000	-45.8591	0.0000000E+000	0.0000000E+000	0.0000000E+000	-44.1409	0.0000000E+000	0.0000000E+000	0.0000000E+000	44.1409	1.03045	44.1409	-2.59087e-05
2677.43	1.13428	1.54471	1.91643	-53.7101	7.49797	-0.156752	-0.177223	38.4819	25.0012	1	9	0.00989881	0.00516523	0	-0.000286494	0.30884	0.42059	0.521803	53.7101	25001.2	18358.4	31017.6	-36.2899	0.0000000E+000	0.0000000E+000	0.0000000E+000	36.2899	0.0000000E+000	0.0000000E+000	0.0000000E+000	-36.2899	0.0000000E+000	0.0000000E+000	0.0000000E+000	-53.7101	0.0000000E+000	0.0000000E+000	0.0000000E+000	53.7101	0.734303	53.7101	-3.65033e-05
1808.26	1.19082	2.1738	2.4786	-61.2858	7.95995	-0.156912	-0.172024	40.4891	31.1433	1	9	0.00946546	0.00381887	0	-0.000305664	0.193835	0.353839	0.403453	61.2858	31143.3	17060.5	35510.1	-28.7142	0.0000000E+000	0.0000000E+000	0.0000000E+000	28.7142	0.0000000E+000	0.0000000E+000	0.0000000E+000	-28.7142	0.0000000E+000	0.0000000E+000	0.0000000E+000	-61.2858	0.0000000E+000	0.0000000E+000	0.0000000E+000	61.2858	0.547806	61.2858	-1.91699e-05
1221.96	1.31207	3.13299	3.39664	-67.2765	8.67245	-0.156905	-0.0231525	41.5724	35.3692	1	10	0.0099308	0.00292371	0	-0.000320493	0.113725	0.271556	0.294408	67.2765	35369.2	14812.3	38345.6	-22.7235	0.0000000E+000	0.0000000E+000	0.0000000E+000	22.7235	0.0000000E+000	0.0000000E+000	0.0000000E+000	-22.7235	0.0000000E+000	0.0000000E+000	0.0000000E+000	-67.2765	0.0000000E+000	0.0000000E+000	0.0000000E+000	67.2765	0.418791	67.2765	-1.48285e-05
825.264	1.35478	4.58163	4.77774	-73.5271	9.13369	-0.156798	-0.0233483	42.0927	38.7082	1	10	0.00960155	0.00200964	0	-0.000324599	0.0593505	0.200713	0.209304	73.5271	38708.2	11446	40365	-16.4729	0.0000000E+000	0.0000000E+000	0.0000000E+000	16.4729	0.0000000E+000	0.0000000E+000	0.0000000E+000	-16.4729	0.0000000E+000	0.0000000E+000	0.0000000E+000	-73.5271	0.0000000E+000	0.0000000E+000	0.0000000E+000	73.5271	0.295698	73.5271	-4.10616e-06
558.036	1.57071	6.73213	6.91294	-76.867	9.59748	-0.156711	-0.0251266	42.3648	40.1777	1	10	0.00957899	0.00138566	0	-0.000326988	0.0328677	0.140873	0.144656	76.867	40177.7	9374.06	41256.8	-13.133	0.0000000E+000	0.0000000E+000	0.0000000E+000	13.133	0.0000000E+000	0.0000000E+000	0.0000000E+000	-13.133	0.0000000E+000	0.0000000E+000	0.0000000E+000	-76.867	0.0000000E+000	0.0000000E+000	0.0000000E+000	76.867	0.233315	76.867	-2.38889e-06
377.051	1.78221	9.84887	10.0088	-79.743	10.0567	-0.156768	-0.0231228	42.8581	41.4992	1	10	0.00955739	0.000954896	0	-0.000330341	0.0177907	0.0983151	0.0999118	79.743	41499.2	7509.54	42173.2	-10.257	0.0000000E+000	0.0000000E+000	0.0000000E+000	10.257	0.0000000E+000	0.0000000E+000	0.0000000E+000	-10.257	0.0000000E+000	0.0000000E+000	0.0000000E+000	-79.743	0.0000000E+000	0.0000000E+000	0.0000000E+000	79.743	0.180956	79.743	-3.35346e-06
254.755	2.00968	13.7805	13.9263	-81.7028	10.519	-0.15681	-0.0240809	45.3347	44.3906	1	10	0.00919756	0.000660446	0	-0.00033367	0.0103623	0.071055	0.0718066	81.7028	44390.6	6473.7	44860.2	-8.29723	0.0000000E+000	0.0000000E+000	0.0000000E+000	8.29723	0.0000000E+000	0.0000000E+000	0.0000000E+000	-8.29723	0.0000000E+000	0.0000000E+000	0.0000000E+000	-81.7028	0.0000000E+000	0.0000000E+000	0.0000000E+000	81.7028	0.145835	81.7028	-3.32866e-06
172.037	3.0798	20.1698	20.4036	-81.3184	10.9754	-0.156827	-0.0233297	45.8666	44.8216	1	10	0.00929943	0.000455774	0	-0.000336168	0.00739791	0.0484494	0.049011	81.3184	44821.6	6843.96	45341.1	-8.68163	0.0000000E+000	0.0000000E+000	0.0000000E+000	8.68163	0.0000000E+000	0.0000000E+000	0.0000000E+000	-8.68163	0.0000000E+000	0.0000000E+000	0.0000000E+000	-81.3184	0.0000000E+000	0.0000000E+000	0.0000000E+000	81.3184	0.152693	81.3184	-2.49829e-06
116.227	3.52402	29.3942	29.6047	-83.1635	11.9007	-0.156805	-0.00282994	46.5854	45.9253	1	11	0.0102135	0.000344995	0	-0.000339182	0.00402083	0.0335382	0.0337784	83.1635	45925.3	5505.9	46254.1	-6.83646	0.0000000E+000	0.0000000E+000	0.0000000E+000	6.83646	0.0000000E+000	0.0000000E+000	0.0000000E+000	-6.83646	0.0000000E+000	0.0000000E+000	0.0000000E+000	-83.1635	0.0000000E+000	0.0000000E+000	0.0000000E+000	83.1635	0.119888	83.1635	-3.01414e-06
78.5176	4.33432	42.3201	42.5415	-84.1523	12.3706	-0.157223	-0.00290153	47.8967	47.3995	1	11	0.0100855	0.000237073	0	-0.000339667	0.00239494	0.0233841	0.0235064	84.1523	47399.5	4854.54	47647.5	-5.84769	0.0000000E+000	0.0000000E+000	0.0000000E+000	5.84769	0.0000000E+000	0.0000000E+000	0.0000000E+000	-5.84769	0.0000000E+000	0.0000000E+000	0.0000000E+000	-84.1523	0.0000000E+000	0.0000000E+000	0.0000000E+000	84.1523	0.102417	84.1523	-4.85113e-07
53.0478	6.26625	62.0178	62.3336	-84.2304	12.8471	-0.156887	-0.00270692	48.3767	47.8878	1	11	0.0102636	0.000164656	0	-0.000339909	0.00161274	0.0159615	0.0160427	84.2304	47887.8	4838.56	48131.6	-5.76955	0.0000000E+000	0.0000000E+000	0.0000000E+000	5.76955	0.0000000E+000	0.0000000E+000	0.0000000E+000	-5.76955	0.0000000E+000	0.0000000E+000	0.0000000E+000	-84.2304	0.0000000E+000	0.0000000E+000	0.0000000E+000	84.2304	0.101039	84.2304	-2.41398e-07
35.8372	8.5233	89.4976	89.9026	-84.5598	13.2991	-0.156848	-0.00309689	49.6221	49.1761	1	11	0.0101636	0.000113051	0	-0.000340189	0.00105454	0.011073	0.0111232	84.5598	49176.1	4683.28	49398.6	-5.44015	0.0000000E+000	0.0000000E+000	0.0000000E+000	5.44015	0.0000000E+000	0.0000000E+000	0.0000000E+000	-5.44015	0.0000000E+000	0.0000000E+000	0.0000000E+000	-84.5598	0.0000000E+000	0.0000000E+000	0.0000000E+000	84.5598	0.095235	84.5598	-2.80216e-07
24.2323	14.3952	131.192	131.979	-83.7382	13.7741	-0.156796	-0.00293714	50.0631	49.4675	1	11	0.010329	7.82624e-05	0	-0.000340722	0.000826428	0.00753173	0.00757694	83.7382	49467.5	5427.88	49764.4	-6.2618	0.0000000E+000	0.0000000E+000	0.0000000E+000	6.2618	0.0000000E+000	0.0000000E+000	0.0000000E+000	-6.2618	0.0000000E+000	0.0000000E+000	0.0000000E+000	-83.7382	0.0000000E+000	0.0000000E+000	0.0000000E+000	83.7382	0.109726	83.7382	-5.32584e-07
16.367	17.4953	185.207	186.031	-84.6036	14.436	-0.156669	-0.00041635	52.5043	52.0399	1	12	0.0100366	5.39511e-05	0	-0.00034102	0.000505533	0.00535162	0.00537544	84.6036	52039.9	4915.88	52271.6	-5.39635	0.0000000E+000	0.0000000E+000	0.0000000E+000	5.39635	0.0000000E+000	0.0000000E+000	0.0000000E+000	-5.39635	0.0000000E+000	0.0000000E+000	0.0000000E+000	-84.6036	0.0000000E+000	0.0000000E+000	0.0000000E+000	84.6036	0.0944636	84.6036	-2.98573e-07
11.0502	30.1943	269.491	271.177	-83.6071	14.8597	-0.156797	-0.000476849	53.4448	52.7822	1	12	0.0100623	3.71061e-05	0	-0.000340846	0.000410599	0.00366469	0.00368762	83.6071	52782.2	5913.81	53112.4	-6.39286	0.0000000E+000	0.0000000E+000	0.0000000E+000	6.39286	0.0000000E+000	0.0000000E+000	0.0000000E+000	-6.39286	0.0000000E+000	0.0000000E+000	0.0000000E+000	-83.6071	0.0000000E+000	0.0000000E+000	0.0000000E+000	83.6071	0.112042	83.6071	1.74389e-07
7.46893	36.1456	392.708	394.368	-84.7412	15.1866	-0.156814	-0.000370239	54.2615	53.8056	1	12	0.0100792	2.55579e-05	0	-0.000341006	0.000232408	0.00252503	0.0025357	84.7412	53805.6	4952.37	54033.1	-5.25879	0.0000000E+000	0.0000000E+000	0.0000000E+000	5.25879	0.0000000E+000	0.0000000E+000	0.0000000E+000	-5.25879	0.0000000E+000	0.0000000E+000	0.0000000E+000	-84.7412	0.0000000E+000	0.0000000E+000	0.0000000E+000	84.7412	0.0920417	84.7412	-1.59966e-07
5.04683	63.5744	571.749	575.272	-83.6552	15.6489	-0.156692	-0.000336467	55.1564	54.4828	1	12	0.0101828	1.77009e-05	0	-0.000340827	0.000192104	0.00172766	0.00173831	83.6552	54482.8	6058.1	54818.6	-6.34483	0.0000000E+000	0.0000000E+000	0.0000000E+000	6.34483	0.0000000E+000	0.0000000E+000	0.0000000E+000	-6.34483	0.0000000E+000	0.0000000E+000	0.0000000E+000	-83.6552	0.0000000E+000	0.0000000E+000	0.0000000E+000	83.6552	0.111193	83.6552	1.789e-07
3.4086	75.719	810.663	814.192	-84.6638	16.6482	-0.156829	7.34292e-05	57.5976	57.0994	1	13	0.00996998	1.22453e-05	0	-0.000341021	0.000114222	0.00122289	0.00122821	84.6638	57099.4	5333.3	57348	-5.33616	0.0000000E+000	0.0000000E+000	0.0000000E+000	5.33616	0.0000000E+000	0.0000000E+000	0.0000000E+000	-5.33616	0.0000000E+000	0.0000000E+000	0.0000000E+000	-84.6638	0.0000000E+000	0.0000000E+000	0.0000000E+000	84.6638	0.0934037	84.6638	-1.94603e-07
2.30321	133.803	1181.05	1188.6	-83.5364	17.5971	-0.156892	-2.89153e-05	58.5085	57.7671	1	13	0.0100632	8.46638e-06	0	-0.000341076	9.47097e-05	0.000835977	0.000841325	83.5364	57767.1	6544.56	58136.6	-6.46361	0.0000000E+000	0.0000000E+000	0.0000000E+000	6.46361	0.0000000E+000	0.0000000E+000	0.0000000E+000	-6.46361	0.0000000E+000	0.0000000E+000	0.0000000E+000	-83.5364	0.0000000E+000	0.0000000E+000	0.0000000E+000	83.5364	0.113292	83.5364	-5.49235e-08
1.55627	196.944	1711.52	1722.82	-83.4359	18.9815	-0.156799	-5.34829e-05	59.7518	58.9709	1	13	0.010128	5.87872e-06	0	-0.000340964	6.63536e-05	0.000576639	0.000580444	83.4359	58970.9	6785.76	59360.1	-6.56413	0.0000000E+000	0.0000000E+000	0.0000000E+000	6.56413	0.0000000E+000	0.0000000E+000	0.0000000E+000	-6.56413	0.0000000E+000	0.0000000E+000	0.0000000E+000	-83.4359	0.0000000E+000	0.0000000E+000	0.0000000E+000	83.4359	0.115069	83.4359	1.12366e-07
1.05233	276.958	2505.33	2520.59	-83.6917	22.0106	-0.156749	-5.64045e-05	60.3675	59.6386	1	14	0.0101382	4.02214e-06	0	-0.000340792	4.35922e-05	0.00039433	0.000396732	83.6917	59638.6	6592.9	60001.9	-6.30829	0.0000000E+000	0.0000000E+000	0.0000000E+000	6.30829	0.0000000E+000	0.0000000E+000	0.0000000E+000	-6.30829	0.0000000E+000	0.0000000E+000	0.0000000E+000	-83.6917	0.0000000E+000	0.0000000E+000	0.0000000E+000	83.6917	0.110548	83.6917	1.71617e-07
0.710357	606.248	3544.38	3595.86	-80.2938	25.0012	-0.15679	6.63223e-05	63.2125	61.4157	1	14	0.0101075	2.81087e-06	0	-0.000340756	4.68862e-05	0.000274117	0.000278098	80.2938	61415.7	10504.8	62307.6	-9.70621	0.0000000E+000	0.0000000E+000	0.0000000E+000	9.70621	0.0000000E+000	0.0000000E+000	0.0000000E+000	-9.70621	0.0000000E+000	0.0000000E+000	0.0000000E+000	-80.2938	0.0000000E+000	0.0000000E+000	0.0000000E+000	80.2938	0.171045	80.2938	3.64626e-08
0.480355	818.861	5109	5174.21	-80.8942	29.4075	-0.156828	2.77208e-05	64.8517	63.2275	1	14	0.0101361	1.95896e-06	0	-0.000340791	3.0586e-05	0.000190831	0.000193266	80.8942	63227.5	10134	64034.5	-9.10581	0.0000000E+000	0.0000000E+000	0.0000000E+000	9.10581	0.0000000E+000	0.0000000E+000	0.0000000E+000	-9.10581	0.0000000E+000	0.0000000E+000	0.0000000E+000	-80.8942	0.0000000E+000	0.0000000E+000	0.0000000E+000	80.8942	0.160278	80.8942	-3.50627e-08
0.324439	1439.73	7228.72	7370.7	-78.7359	35.915	-0.156791	3.42668e-05	67.8618	65.2726	1	14	0.0100759	1.36703e-06	0	-0.000340841	2.65011e-05	0.000133059	0.000135672	78.7359	65272.6	13000.2	66554.6	-11.2641	0.0000000E+000	0.0000000E+000	0.0000000E+000	11.2641	0.0000000E+000	0.0000000E+000	0.0000000E+000	-11.2641	0.0000000E+000	0.0000000E+000	0.0000000E+000	-78.7359	0.0000000E+000	0.0000000E+000	0.0000000E+000	78.7359	0.199168	78.7359	-5.02664e-08
0.218838	2573.59	10167.8	10488.5	-75.7961	45.5485	-0.156781	5.05743e-05	71.527	67.2205	1	14	0.0101101	9.63927e-07	0	-0.000340837	2.33946e-05	9.24279e-05	9.53427e-05	75.7961	67220.5	17014.3	69340.3	-14.2039	0.0000000E+000	0.0000000E+000	0.0000000E+000	14.2039	0.0000000E+000	0.0000000E+000	0.0000000E+000	-14.2039	0.0000000E+000	0.0000000E+000	0.0000000E+000	-75.7961	0.0000000E+000	0.0000000E+000	0.0000000E+000	75.7961	0.253111	75.7961	4.43405e-09
0.147897	4416.09	14485.4	15143.6	-73.0454	59.7866	-0.156808	7.10769e-05	74.2899	67.9724	1	14	0.0101179	6.68126e-07	0	-0.000340643	1.92565e-05	6.31642e-05	6.60343e-05	73.0454	67972.4	20722.3	71061	-16.9546	0.0000000E+000	0.0000000E+000	0.0000000E+000	16.9546	0.0000000E+000	0.0000000E+000	0.0000000E+000	-16.9546	0.0000000E+000	0.0000000E+000	0.0000000E+000	-73.0454	0.0000000E+000	0.0000000E+000	0.0000000E+000	73.0454	0.304864	73.0454	1.9395e-07
0.0999041	7768.97	19828.9	21296.5	-68.6047	80.8506	-0.156796	0.000107216	80.3412	69.6494	1	14	0.0101013	4.74318e-07	0	-0.000340079	1.71295e-05	4.37201e-05	4.6956e-05	68.6047	69649.4	27288.7	74804.5	-21.3953	0.0000000E+000	0.0000000E+000	0.0000000E+000	21.3953	0.0000000E+000	0.0000000E+000	0.0000000E+000	-21.3953	0.0000000E+000	0.0000000E+000	0.0000000E+000	-68.6047	0.0000000E+000	0.0000000E+000	0.0000000E+000	68.6047	0.391801	68.6047	5.64111e-07