File: Data_1mg/2023_01_31 NiNx 1 mg 307ref set2_03_CP_C01.mpt
EC-Lab ASCII FILE
Nb header lines : 53

Chronopotentiometry

Run on channel : 1 (SN 21648)
User :
CE vs. WE compliance from -10 V to 10 V
Electrode connection : standard
Potential control : Ewe
Ewe ctrl range : min = -2.50 V, max = 2.50 V
Safety Limits :
	Do not start on E overload
Acquisition started on : 01/31/2023 10:44:48.640
Loaded Setting File :  C:\Users\grupogalan\Documents\EC-Lab\Data\Scott\_cyclic_pause_tafel.mps
Saved on :
	File : 2023_01_31 NiNx 1 mg 307ref set2_03_CP_C01.mpr
	Directory : C:\Users\grupogalan\Documents\EC-Lab\Data\Scott\
	Host : 169.254.104.159
Device : VSP (SN 1176)
Address : USB
EC-Lab for windows v11.46 (software)
Internet server v11.40 (firmware)
Command interpretor v11.40 (firmware)
Electrode material :
Initial state :
Electrolyte :
Comments :
Electrode surface area : 0.001 cm²
Characteristic mass : 0.001 g
Equivalent Weight : 0.000 g/eq.
Density : 0.000 g/cm3
Volume (V) : 0.001 cm³
Cycle Definition : Charge/Discharge alternance
Ns                  0                   1                   2                   3                   4                   5                   6                   7                   8                   9                   10                  11                  12
Is                  10.000              18.000              32.000              56.000              100.000             178.000             316.000             562.000             1.000               1.778               3.162               5.623               10.000
unit Is             µA                  µA                  µA                  µA                  µA                  µA                  µA                  µA                  mA                  mA                  mA                  mA                  mA
vs.                 <None>              <None>              <None>              <None>              <None>              <None>              <None>              <None>              <None>              <None>              <None>              <None>              <None>
ts (h:m:s)          0:03:0.0000         0:03:0.0000         0:03:0.0000         0:03:0.0000         0:03:0.0000         0:03:0.0000         0:03:0.0000         0:03:0.0000         0:03:0.0000         0:03:0.0000         0:03:0.0000         0:03:0.0000         0:03:0.0000
EM (V)              pass                pass                pass                pass                pass                pass                pass                pass                pass                pass                pass                pass                pass
dQM                 500.000             900.000             1.600               2.800               5.000               8.900               15.800              28.100              50.000              88.900              158.100             281.150             500.000
unit dQM            nA.h                nA.h                µA.h                µA.h                µA.h                µA.h                µA.h                µA.h                µA.h                µA.h                µA.h                µA.h                µA.h
record              <Ewe>               <Ewe>               <Ewe>               <Ewe>               <Ewe>               <Ewe>               <Ewe>               <Ewe>               <Ewe>               <Ewe>               <Ewe>               <Ewe>               <Ewe>
dEs (mV)            0.00                0.00                0.00                0.00                0.00                0.00                0.00                0.00                0.00                0.00                0.00                0.00                0.00
dts (s)             1.0000              1.0000              1.0000              1.0000              1.0000              1.0000              1.0000              1.0000              1.0000              1.0000              1.0000              1.0000              1.0000
E range min (V)     -2.500              -2.500              -2.500              -2.500              -2.500              -2.500              -2.500              -2.500              -2.500              -2.500              -2.500              -2.500              -2.500
E range max (V)     2.500               2.500               2.500               2.500               2.500               2.500               2.500               2.500               2.500               2.500               2.500               2.500               2.500
I Range             10 mA               10 mA               10 mA               10 mA               10 mA               10 mA               10 mA               10 mA               10 mA               10 mA               10 mA               10 mA               10 mA
Bandwidth           5                   5                   5                   5                   5                   5                   5                   5                   5                   5                   5                   5                   5
goto Ns'            0                   0                   0                   0                   0                   0                   0                   0                   0                   0                   0                   0                   0
nc cycles           0                   0                   0                   0                   0                   0                   0                   0                   0                   0                   0                   0                   0

mode	ox/red	error	control changes	Ns changes	counter inc.	Ns	time/s	control/mA	<Ewe>/V	I/mA	dQ/C	(Q-Qo)/C	half cycle	Q charge/discharge/mA.h	I Range	Energy charge/W.h	Energy discharge/W.h	Capacitance charge/µF	Capacitance discharge/µF	Q discharge/mA.h	Q charge/mA.h	Capacity/mA.h	Efficiency/%	cycle number	P/W
1	1	0	0	0	0	0	655.439	0.01	-0.115373	0.0104419	9.58022e-06	9.58022e-06	0	2.66117e-06	11	3.07027e-10	0.000000000000000E+000	0.000000000000000E+000	0.000000000000000E+000	0.000000000000000E+000	2.66117e-06	2.66117e-06	0.0000000E+000	0.000000000000000E+000	-1.20471e-06
1	1	0	0	0	0	0	667.439	0.01	0.642508	0.0108226	0.000130368	0.000130368	0	3.62133e-05	11	1.70479e-08	0.000000000000000E+000	172.016	0.000000000000000E+000	0.000000000000000E+000	3.62133e-05	3.62133e-05	0.0000000E+000	0.000000000000000E+000	6.9536e-06
1	1	0	0	0	0	0	679.439	0.01	0.647028	0.00993433	0.000250674	0.000250674	0	6.96316e-05	11	3.86295e-08	0.000000000000000E+000	328.795	0.000000000000000E+000	0.000000000000000E+000	6.96316e-05	6.96316e-05	0.0000000E+000	0.000000000000000E+000	6.42779e-06
1	1	0	0	0	0	0	691.439	0.01	0.647287	0.00999778	0.000370822	0.000370822	0	0.000103006	11	6.02311e-08	0.000000000000000E+000	486.222	0.000000000000000E+000	0.000000000000000E+000	0.000103006	0.000103006	0.0000000E+000	0.000000000000000E+000	6.47143e-06
1	1	0	0	0	0	0	703.439	0.01	0.646901	0.00923641	0.000490673	0.000490673	0	0.000136298	11	8.17769e-08	0.000000000000000E+000	643.696	0.000000000000000E+000	0.000000000000000E+000	0.000136298	0.000136298	0.0000000E+000	0.000000000000000E+000	5.97505e-06
1	1	0	0	0	0	0	715.439	0.01	0.645952	0.0100612	0.000610426	0.000610426	0	0.000169563	11	1.03279e-07	0.000000000000000E+000	801.794	0.000000000000000E+000	0.000000000000000E+000	0.000169563	0.000169563	0.0000000E+000	0.000000000000000E+000	6.49907e-06
1	1	0	0	0	0	0	727.439	0.01	0.644316	0.0105688	0.000730297	0.000730297	0	0.00020286	11	1.24758e-07	0.000000000000000E+000	961.311	0.000000000000000E+000	0.000000000000000E+000	0.00020286	0.00020286	0.0000000E+000	0.000000000000000E+000	6.80965e-06
1	1	0	0	0	0	0	739.439	0.01	0.642347	0.00955365	0.000850193	0.000850193	0	0.000236165	11	1.46182e-07	0.000000000000000E+000	1122.04	0.000000000000000E+000	0.000000000000000E+000	0.000236165	0.000236165	0.0000000E+000	0.000000000000000E+000	6.13676e-06
1	1	0	0	0	0	0	751.439	0.01	0.639893	0.00974399	0.000969985	0.000969985	0	0.00026944	11	1.67514e-07	0.000000000000000E+000	1284.3	0.000000000000000E+000	0.000000000000000E+000	0.00026944	0.00026944	0.0000000E+000	0.000000000000000E+000	6.23511e-06
1	1	0	0	0	0	0	763.439	0.01	0.636876	0.0104419	0.00108985	0.00108985	0	0.000302737	11	1.88765e-07	0.000000000000000E+000	1448.79	0.000000000000000E+000	0.000000000000000E+000	0.000302737	0.000302737	0.0000000E+000	0.000000000000000E+000	6.6502e-06
1	1	0	0	0	0	0	775.439	0.01	0.63316	0.00993433	0.00120971	0.00120971	0	0.000336032	11	2.09903e-07	0.000000000000000E+000	1616.12	0.000000000000000E+000	0.000000000000000E+000	0.000336032	0.000336032	0.0000000E+000	0.000000000000000E+000	6.29002e-06
1	1	0	0	0	0	0	787.439	0.01	0.629263	0.0105688	0.00132963	0.00132963	0	0.000369343	11	2.30925e-07	0.000000000000000E+000	1785.62	0.000000000000000E+000	0.000000000000000E+000	0.000369343	0.000369343	0.0000000E+000	0.000000000000000E+000	6.65056e-06
1	1	0	0	0	0	0	799.439	0.01	0.624554	0.0100612	0.00144996	0.00144996	0	0.000402767	11	2.51872e-07	0.000000000000000E+000	1959.6	0.000000000000000E+000	0.000000000000000E+000	0.000402767	0.000402767	0.0000000E+000	0.000000000000000E+000	6.28378e-06
1	1	0	0	0	0	0	811.439	0.01	0.619048	0.0103785	0.0015704	0.0015704	0	0.000436223	11	2.72669e-07	0.000000000000000E+000	2138.29	0.000000000000000E+000	0.000000000000000E+000	0.000436223	0.000436223	0.0000000E+000	0.000000000000000E+000	6.42477e-06
1	1	0	0	0	0	0	823.439	0.01	0.61314	0.0105054	0.00169051	0.00169051	0	0.000469586	11	2.93218e-07	0.000000000000000E+000	2320.5	0.000000000000000E+000	0.000000000000000E+000	0.000469586	0.000469586	0.0000000E+000	0.000000000000000E+000	6.44125e-06
1	1	0	0	0	0	0	834.491	0.01	0.606699	0.0100612	0.00180121	0.00180121	0	0.000500335	11	3.1197e-07	0.000000000000000E+000	2494.5	0.000000000000000E+000	0.000000000000000E+000	0.000500335	0.000500335	0.0000000E+000	0.000000000000000E+000	6.10413e-06
1	1	0	1	0	0	1	846.491	0.018	0.660043	0.0181824	0.000216172	0.00201738	0	0.000560383	11	3.51632e-07	0.000000000000000E+000	2601.67	0.000000000000000E+000	0.000000000000000E+000	0.000560383	0.000560383	0.0000000E+000	0.000000000000000E+000	1.20012e-05
1	1	0	1	0	0	1	858.491	0.018	0.658433	0.0177383	0.000432278	0.00223349	0	0.000620413	11	3.91202e-07	0.000000000000000E+000	2886.36	0.000000000000000E+000	0.000000000000000E+000	0.000620413	0.000620413	0.0000000E+000	0.000000000000000E+000	1.16795e-05
1	1	0	1	0	0	1	870.491	0.018	0.656299	0.0183093	0.000648483	0.00244969	0	0.00068047	11	4.30676e-07	0.000000000000000E+000	3174.52	0.000000000000000E+000	0.000000000000000E+000	0.00068047	0.00068047	0.0000000E+000	0.000000000000000E+000	1.20164e-05
1	1	0	1	0	0	1	882.491	0.018	0.653853	0.01869	0.000864395	0.0026656	0	0.000740445	11	4.69963e-07	0.000000000000000E+000	3465.3	0.000000000000000E+000	0.000000000000000E+000	0.000740445	0.000740445	0.0000000E+000	0.000000000000000E+000	1.22205e-05
1	1	0	1	0	0	1	894.491	0.018	0.650998	0.018119	0.00108054	0.00288175	0	0.000800486	11	5.0913e-07	0.000000000000000E+000	3760.26	0.000000000000000E+000	0.000000000000000E+000	0.000800486	0.000800486	0.0000000E+000	0.000000000000000E+000	1.17954e-05
1	1	0	1	0	0	1	906.491	0.018	0.647848	0.018119	0.00129656	0.00309777	0	0.000860492	11	5.48096e-07	0.000000000000000E+000	4058.81	0.000000000000000E+000	0.000000000000000E+000	0.000860492	0.000860492	0.0000000E+000	0.000000000000000E+000	1.17383e-05
1	1	0	1	0	0	1	918.491	0.018	0.644589	0.0172942	0.00151283	0.00331403	0	0.000920565	11	5.86911e-07	0.000000000000000E+000	4360.79	0.000000000000000E+000	0.000000000000000E+000	0.000920565	0.000920565	0.0000000E+000	0.000000000000000E+000	1.11476e-05
1	1	0	1	0	0	1	930.491	0.018	0.640985	0.0172942	0.00172918	0.00353038	0	0.000980662	11	6.2553e-07	0.000000000000000E+000	4667.61	0.000000000000000E+000	0.000000000000000E+000	0.000980662	0.000980662	0.0000000E+000	0.000000000000000E+000	1.10853e-05
1	1	0	1	0	0	1	942.491	0.018	0.637225	0.018119	0.0019454	0.0037466	0	0.00104072	11	6.6391e-07	0.000000000000000E+000	4978.23	0.000000000000000E+000	0.000000000000000E+000	0.00104072	0.00104072	0.0000000E+000	0.000000000000000E+000	1.15459e-05
1	1	0	1	0	0	1	954.491	0.018	0.633105	0.0184362	0.00216142	0.00396262	0	0.00110073	11	7.02015e-07	0.000000000000000E+000	5294.24	0.000000000000000E+000	0.000000000000000E+000	0.00110073	0.00110073	0.0000000E+000	0.000000000000000E+000	1.16721e-05
1	1	0	1	0	0	1	966.491	0.018	0.628855	0.0185631	0.0023773	0.00417851	0	0.0011607	11	7.39846e-07	0.000000000000000E+000	5614.55	0.000000000000000E+000	0.000000000000000E+000	0.0011607	0.0011607	0.0000000E+000	0.000000000000000E+000	1.16735e-05
1	1	0	1	0	0	1	978.491	0.018	0.624356	0.0184362	0.00259357	0.00439478	0	0.00122077	11	7.77485e-07	0.000000000000000E+000	5941.07	0.000000000000000E+000	0.000000000000000E+000	0.00122077	0.00122077	0.0000000E+000	0.000000000000000E+000	1.15108e-05
1	1	0	1	0	0	1	990.491	0.018	0.61978	0.0183728	0.00280983	0.00461104	0	0.00128084	11	8.14844e-07	0.000000000000000E+000	6272.22	0.000000000000000E+000	0.000000000000000E+000	0.00128084	0.00128084	0.0000000E+000	0.000000000000000E+000	1.13871e-05
1	1	0	1	0	0	1	1002.49	0.018	0.614986	0.0183728	0.00302626	0.00482747	0	0.00134096	11	8.51949e-07	0.000000000000000E+000	6609.72	0.000000000000000E+000	0.000000000000000E+000	0.00134096	0.00134096	0.0000000E+000	0.000000000000000E+000	1.1299e-05
1	1	0	1	0	0	1	1014.49	0.018	0.609922	0.0178018	0.00324244	0.00504364	0	0.00140101	11	8.88714e-07	0.000000000000000E+000	6953.93	0.000000000000000E+000	0.000000000000000E+000	0.00140101	0.00140101	0.0000000E+000	0.000000000000000E+000	1.08577e-05
1	1	0	0	0	0	2	1025.49	0.032	0.670893	0.0327753	0.000355424	0.00539907	0	0.00149974	11	9.54893e-07	0.000000000000000E+000	6866.73	0.000000000000000E+000	0.000000000000000E+000	0.00149974	0.00149974	0.0000000E+000	0.000000000000000E+000	2.19887e-05
1	1	0	0	0	0	2	1037.49	0.032	0.673235	0.0314429	0.000743034	0.00578668	0	0.00160741	11	1.02728e-06	0.000000000000000E+000	7337.84	0.000000000000000E+000	0.000000000000000E+000	0.00160741	0.00160741	0.0000000E+000	0.000000000000000E+000	2.11684e-05
1	1	0	0	0	0	2	1049.49	0.032	0.674429	0.0321408	0.00113054	0.00617418	0	0.00171505	11	1.09982e-06	0.000000000000000E+000	7817.39	0.000000000000000E+000	0.000000000000000E+000	0.00171505	0.00171505	0.0000000E+000	0.000000000000000E+000	2.16767e-05
1	1	0	0	0	0	2	1061.49	0.032	0.674742	0.0329022	0.00151815	0.0065618	0	0.00182272	11	1.17246e-06	0.000000000000000E+000	8304.86	0.000000000000000E+000	0.000000000000000E+000	0.00182272	0.00182272	0.0000000E+000	0.000000000000000E+000	2.22005e-05
1	1	0	0	0	0	2	1073.49	0.032	0.674651	0.0319504	0.00190581	0.00694946	0	0.00193041	11	1.24512e-06	0.000000000000000E+000	8796.51	0.000000000000000E+000	0.000000000000000E+000	0.00193041	0.00193041	0.0000000E+000	0.000000000000000E+000	2.15554e-05
1	1	0	0	0	0	2	1085.49	0.032	0.674134	0.0330925	0.00229326	0.0073369	0	0.00203803	11	1.3177e-06	0.000000000000000E+000	9293.02	0.000000000000000E+000	0.000000000000000E+000	0.00203803	0.00203803	0.0000000E+000	0.000000000000000E+000	2.23088e-05
1	1	0	0	0	0	2	1097.49	0.032	0.673313	0.0325849	0.00268071	0.00772436	0	0.00214566	11	1.39021e-06	0.000000000000000E+000	9793.96	0.000000000000000E+000	0.000000000000000E+000	0.00214566	0.00214566	0.0000000E+000	0.000000000000000E+000	2.19398e-05
1	1	0	0	0	0	2	1109.49	0.032	0.672395	0.0325215	0.00306833	0.00811198	0	0.00225333	11	1.46265e-06	0.000000000000000E+000	10297.4	0.000000000000000E+000	0.000000000000000E+000	0.00225333	0.00225333	0.0000000E+000	0.000000000000000E+000	2.18673e-05
1	1	0	0	0	0	2	1121.49	0.032	0.671244	0.0323946	0.0034559	0.00849955	0	0.00236099	11	1.53498e-06	0.000000000000000E+000	10805.2	0.000000000000000E+000	0.000000000000000E+000	0.00236099	0.00236099	0.0000000E+000	0.000000000000000E+000	2.17447e-05
1	1	0	0	0	0	2	1133.49	0.032	0.670014	0.0326484	0.00384362	0.00888727	0	0.00246869	11	1.6072e-06	0.000000000000000E+000	11315.8	0.000000000000000E+000	0.000000000000000E+000	0.00246869	0.00246869	0.0000000E+000	0.000000000000000E+000	2.18749e-05
1	1	0	0	0	0	2	1145.49	0.032	0.668636	0.0330925	0.00423131	0.00927496	0	0.00257638	11	1.67928e-06	0.000000000000000E+000	11830.2	0.000000000000000E+000	0.000000000000000E+000	0.00257638	0.00257638	0.0000000E+000	0.000000000000000E+000	2.21268e-05
1	1	0	0	0	0	2	1157.49	0.032	0.66729	0.0323311	0.00461909	0.00966273	0	0.00268409	11	1.75122e-06	0.000000000000000E+000	12346	0.000000000000000E+000	0.000000000000000E+000	0.00268409	0.00268409	0.0000000E+000	0.000000000000000E+000	2.15742e-05
1	1	0	0	0	0	2	1169.49	0.032	0.665783	0.0322677	0.00500691	0.0100506	0	0.00279182	11	1.82302e-06	0.000000000000000E+000	12866.3	0.000000000000000E+000	0.000000000000000E+000	0.00279182	0.00279182	0.0000000E+000	0.000000000000000E+000	2.14833e-05
1	1	0	0	0	0	2	1181.49	0.032	0.664282	0.0329022	0.00539458	0.0104382	0	0.00289951	11	1.89463e-06	0.000000000000000E+000	13388.3	0.000000000000000E+000	0.000000000000000E+000	0.00289951	0.00289951	0.0000000E+000	0.000000000000000E+000	2.18563e-05
1	1	0	0	0	0	2	1193.49	0.032	0.662732	0.0320139	0.00578215	0.0108258	0	0.00300717	11	1.96605e-06	0.000000000000000E+000	13913	0.000000000000000E+000	0.000000000000000E+000	0.00300717	0.00300717	0.0000000E+000	0.000000000000000E+000	2.12166e-05
1	1	0	1	0	0	3	1204.49	0.056	0.711476	0.0559334	0.000558996	0.0114171	0	0.00317142	11	2.08241e-06	0.000000000000000E+000	13808	0.000000000000000E+000	0.000000000000000E+000	0.00317142	0.00317142	0.0000000E+000	0.000000000000000E+000	3.97953e-05
1	1	0	1	0	0	3	1216.49	0.056	0.714258	0.0559334	0.00122986	0.012088	0	0.00335777	11	2.21529e-06	0.000000000000000E+000	14570.3	0.000000000000000E+000	0.000000000000000E+000	0.00335777	0.00335777	0.0000000E+000	0.000000000000000E+000	3.99509e-05
1	1	0	1	0	0	3	1228.49	0.056	0.716307	0.0556162	0.00190067	0.0127588	0	0.00354411	11	2.3486e-06	0.000000000000000E+000	15341	0.000000000000000E+000	0.000000000000000E+000	0.00354411	0.00354411	0.0000000E+000	0.000000000000000E+000	3.98383e-05
1	1	0	1	0	0	3	1240.49	0.056	0.717684	0.0558065	0.00257144	0.0134296	0	0.00373043	11	2.48221e-06	0.000000000000000E+000	16120.8	0.000000000000000E+000	0.000000000000000E+000	0.00373043	0.00373043	0.0000000E+000	0.000000000000000E+000	4.00515e-05
1	1	0	1	0	0	3	1252.49	0.056	0.718532	0.0559334	0.00324216	0.0141003	0	0.00391674	11	2.61601e-06	0.000000000000000E+000	16908.7	0.000000000000000E+000	0.000000000000000E+000	0.00391674	0.00391674	0.0000000E+000	0.000000000000000E+000	4.01899e-05
1	1	0	1	0	0	3	1264.49	0.056	0.719086	0.0557431	0.00391299	0.0147711	0	0.00410309	11	2.74997e-06	0.000000000000000E+000	17701.4	0.000000000000000E+000	0.000000000000000E+000	0.00410309	0.00410309	0.0000000E+000	0.000000000000000E+000	4.00841e-05
1	1	0	1	0	0	3	1276.49	0.056	0.719508	0.0565679	0.00458402	0.0154421	0	0.00428948	11	2.88405e-06	0.000000000000000E+000	18496.2	0.000000000000000E+000	0.000000000000000E+000	0.00428948	0.00428948	0.0000000E+000	0.000000000000000E+000	4.07011e-05
1	1	0	1	0	0	3	1288.49	0.056	0.71979	0.0556162	0.00525511	0.0161132	0	0.0044759	11	3.01821e-06	0.000000000000000E+000	19293.5	0.000000000000000E+000	0.000000000000000E+000	0.0044759	0.0044759	0.0000000E+000	0.000000000000000E+000	4.0032e-05
1	1	0	1	0	0	3	1300.49	0.056	0.719875	0.0557431	0.00592615	0.0167843	0	0.0046623	11	3.15238e-06	0.000000000000000E+000	20094.9	0.000000000000000E+000	0.000000000000000E+000	0.0046623	0.0046623	0.0000000E+000	0.000000000000000E+000	4.01281e-05
1	1	0	1	0	0	3	1312.49	0.056	0.719905	0.0559334	0.00659715	0.0174553	0	0.00484869	11	3.28656e-06	0.000000000000000E+000	20897.6	0.000000000000000E+000	0.000000000000000E+000	0.00484869	0.00484869	0.0000000E+000	0.000000000000000E+000	4.02667e-05
1	1	0	1	0	0	3	1324.49	0.056	0.719842	0.0551721	0.0072684	0.0181265	0	0.00503514	11	3.42079e-06	0.000000000000000E+000	21702.8	0.000000000000000E+000	0.000000000000000E+000	0.00503514	0.00503514	0.0000000E+000	0.000000000000000E+000	3.97152e-05
1	1	0	1	0	0	3	1336.49	0.056	0.719774	0.0552355	0.00793966	0.0187978	0	0.00522161	11	3.555e-06	0.000000000000000E+000	22508.4	0.000000000000000E+000	0.000000000000000E+000	0.00522161	0.00522161	0.0000000E+000	0.000000000000000E+000	3.97571e-05
1	1	0	1	0	0	3	1348.49	0.056	0.719679	0.0562507	0.00861094	0.0194691	0	0.00540807	11	3.68921e-06	0.000000000000000E+000	23314.8	0.000000000000000E+000	0.000000000000000E+000	0.00540807	0.00540807	0.0000000E+000	0.000000000000000E+000	4.04824e-05
1	1	0	1	0	0	3	1360.49	0.056	0.719619	0.0553624	0.00928216	0.0201403	0	0.00559452	11	3.82339e-06	0.000000000000000E+000	24120.3	0.000000000000000E+000	0.000000000000000E+000	0.00559452	0.00559452	0.0000000E+000	0.000000000000000E+000	3.98398e-05
1	1	0	1	0	0	3	1372.49	0.056	0.719452	0.0554893	0.00995346	0.0208116	0	0.00578099	11	3.95756e-06	0.000000000000000E+000	24929.3	0.000000000000000E+000	0.000000000000000E+000	0.00578099	0.00578099	0.0000000E+000	0.000000000000000E+000	3.99219e-05
1	1	0	0	0	0	4	1383.49	0.1	0.766963	0.100473	0.000900809	0.0218243	0	0.00606229	11	4.17173e-06	0.000000000000000E+000	24734.6	0.000000000000000E+000	0.000000000000000E+000	0.00606229	0.00606229	0.0000000E+000	0.000000000000000E+000	7.70593e-05
1	1	0	0	0	0	4	1395.49	0.1	0.769808	0.0991409	0.00210173	0.0230252	0	0.00639588	11	4.42811e-06	0.000000000000000E+000	26011.8	0.000000000000000E+000	0.000000000000000E+000	0.00639588	0.00639588	0.0000000E+000	0.000000000000000E+000	7.63194e-05
1	1	0	0	0	0	4	1407.49	0.1	0.772013	0.100473	0.00330254	0.024226	0	0.00672944	11	4.6853e-06	0.000000000000000E+000	27300.4	0.000000000000000E+000	0.000000000000000E+000	0.00672944	0.00672944	0.0000000E+000	0.000000000000000E+000	7.75666e-05
1	1	0	0	0	0	4	1419.49	0.1	0.773638	0.0994581	0.00450334	0.0254268	0	0.007063	11	4.94312e-06	0.000000000000000E+000	28601.2	0.000000000000000E+000	0.000000000000000E+000	0.007063	0.007063	0.0000000E+000	0.000000000000000E+000	7.69445e-05
1	1	0	0	0	0	4	1431.49	0.1	0.774885	0.100283	0.00570404	0.0266275	0	0.00739652	11	5.20138e-06	0.000000000000000E+000	29909.9	0.000000000000000E+000	0.000000000000000E+000	0.00739652	0.00739652	0.0000000E+000	0.000000000000000E+000	7.77077e-05
1	1	0	0	0	0	4	1443.49	0.1	0.775928	0.099585	0.00690468	0.0278281	0	0.00773003	11	5.46001e-06	0.000000000000000E+000	31221.9	0.000000000000000E+000	0.000000000000000E+000	0.00773003	0.00773003	0.0000000E+000	0.000000000000000E+000	7.72708e-05
1	1	0	0	0	0	4	1455.49	0.1	0.776853	0.1006	0.00810521	0.0290287	0	0.00806352	11	5.71893e-06	0.000000000000000E+000	32535.1	0.000000000000000E+000	0.000000000000000E+000	0.00806352	0.00806352	0.0000000E+000	0.000000000000000E+000	7.81515e-05
1	1	0	0	0	0	4	1467.49	0.1	0.777572	0.0997119	0.00930573	0.0302292	0	0.00839699	11	5.97813e-06	0.000000000000000E+000	33853.3	0.000000000000000E+000	0.000000000000000E+000	0.00839699	0.00839699	0.0000000E+000	0.000000000000000E+000	7.75332e-05
1	1	0	0	0	0	4	1479.49	0.1	0.778262	0.0999022	0.0105061	0.0314296	0	0.00873044	11	6.23754e-06	0.000000000000000E+000	35170.5	0.000000000000000E+000	0.000000000000000E+000	0.00873044	0.00873044	0.0000000E+000	0.000000000000000E+000	7.77501e-05
1	1	0	0	0	0	4	1491.49	0.1	0.778876	0.0998388	0.0117068	0.0326303	0	0.00906397	11	6.49722e-06	0.000000000000000E+000	36489	0.000000000000000E+000	0.000000000000000E+000	0.00906397	0.00906397	0.0000000E+000	0.000000000000000E+000	7.77621e-05
1	1	0	0	0	0	4	1503.49	0.1	0.779393	0.0993946	0.0129075	0.0338309	0	0.00939748	11	6.75709e-06	0.000000000000000E+000	37809.8	0.000000000000000E+000	0.000000000000000E+000	0.00939748	0.00939748	0.0000000E+000	0.000000000000000E+000	7.74675e-05
1	1	0	0	0	0	4	1515.49	0.1	0.77994	0.100283	0.0141081	0.0350315	0	0.00973098	11	7.01711e-06	0.000000000000000E+000	39127.7	0.000000000000000E+000	0.000000000000000E+000	0.00973098	0.00973098	0.0000000E+000	0.000000000000000E+000	7.82147e-05
1	1	0	0	0	0	4	1527.49	0.1	0.780428	0.100156	0.0153088	0.0362323	0	0.0100645	11	7.27734e-06	0.000000000000000E+000	40446.8	0.000000000000000E+000	0.000000000000000E+000	0.0100645	0.0100645	0.0000000E+000	0.000000000000000E+000	7.81646e-05
1	1	0	0	0	0	4	1539.49	0.1	0.780904	0.0997119	0.0165095	0.0374329	0	0.010398	11	7.53771e-06	0.000000000000000E+000	41764.9	0.000000000000000E+000	0.000000000000000E+000	0.010398	0.010398	0.0000000E+000	0.000000000000000E+000	7.78654e-05
1	1	0	0	0	0	4	1551.49	0.1	0.781408	0.100283	0.0177101	0.0386336	0	0.0107315	11	7.79824e-06	0.000000000000000E+000	43080.3	0.000000000000000E+000	0.000000000000000E+000	0.0107315	0.0107315	0.0000000E+000	0.000000000000000E+000	7.83619e-05
1	1	0	1	0	0	5	1562.49	0.178	0.826395	0.178323	0.00142777	0.0403615	0	0.0112115	11	8.19091e-06	0.000000000000000E+000	42857.2	0.000000000000000E+000	0.000000000000000E+000	0.0112115	0.0112115	0.0000000E+000	0.000000000000000E+000	0.000147365
1	1	0	1	0	0	5	1574.49	0.178	0.828813	0.178894	0.00356952	0.0425032	0	0.0118065	11	8.68336e-06	0.000000000000000E+000	45015.7	0.000000000000000E+000	0.000000000000000E+000	0.0118065	0.0118065	0.0000000E+000	0.000000000000000E+000	0.00014827
1	1	0	1	0	0	5	1586.49	0.178	0.830727	0.17845	0.00571115	0.0446449	0	0.0124014	11	9.17706e-06	0.000000000000000E+000	47188.4	0.000000000000000E+000	0.000000000000000E+000	0.0124014	0.0124014	0.0000000E+000	0.000000000000000E+000	0.000148243
1	1	0	1	0	0	5	1598.49	0.178	0.832327	0.178259	0.00785284	0.0467866	0	0.0129963	11	9.67181e-06	0.000000000000000E+000	49368.6	0.000000000000000E+000	0.000000000000000E+000	0.0129963	0.0129963	0.0000000E+000	0.000000000000000E+000	0.00014837
1	1	0	1	0	0	5	1610.49	0.178	0.833652	0.178513	0.00999448	0.0489282	0	0.0135912	11	1.01674e-05	0.000000000000000E+000	51556.3	0.000000000000000E+000	0.000000000000000E+000	0.0135912	0.0135912	0.0000000E+000	0.000000000000000E+000	0.000148818
1	1	0	1	0	0	5	1622.49	0.178	0.834781	0.178386	0.012136	0.0510697	0	0.014186	11	1.06637e-05	0.000000000000000E+000	53748.9	0.000000000000000E+000	0.000000000000000E+000	0.014186	0.014186	0.0000000E+000	0.000000000000000E+000	0.000148913
1	1	0	1	0	0	5	1634.49	0.178	0.835804	0.178957	0.0142774	0.0532111	0	0.0147809	11	1.11606e-05	0.000000000000000E+000	55942.4	0.000000000000000E+000	0.000000000000000E+000	0.0147809	0.0147809	0.0000000E+000	0.000000000000000E+000	0.000149573
1	1	0	1	0	0	5	1646.49	0.178	0.836815	0.17845	0.0164187	0.0553524	0	0.0153757	11	1.1658e-05	0.000000000000000E+000	58131.8	0.000000000000000E+000	0.000000000000000E+000	0.0153757	0.0153757	0.0000000E+000	0.000000000000000E+000	0.000149329
1	1	0	1	0	0	5	1658.49	0.178	0.837668	0.17845	0.0185601	0.0574938	0	0.0159705	11	1.21561e-05	0.000000000000000E+000	60326.7	0.000000000000000E+000	0.000000000000000E+000	0.0159705	0.0159705	0.0000000E+000	0.000000000000000E+000	0.000149482
1	1	0	1	0	0	5	1670.49	0.178	0.838484	0.178259	0.0207016	0.0596353	0	0.0165654	11	1.26547e-05	0.000000000000000E+000	62520.2	0.000000000000000E+000	0.000000000000000E+000	0.0165654	0.0165654	0.0000000E+000	0.000000000000000E+000	0.000149468
1	1	0	1	0	0	5	1682.49	0.178	0.839298	0.178767	0.0228431	0.0617768	0	0.0171602	11	1.31537e-05	0.000000000000000E+000	64710.1	0.000000000000000E+000	0.000000000000000E+000	0.0171602	0.0171602	0.0000000E+000	0.000000000000000E+000	0.000150039
1	1	0	1	0	0	5	1694.49	0.178	0.840065	0.17883	0.0249846	0.0639183	0	0.0177551	11	1.36532e-05	0.000000000000000E+000	66899.5	0.000000000000000E+000	0.000000000000000E+000	0.0177551	0.0177551	0.0000000E+000	0.000000000000000E+000	0.000150229
1	1	0	1	0	0	5	1706.49	0.178	0.840947	0.178386	0.0271261	0.0660598	0	0.0183499	11	1.41532e-05	0.000000000000000E+000	69077.1	0.000000000000000E+000	0.000000000000000E+000	0.0183499	0.0183499	0.0000000E+000	0.000000000000000E+000	0.000150013
1	1	0	1	0	0	5	1718.49	0.178	0.841572	0.177815	0.0292675	0.0682012	0	0.0189448	11	1.46537e-05	0.000000000000000E+000	71269.8	0.000000000000000E+000	0.000000000000000E+000	0.0189448	0.0189448	0.0000000E+000	0.000000000000000E+000	0.000149644
1	1	0	1	0	0	5	1730.49	0.178	0.842277	0.178767	0.031409	0.0703427	0	0.0195397	11	1.51545e-05	0.000000000000000E+000	73453.5	0.000000000000000E+000	0.000000000000000E+000	0.0195397	0.0195397	0.0000000E+000	0.000000000000000E+000	0.000150571
1	1	0	0	0	0	6	1741.49	0.316	0.886581	0.316447	0.00221565	0.0732723	0	0.0203534	11	1.58665e-05	0.000000000000000E+000	73129.4	0.000000000000000E+000	0.000000000000000E+000	0.0203534	0.0203534	0.0000000E+000	0.000000000000000E+000	0.000280556
1	1	0	0	0	0	6	1753.49	0.316	0.890386	0.316891	0.00601382	0.0770705	0	0.0214085	11	1.68041e-05	0.000000000000000E+000	76629.2	0.000000000000000E+000	0.000000000000000E+000	0.0214085	0.0214085	0.0000000E+000	0.000000000000000E+000	0.000282155
1	1	0	0	0	0	6	1765.49	0.316	0.893394	0.316257	0.00981184	0.0808685	0	0.0224635	11	1.77452e-05	0.000000000000000E+000	80165.8	0.000000000000000E+000	0.000000000000000E+000	0.0224635	0.0224635	0.0000000E+000	0.000000000000000E+000	0.000282542
1	1	0	0	0	0	6	1777.49	0.316	0.896109	0.31632	0.01361	0.0846667	0	0.0235185	11	1.86894e-05	0.000000000000000E+000	83705.6	0.000000000000000E+000	0.000000000000000E+000	0.0235185	0.0235185	0.0000000E+000	0.000000000000000E+000	0.000283457
1	1	0	0	0	0	6	1789.49	0.316	0.898596	0.315749	0.017408	0.0884647	0	0.0245735	11	1.96362e-05	0.000000000000000E+000	87246	0.000000000000000E+000	0.000000000000000E+000	0.0245735	0.0245735	0.0000000E+000	0.000000000000000E+000	0.000283731
1	1	0	0	0	0	6	1801.49	0.316	0.901005	0.315749	0.021206	0.0922627	0	0.0256285	11	2.05855e-05	0.000000000000000E+000	90776	0.000000000000000E+000	0.000000000000000E+000	0.0256285	0.0256285	0.0000000E+000	0.000000000000000E+000	0.000284491
1	1	0	0	0	0	6	1813.49	0.316	0.903074	0.31613	0.0250041	0.0960608	0	0.0266836	11	2.15373e-05	0.000000000000000E+000	94320.9	0.000000000000000E+000	0.000000000000000E+000	0.0266836	0.0266836	0.0000000E+000	0.000000000000000E+000	0.000285489
1	1	0	0	0	0	6	1825.49	0.316	0.905403	0.315939	0.0288021	0.0998588	0	0.0277385	11	2.24914e-05	0.000000000000000E+000	97826.4	0.000000000000000E+000	0.000000000000000E+000	0.0277385	0.0277385	0.0000000E+000	0.000000000000000E+000	0.000286052
1	1	0	0	0	0	6	1837.49	0.316	0.907333	0.315686	0.0326001	0.103657	0	0.0287935	11	2.34477e-05	0.000000000000000E+000	101355	0.000000000000000E+000	0.000000000000000E+000	0.0287935	0.0287935	0.0000000E+000	0.000000000000000E+000	0.000286432
1	1	0	0	0	0	6	1849.49	0.316	0.909228	0.316764	0.036398	0.107455	0	0.0298485	11	2.44061e-05	0.000000000000000E+000	104875	0.000000000000000E+000	0.000000000000000E+000	0.0298485	0.0298485	0.0000000E+000	0.000000000000000E+000	0.000288011
1	1	0	0	0	0	6	1861.49	0.316	0.911012	0.31651	0.040196	0.111253	0	0.0309035	11	2.53664e-05	0.000000000000000E+000	108393	0.000000000000000E+000	0.000000000000000E+000	0.0309035	0.0309035	0.0000000E+000	0.000000000000000E+000	0.000288345
1	1	0	0	0	0	6	1873.49	0.316	0.912807	0.316954	0.0439939	0.115051	0	0.0319585	11	2.63285e-05	0.000000000000000E+000	111897	0.000000000000000E+000	0.000000000000000E+000	0.0319585	0.0319585	0.0000000E+000	0.000000000000000E+000	0.000289318
1	1	0	0	0	0	6	1885.49	0.316	0.914552	0.316193	0.0477921	0.118849	0	0.0330135	11	2.72925e-05	0.000000000000000E+000	115396	0.000000000000000E+000	0.000000000000000E+000	0.0330135	0.0330135	0.0000000E+000	0.000000000000000E+000	0.000289175
1	1	0	0	0	0	6	1897.49	0.316	0.916306	0.316574	0.0515902	0.122647	0	0.0340686	11	2.82584e-05	0.000000000000000E+000	118881	0.000000000000000E+000	0.000000000000000E+000	0.0340686	0.0340686	0.0000000E+000	0.000000000000000E+000	0.000290078
1	1	0	0	0	0	6	1909.49	0.316	0.918162	0.317526	0.0553884	0.126445	0	0.0351236	11	2.92261e-05	0.000000000000000E+000	122342	0.000000000000000E+000	0.000000000000000E+000	0.0351236	0.0351236	0.0000000E+000	0.000000000000000E+000	0.00029154
1	1	0	1	0	0	7	1920.49	0.562	0.977333	0.56205	0.00337468	0.131403	0	0.0365007	11	3.05435e-05	0.000000000000000E+000	120254	0.000000000000000E+000	0.000000000000000E+000	0.0365007	0.0365007	0.0000000E+000	0.000000000000000E+000	0.00054931
1	1	0	1	0	0	7	1932.49	0.562	0.985663	0.562368	0.0101242	0.138152	0	0.0383756	11	3.23849e-05	0.000000000000000E+000	125475	0.000000000000000E+000	0.000000000000000E+000	0.0383756	0.0383756	0.0000000E+000	0.000000000000000E+000	0.000554305
1	1	0	1	0	0	7	1944.49	0.562	0.991907	0.562431	0.0168737	0.144902	0	0.0402504	11	3.42392e-05	0.000000000000000E+000	130863	0.000000000000000E+000	0.000000000000000E+000	0.0402504	0.0402504	0.0000000E+000	0.000000000000000E+000	0.000557879
1	1	0	1	0	0	7	1956.49	0.562	0.997003	0.561987	0.0236232	0.151651	0	0.0421253	11	3.61039e-05	0.000000000000000E+000	136331	0.000000000000000E+000	0.000000000000000E+000	0.0421253	0.0421253	0.0000000E+000	0.000000000000000E+000	0.000560303
1	1	0	1	0	0	7	1968.49	0.562	1.00108	0.562368	0.0303728	0.158401	0	0.0440002	11	3.79771e-05	0.000000000000000E+000	141878	0.000000000000000E+000	0.000000000000000E+000	0.0440002	0.0440002	0.0000000E+000	0.000000000000000E+000	0.000562977
1	1	0	1	0	0	7	1980.49	0.562	1.00565	0.56205	0.0371223	0.16515	0	0.045875	11	3.98587e-05	0.000000000000000E+000	147321	0.000000000000000E+000	0.000000000000000E+000	0.045875	0.045875	0.0000000E+000	0.000000000000000E+000	0.000565227
1	1	0	1	0	0	7	1992.49	0.562	1.00858	0.562939	0.0438717	0.1719	0	0.0477499	11	4.17472e-05	0.000000000000000E+000	152942	0.000000000000000E+000	0.000000000000000E+000	0.0477499	0.0477499	0.0000000E+000	0.000000000000000E+000	0.000567768
1	1	0	1	0	0	7	2004.49	0.562	1.01192	0.562748	0.0506211	0.178649	0	0.0496247	11	4.36415e-05	0.000000000000000E+000	158476	0.000000000000000E+000	0.000000000000000E+000	0.0496247	0.0496247	0.0000000E+000	0.000000000000000E+000	0.000569458
1	1	0	1	0	0	7	2016.49	0.562	1.01482	0.563129	0.0573705	0.185398	0	0.0514995	11	4.55418e-05	0.000000000000000E+000	164042	0.000000000000000E+000	0.000000000000000E+000	0.0514995	0.0514995	0.0000000E+000	0.000000000000000E+000	0.000571473
1	1	0	1	0	0	7	2028.49	0.562	1.01724	0.562495	0.0641197	0.192148	0	0.0533743	11	4.74468e-05	0.000000000000000E+000	169650	0.000000000000000E+000	0.000000000000000E+000	0.0533743	0.0533743	0.0000000E+000	0.000000000000000E+000	0.000572192
1	1	0	1	0	0	7	2040.49	0.562	1.01972	0.562431	0.0708689	0.198897	0	0.0552491	11	4.93562e-05	0.000000000000000E+000	175224	0.000000000000000E+000	0.000000000000000E+000	0.0552491	0.0552491	0.0000000E+000	0.000000000000000E+000	0.000573525
1	1	0	1	0	0	7	2052.49	0.562	1.02231	0.562431	0.0776178	0.205646	0	0.0571238	11	5.12705e-05	0.000000000000000E+000	180759	0.000000000000000E+000	0.000000000000000E+000	0.0571238	0.0571238	0.0000000E+000	0.000000000000000E+000	0.000574978
1	1	0	1	0	0	7	2064.49	0.562	1.0245	0.562241	0.0843666	0.212394	0	0.0589985	11	5.31892e-05	0.000000000000000E+000	186332	0.000000000000000E+000	0.000000000000000E+000	0.0589985	0.0589985	0.0000000E+000	0.000000000000000E+000	0.000576013
1	1	0	1	0	0	7	2076.49	0.562	1.02657	0.56205	0.0911155	0.219143	0	0.0608731	11	5.5112e-05	0.000000000000000E+000	191903	0.000000000000000E+000	0.000000000000000E+000	0.0608731	0.0608731	0.0000000E+000	0.000000000000000E+000	0.000576986
1	1	0	1	0	0	7	2088.49	0.562	1.02872	0.56205	0.0978644	0.225892	0	0.0627478	11	5.70387e-05	0.000000000000000E+000	197443	0.000000000000000E+000	0.000000000000000E+000	0.0627478	0.0627478	0.0000000E+000	0.000000000000000E+000	0.000578191
1	1	0	0	0	0	8	2099.49	1	1.09533	1.00022	0.00500164	0.234269	0	0.0650746	11	5.95244e-05	0.000000000000000E+000	193498	0.000000000000000E+000	0.000000000000000E+000	0.0650746	0.0650746	0.0000000E+000	0.000000000000000E+000	0.00109556
1	1	0	0	0	0	8	2111.49	1	1.09896	0.999962	0.017006	0.246273	0	0.0684091	11	6.31832e-05	0.000000000000000E+000	202804	0.000000000000000E+000	0.000000000000000E+000	0.0684091	0.0684091	0.0000000E+000	0.000000000000000E+000	0.00109892
1	1	0	0	0	0	8	2123.49	1	1.10236	1.00028	0.02901	0.258277	0	0.0717436	11	6.68544e-05	0.000000000000000E+000	212096	0.000000000000000E+000	0.000000000000000E+000	0.0717436	0.0717436	0.0000000E+000	0.000000000000000E+000	0.00110267
1	1	0	0	0	0	8	2135.49	1	1.10563	1.00015	0.041014	0.270281	0	0.075078	11	7.05361e-05	0.000000000000000E+000	221360	0.000000000000000E+000	0.000000000000000E+000	0.075078	0.075078	0.0000000E+000	0.000000000000000E+000	0.00110579
1	1	0	0	0	0	8	2147.49	1	1.10811	1.00053	0.053018	0.282285	0	0.0784125	11	7.42268e-05	0.000000000000000E+000	230722	0.000000000000000E+000	0.000000000000000E+000	0.0784125	0.0784125	0.0000000E+000	0.000000000000000E+000	0.0011087
1	1	0	0	0	0	8	2159.49	1	1.11001	1.00009	0.0650219	0.294289	0	0.0817469	11	7.7925e-05	0.000000000000000E+000	240161	0.000000000000000E+000	0.000000000000000E+000	0.0817469	0.0817469	0.0000000E+000	0.000000000000000E+000	0.00111011
1	1	0	0	0	0	8	2171.49	1	1.11255	1.00047	0.0770257	0.306293	0	0.0850813	11	8.16308e-05	0.000000000000000E+000	249440	0.000000000000000E+000	0.000000000000000E+000	0.0850813	0.0850813	0.0000000E+000	0.000000000000000E+000	0.00111307
1	1	0	0	0	0	8	2183.49	1	1.11476	1.00047	0.0890297	0.318297	0	0.0884157	11	8.53447e-05	0.000000000000000E+000	258749	0.000000000000000E+000	0.000000000000000E+000	0.0884157	0.0884157	0.0000000E+000	0.000000000000000E+000	0.00111529
1	1	0	0	0	0	8	2195.49	1	1.11674	1.00028	0.101034	0.330301	0	0.0917502	11	8.90653e-05	0.000000000000000E+000	268077	0.000000000000000E+000	0.000000000000000E+000	0.0917502	0.0917502	0.0000000E+000	0.000000000000000E+000	0.00111705
1	1	0	0	0	0	8	2207.49	1	1.11859	0.999708	0.113038	0.342305	0	0.0950846	11	9.27921e-05	0.000000000000000E+000	277403	0.000000000000000E+000	0.000000000000000E+000	0.0950846	0.0950846	0.0000000E+000	0.000000000000000E+000	0.00111826
1	1	0	0	0	0	8	2219.49	1	1.12077	1.00072	0.125042	0.354309	0	0.0984191	11	9.65254e-05	0.000000000000000E+000	286624	0.000000000000000E+000	0.000000000000000E+000	0.0984191	0.0984191	0.0000000E+000	0.000000000000000E+000	0.00112158
1	1	0	0	0	0	8	2231.49	1	1.12199	1.00104	0.137046	0.366313	0	0.101754	11	0.000100265	0.000000000000000E+000	296043	0.000000000000000E+000	0.000000000000000E+000	0.101754	0.101754	0.0000000E+000	0.000000000000000E+000	0.00112316
1	1	0	0	0	0	8	2243.49	1	1.12323	0.999962	0.14905	0.378317	0	0.105088	11	0.000104008	0.000000000000000E+000	305438	0.000000000000000E+000	0.000000000000000E+000	0.105088	0.105088	0.0000000E+000	0.000000000000000E+000	0.00112319
1	1	0	0	0	0	8	2255.49	1	1.12451	1.00015	0.161054	0.390321	0	0.108423	11	0.000107756	0.000000000000000E+000	314804	0.000000000000000E+000	0.000000000000000E+000	0.108423	0.108423	0.0000000E+000	0.000000000000000E+000	0.00112468
1	1	0	0	0	0	8	2267.49	1	1.12603	1.00028	0.173058	0.402325	0	0.111757	11	0.000111508	0.000000000000000E+000	324090	0.000000000000000E+000	0.000000000000000E+000	0.111757	0.111757	0.0000000E+000	0.000000000000000E+000	0.00112634
1	1	0	1	0	0	9	2278.49	1.778	1.19193	1.77839	0.00711409	0.416442	0	0.115678	11	0.000116057	0.000000000000000E+000	318551	0.000000000000000E+000	0.000000000000000E+000	0.115678	0.115678	0.0000000E+000	0.000000000000000E+000	0.00211972
1	1	0	1	0	0	9	2290.49	1.778	1.19195	1.77858	0.0284567	0.437784	0	0.121607	11	0.000123124	0.000000000000000E+000	334872	0.000000000000000E+000	0.000000000000000E+000	0.121607	0.121607	0.0000000E+000	0.000000000000000E+000	0.00211998
1	1	0	1	0	0	9	2302.49	1.778	1.19378	1.77928	0.0497994	0.459127	0	0.127535	11	0.000130196	0.000000000000000E+000	350706	0.000000000000000E+000	0.000000000000000E+000	0.127535	0.127535	0.0000000E+000	0.000000000000000E+000	0.00212407
1	1	0	1	0	0	9	2314.49	1.778	1.19593	1.77871	0.071142	0.48047	0	0.133464	11	0.000137279	0.000000000000000E+000	366405	0.000000000000000E+000	0.000000000000000E+000	0.133464	0.133464	0.0000000E+000	0.000000000000000E+000	0.00212722
1	1	0	1	0	0	9	2326.49	1.778	1.1972	1.77935	0.0924844	0.501812	0	0.139392	11	0.000144371	0.000000000000000E+000	382311	0.000000000000000E+000	0.000000000000000E+000	0.139392	0.139392	0.0000000E+000	0.000000000000000E+000	0.00213024
1	1	0	1	0	0	9	2338.49	1.778	1.19909	1.77928	0.113827	0.523155	0	0.145321	11	0.000151475	0.000000000000000E+000	397999	0.000000000000000E+000	0.000000000000000E+000	0.145321	0.145321	0.0000000E+000	0.000000000000000E+000	0.00213352
1	1	0	1	0	0	9	2350.49	1.778	1.20082	1.77814	0.135169	0.544497	0	0.151249	11	0.000158589	0.000000000000000E+000	413691	0.000000000000000E+000	0.000000000000000E+000	0.151249	0.151249	0.0000000E+000	0.000000000000000E+000	0.00213523
1	1	0	1	0	0	9	2362.49	1.778	1.20217	1.7777	0.156512	0.56584	0	0.157178	11	0.000165715	0.000000000000000E+000	429467	0.000000000000000E+000	0.000000000000000E+000	0.157178	0.157178	0.0000000E+000	0.000000000000000E+000	0.00213709
1	1	0	1	0	0	9	2374.49	1.778	1.20425	1.77833	0.177854	0.587182	0	0.163106	11	0.000172849	0.000000000000000E+000	444962	0.000000000000000E+000	0.000000000000000E+000	0.163106	0.163106	0.0000000E+000	0.000000000000000E+000	0.00214155
1	1	0	1	0	0	9	2386.49	1.778	1.20614	1.77871	0.199197	0.608525	0	0.169035	11	0.000179994	0.000000000000000E+000	460477	0.000000000000000E+000	0.000000000000000E+000	0.169035	0.169035	0.0000000E+000	0.000000000000000E+000	0.00214537
1	1	0	1	0	0	9	2398.49	1.778	1.20697	1.77827	0.220539	0.629867	0	0.174963	11	0.000187146	0.000000000000000E+000	476327	0.000000000000000E+000	0.000000000000000E+000	0.174963	0.174963	0.0000000E+000	0.000000000000000E+000	0.00214631
1	1	0	1	0	0	9	2410.49	1.778	1.20911	1.77858	0.241882	0.65121	0	0.180892	11	0.000194308	0.000000000000000E+000	491672	0.000000000000000E+000	0.000000000000000E+000	0.180892	0.180892	0.0000000E+000	0.000000000000000E+000	0.0021505
1	1	0	1	0	0	9	2422.49	1.778	1.21024	1.77808	0.263225	0.672552	0	0.18682	11	0.000201478	0.000000000000000E+000	507354	0.000000000000000E+000	0.000000000000000E+000	0.18682	0.18682	0.0000000E+000	0.000000000000000E+000	0.00215189
1	1	0	1	0	0	9	2434.49	1.778	1.21197	1.77884	0.284568	0.693895	0	0.192749	11	0.000208658	0.000000000000000E+000	522769	0.000000000000000E+000	0.000000000000000E+000	0.192749	0.192749	0.0000000E+000	0.000000000000000E+000	0.0021559
1	1	0	1	0	0	9	2446.49	1.778	1.21356	1.77871	0.30591	0.715238	0	0.198677	11	0.000215847	0.000000000000000E+000	538206	0.000000000000000E+000	0.000000000000000E+000	0.198677	0.198677	0.0000000E+000	0.000000000000000E+000	0.00215856
1	1	0	0	0	0	10	2457.49	3.162	1.28896	3.16255	0.00948625	0.738953	0	0.205265	11	0.000224044	0.000000000000000E+000	526194	0.000000000000000E+000	0.000000000000000E+000	0.205265	0.205265	0.0000000E+000	0.000000000000000E+000	0.00407642
1	1	0	0	0	0	10	2469.49	3.162	1.28687	3.16179	0.0474323	0.776899	0	0.215805	11	0.000237609	0.000000000000000E+000	554042	0.000000000000000E+000	0.000000000000000E+000	0.215805	0.215805	0.0000000E+000	0.000000000000000E+000	0.0040688
1	1	0	0	0	0	10	2481.49	3.162	1.28916	3.16205	0.0853783	0.814845	0	0.226346	11	0.000251188	0.000000000000000E+000	580152	0.000000000000000E+000	0.000000000000000E+000	0.226346	0.226346	0.0000000E+000	0.000000000000000E+000	0.0040764
1	1	0	0	0	0	10	2493.49	3.162	1.29194	3.16274	0.123324	0.852791	0	0.236886	11	0.000264795	0.000000000000000E+000	605970	0.000000000000000E+000	0.000000000000000E+000	0.236886	0.236886	0.0000000E+000	0.000000000000000E+000	0.00408608
1	1	0	0	0	0	10	2505.49	3.162	1.29575	3.16268	0.16127	0.890737	0	0.247427	11	0.000278429	0.000000000000000E+000	631224	0.000000000000000E+000	0.000000000000000E+000	0.247427	0.247427	0.0000000E+000	0.000000000000000E+000	0.00409806
1	1	0	0	0	0	10	2517.49	3.162	1.29773	3.16255	0.199216	0.928683	0	0.257967	11	0.000292091	0.000000000000000E+000	657192	0.000000000000000E+000	0.000000000000000E+000	0.257967	0.257967	0.0000000E+000	0.000000000000000E+000	0.00410415
1	1	0	0	0	0	10	2529.49	3.162	1.2989	3.16255	0.237162	0.966629	0	0.268508	11	0.000305777	0.000000000000000E+000	683482	0.000000000000000E+000	0.000000000000000E+000	0.268508	0.268508	0.0000000E+000	0.000000000000000E+000	0.00410784
1	1	0	0	0	0	10	2541.49	3.162	1.30216	3.16262	0.275108	1.00457	0	0.279048	11	0.000319486	0.000000000000000E+000	708680	0.000000000000000E+000	0.000000000000000E+000	0.279048	0.279048	0.0000000E+000	0.000000000000000E+000	0.00411822
1	1	0	0	0	0	10	2553.49	3.162	1.30335	3.16167	0.313054	1.04252	0	0.289589	11	0.000333223	0.000000000000000E+000	734830	0.000000000000000E+000	0.000000000000000E+000	0.289589	0.289589	0.0000000E+000	0.000000000000000E+000	0.00412076
1	1	0	0	0	0	10	2565.49	3.162	1.30577	3.16192	0.350999	1.08047	0	0.30013	11	0.00034698	0.000000000000000E+000	760280	0.000000000000000E+000	0.000000000000000E+000	0.30013	0.30013	0.0000000E+000	0.000000000000000E+000	0.00412874
1	1	0	0	0	0	10	2577.49	3.162	1.30834	3.16167	0.388945	1.11841	0	0.31067	11	0.000360762	0.000000000000000E+000	785563	0.000000000000000E+000	0.000000000000000E+000	0.31067	0.31067	0.0000000E+000	0.000000000000000E+000	0.00413652
1	1	0	0	0	0	10	2589.49	3.162	1.31038	3.16186	0.426892	1.15636	0	0.321211	11	0.000374564	0.000000000000000E+000	811053	0.000000000000000E+000	0.000000000000000E+000	0.321211	0.321211	0.0000000E+000	0.000000000000000E+000	0.00414322
1	1	0	0	0	0	10	2601.49	3.162	1.3126	3.16205	0.464838	1.1943	0	0.331751	11	0.000388386	0.000000000000000E+000	836364	0.000000000000000E+000	0.000000000000000E+000	0.331751	0.331751	0.0000000E+000	0.000000000000000E+000	0.0041505
1	1	0	0	0	0	10	2613.49	3.162	1.31394	3.16217	0.502784	1.23225	0	0.342292	11	0.000402229	0.000000000000000E+000	862127	0.000000000000000E+000	0.000000000000000E+000	0.342292	0.342292	0.0000000E+000	0.000000000000000E+000	0.00415491
1	1	0	0	0	0	10	2625.49	3.162	1.31708	3.16236	0.54073	1.2702	0	0.352832	11	0.000416099	0.000000000000000E+000	886728	0.000000000000000E+000	0.000000000000000E+000	0.352832	0.352832	0.0000000E+000	0.000000000000000E+000	0.00416509
1	1	0	1	0	0	11	2636.49	5.623	1.42359	5.62284	0.0112457	1.3099	0	0.363862	11	0.000430967	0.000000000000000E+000	851161	0.000000000000000E+000	0.000000000000000E+000	0.363862	0.363862	0.0000000E+000	0.000000000000000E+000	0.0080046
1	1	0	1	0	0	11	2648.49	5.623	1.4224	5.62366	0.0787231	1.37738	0	0.382606	11	0.000457595	0.000000000000000E+000	895698	0.000000000000000E+000	0.000000000000000E+000	0.382606	0.382606	0.0000000E+000	0.000000000000000E+000	0.0079991
1	1	0	1	0	0	11	2660.49	5.623	1.42897	5.6229	0.1462	1.44486	0	0.401349	11	0.000484333	0.000000000000000E+000	935582	0.000000000000000E+000	0.000000000000000E+000	0.401349	0.401349	0.0000000E+000	0.000000000000000E+000	0.00803495
1	1	0	1	0	0	11	2672.49	5.623	1.43855	5.62347	0.213678	1.51233	0	0.420093	11	0.000511203	0.000000000000000E+000	973235	0.000000000000000E+000	0.000000000000000E+000	0.420093	0.420093	0.0000000E+000	0.000000000000000E+000	0.00808967
1	1	0	1	0	0	11	2684.49	5.623	1.44439	5.62303	0.281155	1.57981	0	0.438837	11	0.000538227	0.000000000000000E+000	1.01286e+06	0.000000000000000E+000	0.000000000000000E+000	0.438837	0.438837	0.0000000E+000	0.000000000000000E+000	0.00812183
1	1	0	1	0	0	11	2696.49	5.623	1.45312	5.62316	0.348632	1.64729	0	0.45758	11	0.000565406	0.000000000000000E+000	1.05024e+06	0.000000000000000E+000	0.000000000000000E+000	0.45758	0.45758	0.0000000E+000	0.000000000000000E+000	0.00817113
1	1	0	1	0	0	11	2708.49	5.623	1.46096	5.62347	0.416109	1.71477	0	0.476324	11	0.00059274	0.000000000000000E+000	1.08782e+06	0.000000000000000E+000	0.000000000000000E+000	0.476324	0.476324	0.0000000E+000	0.000000000000000E+000	0.00821565
1	1	0	1	0	0	11	2720.49	5.623	1.46985	5.62297	0.483586	1.78224	0	0.495068	11	0.000620223	0.000000000000000E+000	1.12429e+06	0.000000000000000E+000	0.000000000000000E+000	0.495068	0.495068	0.0000000E+000	0.000000000000000E+000	0.00826489
1	1	0	1	0	0	11	2732.49	5.623	1.47761	5.62284	0.551064	1.84972	0	0.513811	11	0.000647851	0.000000000000000E+000	1.16117e+06	0.000000000000000E+000	0.000000000000000E+000	0.513811	0.513811	0.0000000E+000	0.000000000000000E+000	0.00830838
1	1	0	1	0	0	11	2744.49	5.623	1.4863	5.62297	0.618541	1.9172	0	0.532555	11	0.000675609	0.000000000000000E+000	1.197e+06	0.000000000000000E+000	0.000000000000000E+000	0.532555	0.532555	0.0000000E+000	0.000000000000000E+000	0.00835742
1	1	0	1	0	0	11	2756.49	5.623	1.49027	5.62322	0.686018	1.98467	0	0.551299	11	0.00070351	0.000000000000000E+000	1.23606e+06	0.000000000000000E+000	0.000000000000000E+000	0.551299	0.551299	0.0000000E+000	0.000000000000000E+000	0.00838011
1	1	0	1	0	0	11	2768.49	5.623	1.49873	5.62284	0.753495	2.05215	0	0.570042	11	0.000731554	0.000000000000000E+000	1.27139e+06	0.000000000000000E+000	0.000000000000000E+000	0.570042	0.570042	0.0000000E+000	0.000000000000000E+000	0.00842713
1	1	0	1	0	0	11	2780.49	5.623	1.50808	5.62284	0.820972	2.11963	0	0.588786	11	0.000759751	0.000000000000000E+000	1.30563e+06	0.000000000000000E+000	0.000000000000000E+000	0.588786	0.588786	0.0000000E+000	0.000000000000000E+000	0.00847971
1	1	0	1	0	0	11	2792.49	5.623	1.51613	5.62379	0.88845	2.18711	0	0.60753	11	0.000788094	0.000000000000000E+000	1.34055e+06	0.000000000000000E+000	0.000000000000000E+000	0.60753	0.60753	0.0000000E+000	0.000000000000000E+000	0.00852639
1	1	0	1	0	0	11	2804.49	5.623	1.52324	5.62347	0.955927	2.25458	0	0.626273	11	0.000816572	0.000000000000000E+000	1.37591e+06	0.000000000000000E+000	0.000000000000000E+000	0.626273	0.626273	0.0000000E+000	0.000000000000000E+000	0.0085659
1	1	0	0	1	0	12	2815.49	10	1.6937	10.0001	0.00999926	2.32082	0	0.644671	11	0.000845122	0.000000000000000E+000	1.28287e+06	0.000000000000000E+000	0.000000000000000E+000	0.644671	0.644671	0.0000000E+000	0.000000000000000E+000	0.0169372
1	1	0	0	0	0	12	2827.49	10	1.70648	9.99948	0.130001	2.44082	0	0.678005	11	0.000901672	0.000000000000000E+000	1.33975e+06	0.000000000000000E+000	0.000000000000000E+000	0.678005	0.678005	0.0000000E+000	0.000000000000000E+000	0.0170639
1	1	0	0	0	0	12	2839.49	10	1.73317	10.0007	0.250003	2.56082	0	0.711339	11	0.000959056	0.000000000000000E+000	1.38532e+06	0.000000000000000E+000	0.000000000000000E+000	0.711339	0.711339	0.0000000E+000	0.000000000000000E+000	0.0173329
1	1	0	0	0	0	12	2851.49	10	1.75202	9.99999	0.370004	2.68082	0	0.744672	11	0.00101718	0.000000000000000E+000	1.4356e+06	0.000000000000000E+000	0.000000000000000E+000	0.744672	0.744672	0.0000000E+000	0.000000000000000E+000	0.0175202
1	1	0	0	0	0	12	2863.49	10	1.76518	10	0.490006	2.80082	0	0.778006	11	0.00107582	0.000000000000000E+000	1.48936e+06	0.000000000000000E+000	0.000000000000000E+000	0.778006	0.778006	0.0000000E+000	0.000000000000000E+000	0.0176519
1	1	0	0	0	0	12	2875.49	10	1.77492	10.0001	0.610008	2.92082	0	0.81134	11	0.00113485	0.000000000000000E+000	1.54517e+06	0.000000000000000E+000	0.000000000000000E+000	0.81134	0.81134	0.0000000E+000	0.000000000000000E+000	0.0177494
1	1	0	0	0	0	12	2887.49	10	1.78448	10.0002	0.73001	3.04083	0	0.844674	11	0.00119414	0.000000000000000E+000	1.60056e+06	0.000000000000000E+000	0.000000000000000E+000	0.844674	0.844674	0.0000000E+000	0.000000000000000E+000	0.0178452
1	1	0	0	0	0	12	2899.49	10	1.7886	10.0005	0.850011	3.16083	0	0.878008	11	0.00125367	0.000000000000000E+000	1.66012e+06	0.000000000000000E+000	0.000000000000000E+000	0.878008	0.878008	0.0000000E+000	0.000000000000000E+000	0.0178869
1	1	0	0	0	0	12	2911.49	10	1.79634	10.0005	0.970013	3.28083	0	0.911342	11	0.00131343	0.000000000000000E+000	1.71618e+06	0.000000000000000E+000	0.000000000000000E+000	0.911342	0.911342	0.0000000E+000	0.000000000000000E+000	0.0179643
1	1	0	0	0	0	12	2923.49	10	1.80231	10.0004	1.09002	3.40083	0	0.944675	11	0.00137342	0.000000000000000E+000	1.7734e+06	0.000000000000000E+000	0.000000000000000E+000	0.944675	0.944675	0.0000000E+000	0.000000000000000E+000	0.0180239
1	1	0	0	0	0	12	2935.49	10	1.80835	10.0006	1.21002	3.52083	0	0.978009	11	0.00143363	0.000000000000000E+000	1.83022e+06	0.000000000000000E+000	0.000000000000000E+000	0.978009	0.978009	0.0000000E+000	0.000000000000000E+000	0.0180846
1	1	0	0	0	0	12	2947.49	10	1.81344	10.0004	1.33002	3.64084	0	1.01134	11	0.00149403	0.000000000000000E+000	1.88761e+06	0.000000000000000E+000	0.000000000000000E+000	1.01134	1.01134	0.0000000E+000	0.000000000000000E+000	0.0181351
1	1	0	0	0	0	12	2959.49	10	1.81801	9.99967	1.45002	3.76084	0	1.04468	11	0.00155457	0.000000000000000E+000	1.94521e+06	0.000000000000000E+000	0.000000000000000E+000	1.04468	1.04468	0.0000000E+000	0.000000000000000E+000	0.0181795
1	1	0	0	0	0	12	2971.49	10	1.82185	10.0004	1.57002	3.88084	0	1.07801	11	0.0016152	0.000000000000000E+000	2.0033e+06	0.000000000000000E+000	0.000000000000000E+000	1.07801	1.07801	0.0000000E+000	0.000000000000000E+000	0.0182192
1	1	0	0	0	0	12	2983.49	10	1.82376	10	1.69003	4.00084	0	1.11134	11	0.00167592	0.000000000000000E+000	2.06321e+06	0.000000000000000E+000	0.000000000000000E+000	1.11134	1.11134	0.0000000E+000	0.000000000000000E+000	0.0182377
1	1	0	0	0	0	12	2994.49	10	1.83202	10.0003	1.80003	4.11085	0	1.1419	11	0.00173175	0.000000000000000E+000	2.11095e+06	0.000000000000000E+000	0.000000000000000E+000	1.1419	1.1419	0.0000000E+000	0.000000000000000E+000	0.0183208