File: Data_1mg/2023_01_31_Co25Ni25Fe50 elect1 ref307__01_CV_C04.mpt
EC-Lab ASCII FILE
Nb header lines : 57

Cyclic Voltammetry

Run on channel : 4 (SN 12476)
User :
CE vs. WE compliance from -10 V to 10 V
Electrode connection : standard
Potential control : Ewe
Ewe ctrl range : min = -2.50 V, max = 2.50 V
Safety Limits :
	Do not start on E overload
Acquisition started on : 01/31/2023 15:15:50.955
Loaded Setting File :  C:\Users\grupogalan\Documents\EC-Lab\Data\Scott\_cyclic_pause_tafel_CA.mps
Saved on :
	File : 2023_01_31_Co25Ni25Fe50 elect1 ref307__01_CV_C04.mpr
	Directory : C:\Users\grupogalan\Documents\EC-Lab\Data\Scott\
	Host : 169.254.104.159
Device : VSP (SN 1176)
Address : USB
EC-Lab for windows v11.46 (software)
Internet server v11.40 (firmware)
Command interpretor v11.40 (firmware)
Electrode material :
Initial state :
Electrolyte :
Comments :
Electrode surface area : 0.001 cm²
Characteristic mass : 0.001 g
Equivalent Weight : 0.000 g/eq.
Density : 0.000 g/cm3
Volume (V) : 0.001 cm³
Cycle Definition : Charge/Discharge alternance
Ei (V)              0.000
vs.                 Eoc
dE/dt               10.000
dE/dt unit          mV/s
E1 (V)              1.000
vs.                 Ref
Step percent        50
N                   10
E range min (V)     -2.500
E range max (V)     2.500
I Range             Auto
I Range min         Unset
I Range max         Unset
I Range init        Unset
Bandwidth           5
E2 (V)              0.000
vs.                 Ref
nc cycles           2
Reverse Scan        0
Ef (V)              0.000
vs.                 Eoc

mode	ox/red	error	control changes	counter inc.	time/s	control/V	Ewe/V	<I>/mA	cycle number	(Q-Qo)/C	I Range	P/W
2	0	0	1	0	0.000000000000000E+000	-0.181041	-0.184147	-0.055237	1	0.0000000E+000	13	1.01717e-05
2	1	0	0	0	0.9852	-0.171189	-0.171198	0.000145358	1	4.2353e-07	12	-2.4885e-08
2	0	0	1	0	1.9854	-0.161188	-0.16199	0.000447101	1	1.1804e-06	12	-7.24257e-08
2	0	0	0	0	2.9856	-0.151186	-0.150267	0.000623913	1	2.17446e-06	12	-9.37535e-08
2	1	0	0	0	3.9856	-0.141185	-0.141608	0.00107634	1	3.54343e-06	12	-1.52419e-07
2	1	0	1	0	4.9858	-0.131183	-0.131617	0.00183018	1	5.47811e-06	12	-2.40883e-07
2	0	0	0	0	5.986	-0.121182	-0.121057	0.00274572	1	8.17438e-06	12	-3.32388e-07
2	0	0	1	0	6.9862	-0.11118	-0.109766	0.00409479	1	1.19623e-05	12	-4.49469e-07
2	1	0	1	0	7.9862	-0.101179	-0.10184	0.00524578	1	1.71019e-05	12	-5.34232e-07
2	1	0	0	0	8.9864	-0.0911773	-0.0904202	0.00597704	1	2.32148e-05	12	-5.40445e-07
2	0	0	1	0	9.9866	-0.0811758	-0.0801366	0.00712562	1	3.0152e-05	12	-5.71023e-07
2	0	0	0	0	10.9868	-0.0711743	-0.0716635	0.00789399	1	3.78971e-05	12	-5.6571e-07
2	1	0	0	0	11.9868	-0.0611728	-0.0605902	0.0082374	1	4.64084e-05	12	-4.99106e-07
2	1	0	1	0	12.987	-0.0511713	-0.050711	0.00849744	1	5.54418e-05	12	-4.30913e-07
2	0	0	0	0	13.9872	-0.0411698	-0.0416403	0.00877832	1	6.45719e-05	12	-3.65532e-07
2	0	0	1	0	14.9874	-0.0311683	-0.031951	0.00862457	1	7.3556e-05	12	-2.75564e-07
2	1	0	1	0	15.9874	-0.0211668	-0.0202092	0.00774627	1	8.22959e-05	12	-1.56546e-07
2	1	0	0	0	16.9876	-0.0111653	-0.0102418	0.00760958	1	9.06999e-05	12	-7.79361e-08
2	0	0	1	0	17.9878	-0.00116384	-0.00215502	0.0073669	1	9.87728e-05	12	-1.58758e-08
2	0	0	0	0	18.988	0.00883765	0.00754491	0.00691628	1	0.000106368	12	5.21827e-08
2	1	0	0	0	19.988	0.0188391	0.0199415	0.00623638	1	0.000113505	12	1.24363e-07
2	1	0	1	0	20.9882	0.0288406	0.0282544	0.00550345	1	0.000120186	12	1.55497e-07
2	0	0	0	0	21.9884	0.0388421	0.0383969	0.00535341	1	0.000126393	12	2.05554e-07
2	0	0	1	0	22.9886	0.0488436	0.0491517	0.00512543	1	0.000132224	12	2.51923e-07
2	1	0	1	0	23.9886	0.0588451	0.0585025	0.00484925	1	0.000137623	12	2.83693e-07
2	1	0	0	0	24.9888	0.0688466	0.0700883	0.00429266	1	0.000142777	12	3.00865e-07
2	0	0	1	0	25.989	0.0788481	0.0788776	0.00431554	1	0.000147743	12	3.404e-07
2	1	0	0	0	26.9892	0.0888496	0.0885669	0.00452427	1	0.000152604	12	4.00701e-07
2	1	0	0	0	27.9892	0.098851	0.0981363	0.00433237	1	0.000157355	12	4.25163e-07
2	0	0	1	0	28.9894	0.108853	0.10945	0.00404645	1	0.000162047	12	4.42886e-07
2	0	0	0	0	29.9896	0.118854	0.117838	0.00439294	1	0.000166788	12	5.17654e-07
2	1	0	1	0	30.9898	0.128856	0.126682	0.00454416	1	0.000171572	12	5.75664e-07
2	0	0	1	0	31.9898	0.138857	0.139144	0.00436201	1	0.000176403	12	6.06946e-07
2	0	0	0	0	32.99	0.148858	0.14989	0.00445696	1	0.000181347	12	6.68054e-07
2	1	0	1	0	33.9902	0.15886	0.159307	0.00460299	1	0.000186372	12	7.33291e-07
2	1	0	1	0	34.9903	0.168861	0.168815	0.00462528	1	0.000191518	12	7.80815e-07
2	0	0	0	0	35.9904	0.178863	0.178513	0.00466321	1	0.000196803	12	8.32445e-07
2	1	0	1	0	36.9906	0.188864	0.187922	0.00484462	1	0.000202166	12	9.10413e-07
2	1	0	0	0	37.9908	0.198866	0.199599	0.00537448	1	0.000207713	12	1.07274e-06
2	0	0	1	0	38.9909	0.208867	0.209551	0.00488478	1	0.000213376	12	1.02361e-06
2	0	0	1	0	39.991	0.218869	0.217294	0.00509544	1	0.000219108	12	1.10721e-06
2	1	0	0	0	40.9912	0.22887	0.226931	0.00544161	1	0.000225006	12	1.23487e-06
2	0	0	1	0	41.9914	0.238872	0.241908	0.00559498	1	0.000230999	12	1.35347e-06
2	0	0	1	0	42.9915	0.248873	0.249081	0.00605864	1	0.000237228	12	1.50909e-06
2	1	0	0	0	43.9916	0.258875	0.255871	0.00593696	1	0.000243626	12	1.51909e-06
2	1	0	1	0	44.9918	0.268876	0.268884	0.00619213	1	0.00025022	12	1.66496e-06
2	0	0	0	0	45.992	0.278878	0.281215	0.00661932	1	0.00025702	12	1.86145e-06
2	1	0	1	0	46.9921	0.28888	0.288846	0.0067045	1	0.000264053	12	1.93657e-06
2	1	0	1	0	47.9922	0.298881	0.29783	0.00698911	1	0.000271348	12	2.08156e-06
2	1	0	0	0	48.9924	0.308882	0.309226	0.00745626	1	0.000278862	12	2.30567e-06
2	0	0	1	0	49.9926	0.318884	0.319176	0.00778284	1	0.000286708	12	2.4841e-06
2	1	0	1	0	50.9926	0.328885	0.328961	0.00779316	1	0.000294914	12	2.56364e-06
2	1	0	0	0	51.9928	0.338887	0.339016	0.00838265	1	0.000303485	12	2.84185e-06
2	0	0	1	0	52.993	0.348888	0.348948	0.00887807	1	0.00031245	12	3.09798e-06
2	1	0	0	0	53.9932	0.35889	0.358605	0.00921472	1	0.000321768	12	3.30445e-06
2	1	0	0	0	54.9932	0.368891	0.367975	0.00919517	1	0.000331435	12	3.38359e-06
2	0	0	1	0	55.9934	0.378893	0.379698	0.0102935	1	0.000341554	12	3.90841e-06
2	1	0	0	0	56.9936	0.388894	0.388376	0.0102159	1	0.000352089	12	3.96761e-06
2	1	0	1	0	57.9938	0.398896	0.398889	0.0104536	1	0.000363054	12	4.16984e-06
2	0	0	1	0	58.9938	0.408897	0.41021	0.0112212	1	0.000374521	12	4.60304e-06
2	1	0	0	0	59.994	0.418899	0.418193	0.0119597	1	0.000386514	12	5.00148e-06
2	1	0	1	0	60.9942	0.4289	0.429802	0.0123894	1	0.000399146	12	5.325e-06
2	0	0	0	0	61.9944	0.438902	0.439707	0.0132273	1	0.000412362	12	5.81615e-06
2	1	0	0	0	62.9944	0.448903	0.449197	0.0141552	1	0.000426334	12	6.35848e-06
2	1	0	1	0	63.9946	0.458905	0.458983	0.0145612	1	0.000441089	12	6.68337e-06
2	1	0	0	0	64.9948	0.468906	0.467703	0.0154327	1	0.000456661	12	7.21791e-06
2	0	0	1	0	65.995	0.478908	0.479676	0.0168046	1	0.000473181	12	8.06075e-06
2	1	0	1	0	66.995	0.488909	0.487343	0.0181005	1	0.00049071	12	8.82114e-06
2	1	0	0	0	67.9952	0.49891	0.498324	0.0190436	1	0.000509472	12	9.48987e-06
2	1	0	1	0	68.9954	0.508912	0.51008	0.0200822	1	0.000529514	12	1.02435e-05
2	0	0	0	0	69.9956	0.518913	0.519588	0.0214072	1	0.000550788	12	1.11229e-05
2	1	0	0	0	70.9956	0.528915	0.529185	0.0228124	1	0.00057337	12	1.2072e-05
2	1	0	1	0	71.9958	0.538916	0.538421	0.0244478	1	0.000597399	12	1.31632e-05
2	1	0	0	0	72.996	0.548918	0.549683	0.0261485	1	0.000623045	12	1.43734e-05
2	1	0	1	0	73.9962	0.558919	0.558504	0.0279217	1	0.000650442	12	1.55944e-05
2	1	0	1	0	74.9962	0.568921	0.569708	0.0297121	1	0.000679675	12	1.69272e-05
2	0	0	0	0	75.9964	0.578922	0.577729	0.0318336	1	0.000710985	12	1.83912e-05
2	1	0	1	0	76.9966	0.588924	0.588431	0.0340382	1	0.000744471	12	2.00292e-05
2	1	0	0	0	77.9968	0.598925	0.600075	0.0368266	1	0.000780383	12	2.20987e-05
2	1	0	0	0	78.9968	0.608927	0.60936	0.0397763	1	0.000818912	12	2.42381e-05
2	1	0	1	0	79.997	0.618928	0.618813	0.0425303	1	0.000860395	12	2.63183e-05
2	0	0	0	0	80.9972	0.62893	0.628936	0.046108	1	0.000905349	12	2.8999e-05
2	1	0	1	0	81.9974	0.638931	0.638177	0.0503425	1	0.000954322	12	3.21275e-05
2	1	0	1	0	82.9974	0.648933	0.649136	0.0558224	1	0.00100802	12	3.62363e-05
2	1	0	0	0	83.9976	0.658934	0.658508	0.0621129	1	0.00106737	12	4.09018e-05
2	1	0	1	0	84.9978	0.668936	0.668801	0.0694277	1	0.00113352	12	4.64333e-05
2	1	0	1	0	85.9979	0.678936	0.679294	0.0785282	1	0.0012079	12	5.33437e-05
2	1	0	0	0	86.998	0.688939	0.68935	0.0893587	1	0.00129215	12	6.15995e-05
2	1	0	1	0	87.9982	0.69894	0.699792	0.102458	1	0.00138821	12	7.16995e-05
2	1	0	0	0	88.9984	0.708942	0.709639	0.118321	1	0.00149872	12	8.39654e-05
2	1	0	1	0	89.9985	0.718943	0.720156	0.135226	1	0.00162623	12	9.73838e-05
2	1	0	1	0	90.9986	0.728945	0.725967	0.156873	1	0.00177289	12	0.000113885
2	1	0	0	0	91.9988	0.738946	0.739791	0.182832	1	0.0019432	12	0.000135257
2	1	0	1	0	92.999	0.748948	0.7498	0.212549	1	0.00214091	12	0.000159369
2	1	0	1	0	93.9991	0.758949	0.758441	0.249006	1	0.00237192	12	0.000188857
2	1	0	0	0	94.9992	0.768951	0.767493	0.292474	1	0.00264263	12	0.000224471
2	1	0	1	0	95.9994	0.778952	0.778716	0.342424	1	0.00296088	12	0.000266651
2	1	0	0	0	96.9996	0.788954	0.788368	0.403988	1	0.003334	12	0.000318491
2	1	0	1	0	97.9997	0.798955	0.799319	0.477687	1	0.00377448	12	0.000381824
2	1	0	1	0	98.9998	0.808957	0.807473	0.564835	1	0.00429469	12	0.000456089
2	1	0	0	0	100	0.818958	0.820545	0.6688	1	0.00491021	12	0.00054878
2	1	0	1	0	101	0.828959	0.829923	0.79548	1	0.00564099	12	0.000660187
2	1	0	1	0	102	0.838962	0.840431	0.947287	1	0.00651142	12	0.00079613
2	1	0	0	0	103.03	0.849263	0.850178	1.13802	1	0.00758489	11	0.000967517
2	1	0	1	0	104.031	0.859264	0.858592	1.36024	1	0.00883343	11	0.00116789
2	1	0	0	0	105.031	0.869265	0.870274	1.63158	1	0.0103289	11	0.00141992
2	1	0	1	0	106.031	0.879267	0.878879	1.96808	1	0.0121257	11	0.00172971
2	1	0	1	0	107.031	0.889268	0.890912	2.3794	1	0.0142973	11	0.00211984
2	1	0	0	0	108.031	0.89927	0.898071	2.87469	1	0.0169196	11	0.00258167
2	1	0	1	0	109.031	0.909272	0.90796	3.46659	1	0.020086	11	0.00314752
2	1	0	1	0	110.031	0.919273	0.920193	4.17269	1	0.0238959	11	0.00383968
2	1	0	0	0	111.032	0.929275	0.929561	5.00741	1	0.0284805	11	0.00465469
2	1	0	1	0	112.032	0.939276	0.938339	5.98952	1	0.033971	11	0.0056202
2	1	0	0	0	113.032	0.949277	0.949297	7.1071	1	0.0405112	11	0.00674674
2	1	0	0	0	114.032	0.959279	0.959489	8.48755	1	0.0482922	11	0.00814371
2	1	0	1	0	115.032	0.96928	0.968854	10.232	1	0.0576236	11	0.0099133
2	1	0	0	0	116.062	0.979582	0.980891	12.503	1	0.069311	10	0.0122641
2	1	0	1	0	117.063	0.989583	0.988334	14.9862	1	0.0830656	10	0.0148114
2	1	0	1	0	118.058	0.999535	0.999297	17.3426	1	0.0991778	10	0.0173304
2	1	0	0	0	118.963	0.991484	0.990634	16.0368	1	0.114406	10	0.0158866
2	1	0	1	0	119.963	0.981482	0.98117	14.0525	1	0.129456	10	0.0137879
2	1	0	0	0	120.964	0.971481	0.971739	12.1179	1	0.142525	10	0.0117754
2	1	0	0	0	121.964	0.961479	0.961753	10.35	1	0.153732	10	0.00995418
2	1	0	1	0	122.964	0.951478	0.952087	8.78833	1	0.163279	10	0.00836725
2	1	0	0	0	123.964	0.941476	0.941499	7.44197	1	0.171379	10	0.0070066
2	1	0	1	0	124.964	0.931475	0.930878	6.26101	1	0.178214	10	0.00582824
2	1	0	1	0	125.964	0.921473	0.920307	5.25039	1	0.18395	10	0.00483197
2	1	0	0	0	126.994	0.911172	0.909384	4.36712	1	0.188884	11	0.00397139
2	1	0	1	0	127.995	0.90117	0.902369	3.62604	1	0.192868	11	0.00327203
2	1	0	0	0	128.995	0.891169	0.893401	2.99673	1	0.19617	11	0.00267729
2	1	0	0	0	129.995	0.881167	0.881668	2.47244	1	0.198895	11	0.00217987
2	1	0	1	0	130.995	0.871166	0.870893	2.03028	1	0.201137	11	0.00176815
2	1	0	0	0	131.995	0.861164	0.862087	1.65981	1	0.202975	11	0.0014309
2	1	0	1	0	132.995	0.851163	0.850812	1.35371	1	0.204475	11	0.00115175
2	1	0	1	0	133.995	0.841161	0.840784	1.10403	1	0.205699	11	0.000928253
2	1	0	0	0	134.996	0.83116	0.832466	0.895537	1	0.206694	11	0.000745504
2	1	0	1	0	135.996	0.821158	0.821551	0.727236	1	0.207502	11	0.000597461
2	1	0	0	0	136.996	0.811157	0.811804	0.589513	1	0.208157	11	0.000478569
2	1	0	0	0	137.996	0.801155	0.800355	0.47604	1	0.208687	11	0.000381001
2	1	0	1	0	139.026	0.790854	0.788909	0.38353	1	0.209127	12	0.00030257
2	1	0	0	0	140.026	0.780852	0.778161	0.310204	1	0.209473	12	0.000241389
2	1	0	1	0	141.027	0.770851	0.769631	0.250933	1	0.209752	12	0.000193126
2	1	0	1	0	142.027	0.760849	0.760681	0.202623	1	0.209977	12	0.000154132
2	1	0	0	0	143.027	0.750848	0.751952	0.163527	1	0.210159	12	0.000122965
2	1	0	1	0	144.027	0.740847	0.740081	0.131926	1	0.210306	12	9.76356e-05
2	1	0	0	0	145.027	0.730845	0.730821	0.106387	1	0.210424	12	7.77498e-05
2	1	0	0	0	146.027	0.720843	0.721007	0.0856587	1	0.210519	12	6.17605e-05
2	1	0	1	0	147.027	0.710842	0.710147	0.0689026	1	0.210596	12	4.89309e-05
2	1	0	0	0	148.028	0.70084	0.700928	0.0552476	1	0.210657	12	3.87246e-05
2	1	0	1	0	149.028	0.690839	0.691247	0.0442269	1	0.210706	12	3.05717e-05
2	0	0	1	0	150.028	0.680838	0.680063	0.0354418	1	0.210745	12	2.41027e-05
2	0	0	0	0	151.028	0.670836	0.670945	0.0285204	1	0.210777	12	1.91356e-05
2	0	0	1	0	152.028	0.660835	0.662935	0.0230698	1	0.210802	12	1.52938e-05
2	0	0	0	0	153.028	0.650833	0.651978	0.0186819	1	0.210822	12	1.21802e-05
2	0	0	0	0	154.028	0.640832	0.641275	0.0151626	1	0.210839	12	9.72339e-06
2	1	0	1	0	155.029	0.63083	0.630531	0.012572	1	0.210853	12	7.92702e-06
2	1	0	0	0	156.029	0.620829	0.62073	0.0107325	1	0.210864	12	6.66197e-06
2	1	0	1	0	157.029	0.610827	0.611853	0.00894143	1	0.210873	12	5.47084e-06
2	1	0	1	0	158.029	0.600826	0.600992	0.00791713	1	0.210882	12	4.75813e-06
2	0	0	0	0	159.029	0.590824	0.591391	0.00705258	1	0.210889	12	4.17083e-06
2	0	0	1	0	160.029	0.580823	0.579853	0.006147	1	0.210895	12	3.56435e-06
2	0	0	1	0	161.029	0.570822	0.57309	0.00528609	1	0.2109	12	3.02941e-06
2	0	0	0	0	162.03	0.56082	0.560695	0.00437768	1	0.210904	12	2.45454e-06
2	1	0	1	0	163.03	0.550818	0.549055	0.00383099	1	0.210909	12	2.10342e-06
2	1	0	0	0	164.03	0.540817	0.542023	0.0035942	1	0.210912	12	1.94814e-06
2	1	0	1	0	165.03	0.530815	0.532676	0.00329489	1	0.210915	12	1.75511e-06
2	1	0	1	0	166.03	0.520814	0.520817	0.00306099	1	0.210918	12	1.59422e-06
2	1	0	0	0	167.03	0.510812	0.510255	0.00255933	1	0.21092	12	1.30591e-06
2	1	0	1	0	168.031	0.500811	0.50031	0.00224219	1	0.210922	12	1.12179e-06
2	0	0	1	0	169.031	0.490809	0.490282	0.00183228	1	0.210924	12	8.98335e-07
2	0	0	0	0	170.031	0.480808	0.479095	0.00148235	1	0.210925	12	7.10185e-07
2	0	0	1	0	171.031	0.470806	0.469442	0.00106242	1	0.210926	12	4.98744e-07
2	0	0	0	0	172.031	0.460805	0.463406	0.000895185	1	0.210927	12	4.14834e-07
2	1	0	0	0	173.031	0.450803	0.450863	0.000787153	1	0.210927	12	3.54898e-07
2	1	0	1	0	174.031	0.440802	0.43974	0.000516779	1	0.210928	12	2.27248e-07
2	1	0	0	0	175.032	0.4308	0.431503	0.000288442	1	0.210928	12	1.24464e-07
2	1	0	1	0	176.032	0.420799	0.419358	8.63615e-05	1	0.210928	12	3.62164e-08
2	1	0	1	0	177.032	0.410797	0.410196	0.000116375	1	0.210927	12	4.77367e-08
2	1	0	0	0	178.032	0.400796	0.400449	-0.000127345	1	0.210927	12	-5.09951e-08
2	1	0	1	0	179.032	0.390794	0.38939	-0.000215058	1	0.210927	12	-8.37414e-08
2	1	0	0	0	180.032	0.380793	0.381141	-0.00025073	1	0.210926	12	-9.55633e-08
2	1	0	0	0	181.032	0.370791	0.370304	-0.000270871	1	0.210926	12	-1.00305e-07
2	1	0	1	0	182.033	0.36079	0.360671	-0.000229984	1	0.210925	12	-8.29485e-08
2	1	0	0	0	183.033	0.350788	0.351609	-0.000367926	1	0.210925	12	-1.29366e-07
2	0	0	1	0	184.033	0.340787	0.338581	-0.000310698	1	0.210924	12	-1.05196e-07
2	1	0	1	0	185.033	0.330785	0.331095	-0.000385873	1	0.210924	12	-1.2776e-07
2	0	0	0	0	186.033	0.320784	0.320919	-0.000280979	1	0.210923	12	-9.01714e-08
2	0	0	1	0	187.033	0.310783	0.310582	-8.65013e-05	1	0.210922	12	-2.68657e-08
2	1	0	0	0	188.034	0.300781	0.298807	-0.000221423	1	0.210922	12	-6.61628e-08
2	1	0	0	0	189.034	0.29078	0.291088	-0.000144923	1	0.210921	12	-4.21852e-08
2	1	0	1	0	190.034	0.280778	0.280397	5.36955e-05	1	0.210921	12	1.50561e-08
2	1	0	0	0	191.034	0.270777	0.270557	-0.000160011	1	0.21092	12	-4.32921e-08
2	1	0	1	0	192.034	0.260775	0.261104	-0.000391015	1	0.210919	12	-1.02095e-07
2	1	0	1	0	193.034	0.250774	0.253442	-0.000249625	1	0.210919	12	-6.32655e-08
2	1	0	0	0	194.034	0.240772	0.242158	-0.000291971	1	0.210918	12	-7.07031e-08
2	1	0	1	0	195.035	0.230771	0.230675	-0.000371654	1	0.210917	12	-8.57314e-08
2	1	0	0	0	196.035	0.220769	0.219815	-0.000576225	1	0.210917	12	-1.26663e-07
2	1	0	0	0	197.035	0.210768	0.208984	-0.000368192	1	0.210916	12	-7.69462e-08
2	1	0	1	0	198.035	0.200766	0.199277	-0.00037522	1	0.210915	12	-7.47726e-08
2	1	0	0	0	199.035	0.190765	0.191447	-0.000365245	1	0.210915	12	-6.99249e-08
2	1	0	1	0	200.035	0.180763	0.181588	-0.000236187	1	0.210914	12	-4.28886e-08
2	1	0	1	0	201.035	0.170762	0.171684	-0.000271033	1	0.210913	12	-4.65321e-08
2	1	0	0	0	202.036	0.16076	0.159029	-0.000321204	1	0.210912	12	-5.10808e-08
2	0	0	1	0	203.036	0.150759	0.149305	-0.000300134	1	0.210911	12	-4.48115e-08
2	0	0	0	0	204.036	0.140757	0.140519	-0.000541113	1	0.210911	12	-7.60366e-08
2	0	0	0	0	205.036	0.130756	0.13222	-0.000661536	1	0.21091	12	-8.74682e-08
2	0	0	1	0	206.036	0.120754	0.121892	-0.000675873	1	0.210909	12	-8.23832e-08
2	1	0	0	0	207.036	0.110753	0.111808	-0.000580129	1	0.210908	12	-6.48628e-08
2	1	0	1	0	208.037	0.100751	0.101879	-0.000630697	1	0.210907	12	-6.42551e-08
2	0	0	1	0	209.037	0.0907498	0.0911638	-0.000841633	1	0.210906	12	-7.67265e-08
2	0	0	0	0	210.037	0.0807483	0.0792788	-0.000691918	1	0.210905	12	-5.48544e-08
2	0	0	1	0	211.037	0.0707468	0.0708502	-0.000745654	1	0.210904	12	-5.28298e-08
2	1	0	1	0	212.037	0.060746	0.0607825	-0.00100258	1	0.210903	12	-6.09391e-08
2	1	0	0	0	213.037	0.0507439	0.0503626	-0.000857708	1	0.210902	12	-4.31964e-08
2	1	0	1	0	214.037	0.0407424	0.0402817	-0.000929361	1	0.210901	12	-3.74362e-08
2	1	0	0	0	215.038	0.0307409	0.030794	-0.000948663	1	0.2109	12	-2.92131e-08
2	1	0	1	0	216.038	0.0207396	0.0205378	-0.000952129	1	0.210898	12	-1.95546e-08
2	1	0	1	0	217.038	0.0107379	0.010007	-0.00110822	1	0.210897	12	-1.109e-08
2	1	0	0	0	218.038	0.000736448	0.000625487	-0.00108559	1	0.210896	12	-6.79021e-10
2	1	0	1	1	218.869	0.00753701	0.00761373	-0.000576147	2	0.210895	12	-4.38663e-09
2	1	0	0	1	219.869	0.0175389	0.0182647	-0.000292427	2	0.210895	12	-5.3411e-09
2	0	0	1	1	220.869	0.0275404	0.0278065	-7.60543e-05	2	0.210895	12	-2.11481e-09
2	1	0	0	1	221.869	0.0375419	0.0360483	-7.46988e-05	2	0.210895	12	-2.69276e-09
2	1	0	1	1	222.869	0.0475434	0.0466259	0.000191113	2	0.210896	12	8.91079e-09
2	1	0	1	1	223.869	0.0575449	0.0572969	0.000253802	2	0.210896	12	1.45421e-08
2	1	0	0	1	224.87	0.0675464	0.067398	0.000385556	2	0.210897	12	2.59857e-08
2	0	0	1	1	225.87	0.0775479	0.0781963	0.000628613	2	0.210897	12	4.91552e-08
2	0	0	1	1	226.87	0.08755	0.0876422	0.000414359	2	0.210898	12	3.63153e-08
2	1	0	0	1	227.87	0.0975508	0.0984494	0.000364279	2	0.210898	12	3.58631e-08
2	1	0	1	1	228.87	0.107552	0.10834	0.000504093	2	0.210899	12	5.46136e-08
2	0	0	0	1	229.87	0.117554	0.117086	0.000390507	2	0.2109	12	4.57229e-08
2	0	0	0	1	230.87	0.127555	0.128156	0.000281385	2	0.2109	12	3.60612e-08
2	1	0	1	1	231.871	0.137557	0.137426	0.000593074	2	0.210901	12	8.1504e-08
2	1	0	0	1	232.871	0.147558	0.14747	0.000559789	2	0.210902	12	8.25521e-08
2	0	0	1	1	233.871	0.15756	0.157954	0.000367064	2	0.210903	12	5.79794e-08
2	0	0	1	1	234.871	0.167561	0.167903	0.00042581	2	0.210904	12	7.14946e-08
2	1	0	0	1	235.871	0.177563	0.177148	0.000783235	2	0.210904	12	1.38749e-07
2	1	0	1	1	236.871	0.187564	0.18721	0.000572416	2	0.210905	12	1.07162e-07
2	1	0	0	1	237.872	0.197566	0.197669	0.000375832	2	0.210906	12	7.42903e-08
2	1	0	0	1	238.872	0.207567	0.206258	0.000546278	2	0.210907	12	1.12674e-07
2	0	0	1	1	239.872	0.217569	0.21888	0.000723472	2	0.210908	12	1.58354e-07
2	0	0	0	1	240.872	0.22757	0.227541	0.000770254	2	0.210909	12	1.75264e-07
2	0	0	1	1	241.872	0.237572	0.236619	0.000917095	2	0.210911	12	2.17002e-07
2	1	0	1	1	242.872	0.247573	0.247604	0.000630042	2	0.210912	12	1.56001e-07
2	1	0	0	1	243.872	0.257575	0.257633	0.000718462	2	0.210913	12	1.851e-07
2	1	0	1	1	244.873	0.267576	0.26721	0.00086305	2	0.210914	12	2.30616e-07
2	1	0	0	1	245.873	0.277578	0.276559	0.00108921	2	0.210916	12	3.0123e-07
2	1	0	0	1	246.873	0.287579	0.285883	0.00120605	2	0.210917	12	3.44789e-07
2	0	0	1	1	247.873	0.297581	0.29791	0.00108707	2	0.210918	12	3.23849e-07
2	0	0	0	1	248.873	0.307582	0.309039	0.00131799	2	0.21092	12	4.07309e-07
2	0	0	1	1	249.873	0.317584	0.317927	0.00147358	2	0.210922	12	4.68491e-07
2	1	0	1	1	250.873	0.327585	0.328871	0.00157385	2	0.210923	12	5.17592e-07
2	1	0	0	1	251.874	0.337587	0.335447	0.0016118	2	0.210925	12	5.40674e-07
2	1	0	1	1	252.874	0.347588	0.348427	0.00193249	2	0.210927	12	6.73334e-07
2	1	0	0	1	253.874	0.35759	0.355989	0.00170005	2	0.210929	12	6.05197e-07
2	0	0	0	1	254.874	0.367591	0.367088	0.00175213	2	0.210931	12	6.43186e-07
2	0	0	1	1	255.874	0.377592	0.377354	0.00213177	2	0.210934	12	8.04434e-07
2	0	0	0	1	256.874	0.387594	0.386883	0.00208222	2	0.210936	12	8.05578e-07
2	0	0	1	1	257.875	0.397595	0.397839	0.00230842	2	0.210938	12	9.18381e-07
2	0	0	1	1	258.875	0.407597	0.406546	0.00253698	2	0.210941	12	1.0314e-06
2	0	0	0	1	259.875	0.417598	0.4152	0.00266053	2	0.210944	12	1.10465e-06
2	0	0	1	1	260.875	0.4276	0.426031	0.00289025	2	0.210947	12	1.23134e-06
2	0	0	0	1	261.875	0.437601	0.438116	0.00308944	2	0.210951	12	1.35353e-06
2	0	0	0	1	262.875	0.447603	0.44604	0.00330596	2	0.210954	12	1.47459e-06
2	1	0	1	1	263.875	0.457604	0.457169	0.00380758	2	0.210958	12	1.74071e-06
2	1	0	0	1	264.876	0.467606	0.46786	0.00412889	2	0.210962	12	1.93174e-06
2	1	0	1	1	265.876	0.477607	0.478134	0.00466155	2	0.210967	12	2.22884e-06
2	1	0	1	1	266.876	0.487609	0.487678	0.00475004	2	0.210972	12	2.31649e-06
2	1	0	0	1	267.876	0.49761	0.497962	0.00515348	2	0.210977	12	2.56624e-06
2	1	0	1	1	268.876	0.507612	0.507035	0.00570005	2	0.210983	12	2.89013e-06
2	1	0	1	1	269.876	0.517613	0.516517	0.00628553	2	0.210989	12	3.24658e-06
2	1	0	0	1	270.876	0.527615	0.525953	0.00681738	2	0.210996	12	3.58562e-06
2	1	0	1	1	271.877	0.537616	0.538229	0.00740081	2	0.211003	12	3.98333e-06
2	1	0	0	1	272.877	0.547618	0.548046	0.00793443	2	0.211011	12	4.34843e-06
2	1	0	1	1	273.877	0.557619	0.556882	0.00847419	2	0.211019	12	4.71913e-06
2	1	0	1	1	274.877	0.567621	0.568364	0.00909957	2	0.211028	12	5.17187e-06
2	1	0	0	1	275.877	0.577622	0.578305	0.00976237	2	0.211038	12	5.64563e-06
2	0	0	1	1	276.877	0.587624	0.585742	0.0105065	2	0.211048	12	6.15408e-06
2	0	0	1	1	277.877	0.597626	0.598507	0.0111534	2	0.21106	12	6.67537e-06
2	0	0	0	1	278.878	0.607627	0.607758	0.0125493	2	0.211072	12	7.62691e-06
2	0	0	1	1	279.878	0.617628	0.618193	0.0139183	2	0.211085	12	8.60422e-06
2	1	0	0	1	280.878	0.62763	0.62864	0.0155124	2	0.2111	12	9.75172e-06
2	1	0	1	1	281.878	0.637632	0.64049	0.0174431	2	0.211117	12	1.11722e-05
2	1	0	1	1	282.878	0.647633	0.649364	0.0200404	2	0.211136	12	1.30135e-05
2	1	0	0	1	283.878	0.657634	0.655788	0.0237524	2	0.211158	12	1.55765e-05
2	1	0	1	1	284.879	0.667636	0.666733	0.0283513	2	0.211185	12	1.89028e-05
2	0	0	1	1	285.879	0.677637	0.675808	0.0347139	2	0.211216	12	2.34599e-05
2	1	0	0	1	286.879	0.687639	0.687421	0.0425309	2	0.211255	12	2.92367e-05
2	1	0	1	1	287.879	0.69764	0.696917	0.0523082	2	0.211302	12	3.64545e-05
2	1	0	0	1	288.879	0.707641	0.707394	0.0644602	2	0.211361	12	4.55987e-05
2	1	0	0	1	289.879	0.717643	0.718137	0.0799304	2	0.211433	12	5.7401e-05
2	1	0	1	1	290.879	0.727645	0.727352	0.0989943	2	0.211522	12	7.20037e-05
2	1	0	0	1	291.88	0.737646	0.737502	0.122568	2	0.211633	12	9.03942e-05
2	1	0	1	1	292.88	0.747647	0.7487	0.151677	2	0.21177	12	0.000113561
2	1	0	1	1	293.88	0.757649	0.757763	0.187721	2	0.21194	12	0.000142248
2	1	0	0	1	294.88	0.76765	0.766835	0.230689	2	0.212149	12	0.000176901
2	1	0	1	1	295.88	0.777652	0.778655	0.28481	2	0.212407	12	0.000221769
2	1	0	0	1	296.88	0.787653	0.789052	0.351378	2	0.212725	12	0.000277256
2	1	0	0	1	297.88	0.797655	0.797909	0.433963	2	0.213116	12	0.000346263
2	1	0	1	1	298.881	0.807656	0.809106	0.534766	2	0.2136	12	0.000432683
2	1	0	0	1	299.881	0.817658	0.818752	0.656909	2	0.214195	12	0.000537846
2	1	0	1	1	300.881	0.827659	0.829421	0.804967	2	0.214925	12	0.000667657
2	1	0	1	1	301.881	0.837661	0.838974	0.989029	2	0.21582	12	0.00082977
2	1	0	0	1	302.911	0.847962	0.847571	1.21546	2	0.216955	11	0.00103018
2	1	0	1	1	303.911	0.857964	0.856631	1.48307	2	0.218302	11	0.00127045
2	1	0	0	1	304.912	0.867965	0.867688	1.80411	2	0.219942	11	0.00156541
2	1	0	0	1	305.912	0.877967	0.879604	2.18599	2	0.221933	11	0.00192281
2	1	0	1	1	306.912	0.887968	0.887546	2.64294	2	0.224344	11	0.00234574
2	1	0	0	1	307.912	0.89797	0.899255	3.17109	2	0.227246	11	0.00285162
2	1	0	1	1	308.912	0.907971	0.907606	3.77734	2	0.230718	11	0.00342834
2	1	0	1	1	309.912	0.917973	0.917894	4.46628	2	0.234838	11	0.00409957
2	1	0	0	1	310.912	0.927974	0.929195	5.22919	2	0.239682	11	0.00485893
2	1	0	1	1	311.913	0.937976	0.937777	6.08477	2	0.245339	11	0.00570615
2	1	0	0	1	312.913	0.947977	0.948033	7.02874	2	0.251896	11	0.00666348
2	1	0	0	1	313.913	0.957979	0.96058	8.05979	2	0.259438	11	0.00774208
2	1	0	1	1	314.913	0.96798	0.966729	9.18916	2	0.268058	11	0.00888343
2	1	0	0	1	315.913	0.977982	0.976431	10.3893	2	0.277853	11	0.0101444
2	1	0	1	1	316.943	0.988283	0.988135	11.7	2	0.289232	10	0.0115612
2	1	0	1	1	317.943	0.998285	0.997408	13.0341	2	0.301595	10	0.0130003
2	1	0	0	1	318.774	0.993484	0.993471	12.3339	2	0.31229	10	0.0122533
2	1	0	1	1	319.774	0.983483	0.98339	10.9019	2	0.323902	10	0.0107208
2	1	0	1	1	320.774	0.973481	0.975548	9.53927	2	0.334109	10	0.00930602
2	1	0	0	1	321.774	0.96348	0.964965	8.31134	2	0.343017	10	0.00802015
2	1	0	1	1	322.775	0.953478	0.95482	7.18296	2	0.350746	10	0.00685843
2	1	0	0	1	323.775	0.943477	0.943157	6.18296	2	0.357412	10	0.00583151
2	1	0	1	1	324.775	0.933475	0.931035	5.30451	2	0.363144	10	0.00493868
2	1	0	1	1	325.775	0.923473	0.923744	4.52307	2	0.368042	10	0.00417816
2	1	0	0	1	326.805	0.913172	0.913195	3.83155	2	0.372338	11	0.00349895
2	1	0	1	1	327.805	0.90317	0.902977	3.24126	2	0.375866	11	0.00292679
2	1	0	1	1	328.805	0.893169	0.894569	2.72542	2	0.378839	11	0.00243807
2	1	0	0	1	329.806	0.883168	0.883038	2.28688	2	0.381339	11	0.0020194
2	1	0	1	1	330.806	0.873166	0.873162	1.91024	2	0.383432	11	0.00166795
2	1	0	0	1	331.806	0.863165	0.864027	1.59023	2	0.385176	11	0.001374
2	1	0	1	1	332.806	0.853162	0.852153	1.31743	2	0.386624	11	0.00112265
2	1	0	1	1	333.806	0.843162	0.841975	1.08917	2	0.387824	11	0.000917051
2	1	0	0	1	334.806	0.83316	0.833803	0.896614	2	0.388812	11	0.000747599
2	1	0	1	1	335.807	0.823159	0.821115	0.736025	2	0.389625	11	0.000604361
2	1	0	1	1	336.807	0.813156	0.814546	0.604236	2	0.390293	11	0.000492178
2	1	0	0	1	337.807	0.803156	0.803197	0.494093	2	0.39084	11	0.000396854
2	1	0	1	1	338.837	0.792854	0.794059	0.401801	2	0.391299	12	0.000319054
2	1	0	0	1	339.837	0.782853	0.78375	0.328001	2	0.391662	12	0.00025707
2	1	0	1	1	340.837	0.772851	0.772726	0.266912	2	0.391958	12	0.00020625
2	1	0	1	1	341.837	0.76285	0.763642	0.217682	2	0.392199	12	0.000166231
2	1	0	0	1	342.838	0.752848	0.753012	0.176788	2	0.392395	12	0.000133124
2	1	0	1	1	343.838	0.742847	0.742425	0.143349	2	0.392555	12	0.000106426
2	1	0	1	1	344.838	0.732845	0.731057	0.116325	2	0.392684	12	8.50403e-05
2	1	0	0	1	345.838	0.722844	0.724161	0.0939857	2	0.392788	12	6.80608e-05
2	1	0	1	1	346.838	0.712842	0.71504	0.0757841	2	0.392873	12	5.41887e-05
2	1	0	0	1	347.838	0.702841	0.701388	0.0607879	2	0.39294	12	4.26359e-05
2	1	0	0	1	348.838	0.692839	0.69221	0.0486087	2	0.392995	12	3.36475e-05
2	1	0	1	1	349.839	0.682838	0.682791	0.0389984	2	0.393038	12	2.66277e-05
2	1	0	0	1	350.839	0.672836	0.671102	0.0312188	2	0.393073	12	2.0951e-05
2	1	0	1	1	351.839	0.662835	0.662677	0.0247981	2	0.3931	12	1.64331e-05
2	1	0	1	1	352.839	0.652833	0.653225	0.019752	2	0.393122	12	1.29025e-05
2	0	0	0	1	353.839	0.642832	0.642693	0.0158647	2	0.39314	12	1.01962e-05
2	0	0	1	1	354.839	0.63283	0.633454	0.0128746	2	0.393153	12	8.15549e-06
2	1	0	0	1	355.84	0.622829	0.622371	0.0103193	2	0.393165	12	6.42242e-06
2	1	0	0	1	356.84	0.612827	0.612822	0.00845878	2	0.393174	12	5.18372e-06
2	1	0	1	1	357.84	0.602826	0.60235	0.00698246	2	0.393181	12	4.20589e-06
2	1	0	0	1	358.84	0.592824	0.593864	0.00581106	2	0.393187	12	3.45098e-06
2	1	0	1	1	359.84	0.582823	0.583134	0.00510461	2	0.393192	12	2.97667e-06
2	0	0	1	1	360.84	0.572821	0.572973	0.00417517	2	0.393197	12	2.39226e-06
2	1	0	0	1	361.84	0.56282	0.562847	0.003591	2	0.3932	12	2.02118e-06
2	1	0	1	1	362.841	0.552818	0.553238	0.0029942	2	0.393203	12	1.65651e-06
2	0	0	0	1	363.841	0.542817	0.541583	0.00255357	2	0.393206	12	1.38297e-06
2	0	0	0	1	364.841	0.532816	0.532733	0.00213443	2	0.393208	12	1.13708e-06
2	0	0	1	1	365.841	0.522814	0.522167	0.00188042	2	0.393209	12	9.81894e-07
2	1	0	0	1	366.841	0.512813	0.512883	0.00170203	2	0.393211	12	8.72944e-07
2	1	0	1	1	367.841	0.502811	0.502607	0.00111113	2	0.393211	12	5.58462e-07
2	1	0	1	1	368.841	0.49281	0.492352	0.000857053	2	0.393212	12	4.21971e-07
2	0	0	0	1	369.842	0.482808	0.481252	0.0003889	2	0.393213	12	1.87159e-07
2	0	0	1	1	370.842	0.472807	0.472606	0.000378203	2	0.393213	12	1.78741e-07
2	0	0	0	1	371.842	0.462805	0.462455	0.000161314	2	0.393213	12	7.46006e-08
2	0	0	0	1	372.842	0.452804	0.452074	0.000165396	2	0.393212	12	7.47711e-08
2	0	0	1	1	373.842	0.442802	0.442364	-0.000113495	2	0.393212	12	-5.02059e-08
2	0	0	0	1	374.842	0.432801	0.430285	-0.000131205	2	0.393212	12	-5.64556e-08
2	1	0	1	1	375.843	0.422799	0.42301	-0.000376045	2	0.393211	12	-1.59071e-07
2	1	0	1	1	376.843	0.412798	0.412515	-0.000477019	2	0.39321	12	-1.96777e-07
2	1	0	0	1	377.843	0.402796	0.403974	-0.00062532	2	0.393209	12	-2.52613e-07
2	1	0	1	1	378.843	0.392795	0.392911	-0.000793467	2	0.393208	12	-3.11762e-07
2	1	0	0	1	379.843	0.382793	0.382447	-0.000703986	2	0.393207	12	-2.69237e-07
2	0	0	0	1	380.843	0.372792	0.372912	-0.000438798	2	0.393206	12	-1.63633e-07
2	1	0	1	1	381.843	0.36279	0.361536	-0.000595718	2	0.393205	12	-2.15374e-07
2	1	0	0	1	382.844	0.352789	0.351814	-0.000556982	2	0.393204	12	-1.95954e-07
2	0	0	1	1	383.844	0.342788	0.341821	-0.000666842	2	0.393203	12	-2.27941e-07
2	0	0	1	1	384.844	0.332786	0.331317	-0.000397262	2	0.393202	12	-1.3162e-07
2	0	0	0	1	385.844	0.322784	0.322916	-0.000467383	2	0.393201	12	-1.50925e-07
2	0	0	1	1	386.844	0.312783	0.313945	-0.000568062	2	0.393201	12	-1.7834e-07
2	0	0	1	1	387.844	0.302781	0.302243	-0.000610344	2	0.3932	12	-1.84473e-07
2	0	0	0	1	388.844	0.29278	0.29257	-0.000814758	2	0.393199	12	-2.38374e-07
2	0	0	1	1	389.845	0.282778	0.282855	-0.000568666	2	0.393198	12	-1.6085e-07
2	0	0	0	1	390.845	0.272777	0.273316	-0.000651635	2	0.393197	12	-1.78102e-07
2	1	0	1	1	391.845	0.262775	0.264241	-0.00061292	2	0.393197	12	-1.61958e-07
2	1	0	1	1	392.845	0.252774	0.253697	-0.00056569	2	0.393196	12	-1.43514e-07
2	1	0	0	1	393.845	0.242772	0.242871	-0.00044341	2	0.393195	12	-1.07692e-07
2	1	0	1	1	394.845	0.232771	0.231677	-0.000593155	2	0.393194	12	-1.3742e-07
2	1	0	1	1	395.845	0.222769	0.222311	-0.000578524	2	0.393194	12	-1.28612e-07
2	0	0	0	1	396.846	0.212768	0.213805	-0.000754407	2	0.393193	12	-1.61296e-07
2	0	0	1	1	397.846	0.202766	0.203863	-0.000526113	2	0.393192	12	-1.07255e-07
2	0	0	0	1	398.846	0.192765	0.193474	-0.000627412	2	0.393191	12	-1.21388e-07
2	0	0	0	1	399.846	0.182763	0.183893	-0.00065249	2	0.393191	12	-1.19988e-07
2	0	0	1	1	400.846	0.172762	0.171896	-0.000595423	2	0.39319	12	-1.02351e-07
2	0	0	0	1	401.846	0.162761	0.160997	-0.000373879	2	0.393189	12	-6.01934e-08
2	0	0	1	1	402.847	0.152759	0.152433	-0.000232002	2	0.393188	12	-3.53647e-08
2	0	0	1	1	403.847	0.142758	0.143876	-0.00044201	2	0.393187	12	-6.35945e-08
2	0	0	0	1	404.847	0.132756	0.131507	-0.000404939	2	0.393187	12	-5.32521e-08
2	1	0	1	1	405.847	0.122755	0.122037	-0.000499592	2	0.393186	12	-6.09687e-08
2	1	0	0	1	406.847	0.112753	0.111678	-0.000541069	2	0.393185	12	-6.04255e-08
2	1	0	0	1	407.847	0.102752	0.102038	-0.000747246	2	0.393184	12	-7.62471e-08
2	1	0	1	1	408.847	0.0927501	0.091478	-0.000804621	2	0.393183	12	-7.36051e-08
2	0	0	0	1	409.848	0.0827486	0.0823246	-0.000612029	2	0.393182	12	-5.0385e-08
2	0	0	1	1	410.848	0.0727471	0.0734832	-0.000466233	2	0.393181	12	-3.42603e-08
2	0	0	1	1	411.848	0.0627457	0.0629311	-0.000500387	2	0.39318	12	-3.14899e-08
2	0	0	0	1	412.848	0.0527442	0.0516372	-0.000616508	2	0.393179	12	-3.18347e-08
2	1	0	1	1	413.848	0.0427427	0.0423872	-0.000856854	2	0.393178	12	-3.63196e-08
2	1	0	0	1	414.848	0.0327412	0.0328136	-0.000832218	2	0.393177	12	-2.7308e-08
2	0	0	0	1	415.848	0.0227397	0.0237016	-0.000599445	2	0.393176	12	-1.42078e-08
2	0	0	1	1	416.849	0.0127382	0.012068	-0.00119517	2	0.393175	12	-1.44233e-08
2	1	0	0	1	417.849	0.00273674	0.00279258	-0.000963618	2	0.393174	12	-2.69098e-09
2	1	0	1	0	418.679	0.00553716	0.00551366	-0.000388613	3	0.393173	12	-2.14268e-09
2	1	0	0	0	419.68	0.0155386	0.0166994	-0.000179371	3	0.393173	12	-2.99539e-09
2	0	0	1	0	420.68	0.0255401	0.0244551	-4.96504e-05	3	0.393173	12	-1.2142e-09
2	1	0	0	0	421.68	0.0355416	0.0350762	0.00011032	3	0.393174	12	3.86959e-09
2	1	0	0	0	422.68	0.0455431	0.0455391	0.000229859	3	0.393174	12	1.04676e-08
2	0	0	1	0	423.68	0.0555446	0.0555086	0.000250929	3	0.393175	12	1.39287e-08
2	1	0	0	0	424.68	0.0655461	0.0656203	0.000269951	3	0.393175	12	1.77143e-08
2	0	0	1	0	425.681	0.0755476	0.0763157	0.000433118	3	0.393176	12	3.30537e-08
2	1	0	1	0	426.681	0.085549	0.086195	0.000753191	3	0.393177	12	6.49213e-08
2	1	0	0	0	427.681	0.0955505	0.0951011	0.000554381	3	0.393177	12	5.27223e-08
2	0	0	1	0	428.681	0.105552	0.104287	0.00044134	3	0.393178	12	4.60262e-08
2	0	0	0	0	429.681	0.115554	0.114569	0.000720716	3	0.393179	12	8.25717e-08
2	0	0	0	0	430.681	0.125555	0.12545	0.000756786	3	0.39318	12	9.49388e-08
2	1	0	1	0	431.681	0.135556	0.135349	0.000497846	3	0.393181	12	6.73832e-08
2	1	0	0	0	432.682	0.145558	0.145912	0.000470912	3	0.393181	12	6.87118e-08
2	0	0	1	0	433.682	0.155559	0.155109	0.000628009	3	0.393182	12	9.74098e-08
2	0	0	1	0	434.682	0.165561	0.164867	0.000691617	3	0.393183	12	1.14025e-07
2	0	0	0	0	435.682	0.175562	0.176151	0.000945282	3	0.393184	12	1.66512e-07
2	1	0	1	0	436.682	0.185564	0.185887	0.00080317	3	0.393185	12	1.49299e-07
2	1	0	1	0	437.682	0.195565	0.195861	0.000837889	3	0.393186	12	1.6411e-07
2	1	0	0	0	438.682	0.205567	0.20615	0.000841877	3	0.393187	12	1.73553e-07
2	0	0	1	0	439.683	0.215568	0.215443	0.000803081	3	0.393189	12	1.73018e-07
2	0	0	0	0	440.683	0.22557	0.225953	0.000738486	3	0.39319	12	1.66863e-07
2	0	0	1	0	441.683	0.235571	0.234769	0.0010229	3	0.393191	12	2.40145e-07
2	1	0	1	0	442.683	0.245573	0.245271	0.000820497	3	0.393192	12	2.01244e-07
2	1	0	0	0	443.683	0.255574	0.25498	0.00111974	3	0.393193	12	2.85511e-07
2	1	0	1	0	444.683	0.265576	0.265352	0.0012782	3	0.393195	12	3.39174e-07
2	1	0	1	0	445.683	0.275578	0.276694	0.00126089	3	0.393196	12	3.48882e-07
2	1	0	0	0	446.684	0.285579	0.283902	0.00143714	3	0.393198	12	4.08007e-07
2	1	0	1	0	447.684	0.29558	0.296504	0.00128038	3	0.393199	12	3.79639e-07
2	0	0	0	0	448.684	0.305582	0.304736	0.00143994	3	0.393201	12	4.38803e-07
2	0	0	0	0	449.684	0.315583	0.315337	0.00155443	3	0.393202	12	4.90169e-07
2	0	0	1	0	450.684	0.325585	0.325917	0.00133153	3	0.393204	12	4.33967e-07
2	0	0	0	0	451.684	0.335586	0.334069	0.00155957	3	0.393206	12	5.21003e-07
2	0	0	1	0	452.685	0.345588	0.346557	0.00176995	3	0.393208	12	6.13386e-07
2	0	0	1	0	453.685	0.355589	0.355818	0.00178125	3	0.39321	12	6.338e-07
2	0	0	0	0	454.685	0.365591	0.365001	0.00179007	3	0.393212	12	6.53379e-07
2	0	0	1	0	455.685	0.375592	0.374329	0.00198912	3	0.393215	12	7.44584e-07
2	0	0	0	0	456.685	0.385594	0.38559	0.00212143	3	0.393217	12	8.18002e-07
2	0	0	0	0	457.685	0.395595	0.395005	0.00229326	3	0.39322	12	9.05851e-07
2	0	0	1	0	458.685	0.405597	0.404837	0.00254862	3	0.393222	12	1.03178e-06
2	0	0	0	0	459.686	0.415598	0.413771	0.00268167	3	0.393225	12	1.1096e-06
2	0	0	1	0	460.686	0.4256	0.425021	0.00295222	3	0.393229	12	1.25476e-06
2	0	0	1	0	461.686	0.435601	0.436428	0.00334645	3	0.393232	12	1.46049e-06
2	0	0	0	0	462.686	0.445603	0.446673	0.00354877	3	0.393236	12	1.58514e-06
2	0	0	1	0	463.686	0.455604	0.455479	0.00373852	3	0.39324	12	1.70282e-06
2	0	0	0	0	464.686	0.465606	0.465512	0.00404375	3	0.393244	12	1.88242e-06
2	0	0	0	0	465.686	0.475607	0.475978	0.00457593	3	0.393249	12	2.17804e-06
2	0	0	1	0	466.687	0.485609	0.485659	0.00499005	3	0.393254	12	2.42346e-06
2	0	0	0	0	467.687	0.49561	0.493609	0.00512949	3	0.393259	12	2.53197e-06
2	0	0	1	0	468.687	0.505611	0.507068	0.00565716	3	0.393265	12	2.86856e-06
2	0	0	1	0	469.687	0.515613	0.515831	0.00629157	3	0.393272	12	3.24539e-06
2	0	0	0	0	470.687	0.525614	0.524002	0.00655851	3	0.393278	12	3.43667e-06
2	0	0	1	0	471.687	0.535616	0.536032	0.00701619	3	0.393286	12	3.7609e-06
2	0	0	0	0	472.688	0.545617	0.547884	0.00780331	3	0.393294	12	4.27531e-06
2	0	0	0	0	473.688	0.555619	0.556297	0.00849796	3	0.393302	12	4.72739e-06
2	0	0	1	0	474.688	0.56562	0.565146	0.00904305	3	0.393311	12	5.11064e-06
2	0	0	0	0	475.688	0.575622	0.575911	0.00984756	3	0.393321	12	5.67132e-06
2	0	0	1	0	476.688	0.585623	0.584954	0.0109041	3	0.393332	12	6.37837e-06
2	0	0	1	0	477.688	0.595625	0.593532	0.0116935	3	0.393344	12	6.94046e-06
2	0	0	0	0	478.688	0.605626	0.607771	0.0126574	3	0.393356	12	7.69279e-06
2	0	0	1	0	479.689	0.615628	0.615614	0.0142478	3	0.39337	12	8.77117e-06
2	0	0	0	0	480.689	0.625629	0.6255	0.0157957	3	0.393385	12	9.88019e-06
2	0	0	0	0	481.689	0.635631	0.634432	0.0177387	3	0.393403	12	1.1254e-05
2	0	0	1	0	482.689	0.645632	0.646134	0.0208607	3	0.393422	12	1.34788e-05
2	0	0	0	0	483.689	0.655634	0.655152	0.0247138	3	0.393445	12	1.61913e-05
2	1	0	1	0	484.689	0.665635	0.664217	0.0294901	3	0.393473	12	1.95878e-05
2	1	0	1	0	485.689	0.675637	0.675475	0.0359659	3	0.393506	12	2.42941e-05
2	1	0	0	0	486.69	0.685638	0.684988	0.0445935	3	0.393546	12	3.0546e-05
2	1	0	1	0	487.69	0.69564	0.69521	0.0548321	3	0.393596	12	3.81198e-05
2	1	0	0	0	488.69	0.705641	0.706082	0.0684614	3	0.393658	12	4.83394e-05
2	1	0	0	0	489.69	0.715643	0.715872	0.0854555	3	0.393735	12	6.11752e-05
2	1	0	1	0	490.69	0.725644	0.724885	0.10644	3	0.393831	12	7.71567e-05
2	1	0	0	0	491.69	0.735646	0.736351	0.132396	3	0.39395	12	9.749e-05
2	1	0	1	0	492.69	0.745647	0.748125	0.164331	3	0.394099	12	0.00012294
2	1	0	1	0	493.691	0.755649	0.753258	0.203494	3	0.394283	12	0.000153283
2	1	0	0	0	494.691	0.76565	0.765998	0.251017	3	0.39451	12	0.000192279
2	1	0	1	0	495.691	0.775652	0.776483	0.309605	3	0.39479	12	0.000240403
2	1	0	1	0	496.691	0.785653	0.785188	0.379933	3	0.395134	12	0.000298319
2	1	0	0	0	497.691	0.795654	0.794905	0.466463	3	0.395556	12	0.000370794
2	1	0	1	0	498.691	0.805656	0.806408	0.570526	3	0.396073	12	0.000460077
2	1	0	0	0	499.692	0.815658	0.815558	0.69703	3	0.396706	12	0.000568468
2	1	0	1	0	500.692	0.825659	0.823912	0.847347	3	0.397477	12	0.000698139
2	1	0	1	0	501.692	0.835661	0.836816	1.02845	3	0.398414	12	0.000860622
2	1	0	0	0	502.722	0.845962	0.847135	1.25294	3	0.399587	11	0.00106141
2	1	0	1	0	503.722	0.855964	0.855382	1.51029	3	0.400967	11	0.00129187
2	1	0	1	0	504.722	0.865965	0.867078	1.81233	3	0.402628	11	0.00157143
2	1	0	0	0	505.722	0.875966	0.876901	2.1691	3	0.404617	11	0.00190209
2	1	0	1	0	506.723	0.885968	0.884646	2.58484	3	0.40699	11	0.00228667
2	1	0	0	0	507.723	0.89597	0.896757	3.06192	3	0.409813	11	0.0027458
2	1	0	1	0	508.723	0.905972	0.90652	3.60312	3	0.413143	11	0.0032663
2	1	0	1	0	509.723	0.915972	0.914476	4.21688	3	0.417052	11	0.00385623
2	1	0	0	0	510.723	0.925974	0.925321	4.89743	3	0.421606	11	0.0045317
2	1	0	1	0	511.723	0.935975	0.937172	5.64828	3	0.426875	11	0.00529341
2	1	0	1	0	512.723	0.945977	0.945902	6.47516	3	0.432931	11	0.00612486
2	1	0	0	0	513.724	0.955978	0.955799	7.3571	3	0.439847	11	0.00703191
2	1	0	1	0	514.724	0.96598	0.966738	8.33655	3	0.447696	11	0.00805926
2	1	0	0	0	515.724	0.975981	0.975595	9.36507	3	0.45655	11	0.00913652
2	1	0	0	0	516.724	0.985983	0.986211	10.459	3	0.466463	11	0.0103148
2	1	0	1	0	517.754	0.996284	0.997052	11.6398	3	0.477864	10	0.0116055
2	1	0	0	0	518.585	0.995484	0.996073	11.5622	3	0.487721	10	0.0115168
2	1	0	1	0	519.585	0.985483	0.985789	10.2699	3	0.498625	10	0.010124
2	1	0	1	0	520.585	0.975481	0.973879	9.05568	3	0.508269	10	0.00881913
2	1	0	0	0	521.585	0.96548	0.965057	7.93033	3	0.51675	10	0.00765322
2	1	0	1	0	522.585	0.955478	0.955216	6.91476	3	0.524167	10	0.00660509
2	1	0	0	0	523.586	0.945477	0.94406	6.01795	3	0.530614	10	0.0056813
2	1	0	0	0	524.586	0.935475	0.934455	5.19138	3	0.536202	10	0.00485111
2	1	0	1	0	525.601	0.925324	0.925958	4.47571	3	0.541091	10	0.00414432
2	1	0	0	0	526.616	0.915172	0.915892	3.83195	3	0.545299	11	0.00350965
2	1	0	1	0	527.616	0.905171	0.904085	3.26852	3	0.54884	11	0.00295502
2	1	0	1	0	528.616	0.895169	0.897022	2.77722	3	0.551856	11	0.00249123
2	1	0	0	0	529.616	0.885168	0.883785	2.3526	3	0.554414	11	0.0020792
2	1	0	1	0	530.617	0.875166	0.874118	1.98013	3	0.556574	11	0.00173087
2	1	0	0	0	531.617	0.865165	0.866289	1.66152	3	0.55839	11	0.00143936
2	1	0	0	0	532.617	0.855163	0.854939	1.39078	3	0.559911	11	0.00118903
2	1	0	1	0	533.617	0.845162	0.844479	1.15849	3	0.561181	11	0.000978324
2	1	0	0	0	534.617	0.83516	0.834634	0.962331	3	0.562239	11	0.000803194
2	1	0	1	0	535.617	0.825159	0.825	0.797774	3	0.563116	11	0.000658163
2	1	0	1	0	536.617	0.815158	0.814643	0.660628	3	0.563842	11	0.000538176
2	1	0	0	0	537.618	0.805156	0.804999	0.542401	3	0.564441	11	0.000436632
2	1	0	1	0	538.648	0.794854	0.795469	0.445394	3	0.564947	12	0.000354297
2	1	0	0	0	539.648	0.784853	0.784879	0.365725	3	0.565351	12	0.00028705
2	1	0	0	0	540.648	0.774852	0.774888	0.299958	3	0.565682	12	0.000232434
2	1	0	1	0	541.648	0.76485	0.767323	0.245913	3	0.565954	12	0.000188695
2	1	0	0	0	542.648	0.754849	0.754041	0.201532	3	0.566176	12	0.000151963
2	1	0	1	0	543.649	0.744847	0.745668	0.164539	3	0.566359	12	0.000122692
2	1	0	1	0	544.649	0.734845	0.734086	0.134615	3	0.566507	12	9.88193e-05
2	1	0	0	0	545.649	0.724844	0.724799	0.10968	3	0.566629	12	7.94961e-05
2	1	0	1	0	546.649	0.714843	0.71423	0.0889955	3	0.566727	12	6.35632e-05
2	1	0	1	0	547.649	0.704842	0.70536	0.071801	3	0.566807	12	5.06456e-05
2	1	0	0	0	548.649	0.69484	0.695993	0.0579864	3	0.566872	12	4.03581e-05
2	1	0	1	0	549.649	0.684838	0.685322	0.0465413	3	0.566923	12	3.18958e-05
2	1	0	0	0	550.65	0.674837	0.674202	0.0371001	3	0.566965	12	2.5013e-05
2	1	0	1	0	551.65	0.664836	0.665677	0.0297698	3	0.566998	12	1.98171e-05
2	1	0	1	0	552.65	0.654834	0.652997	0.0238348	3	0.567024	12	1.55641e-05
2	1	0	0	0	553.65	0.644832	0.644907	0.0188505	3	0.567045	12	1.21568e-05
2	1	0	1	0	554.65	0.634831	0.635578	0.015144	3	0.567062	12	9.62521e-06
2	0	0	1	0	555.65	0.624829	0.624427	0.0119369	3	0.567075	12	7.45373e-06
2	0	0	0	0	556.65	0.614828	0.613695	0.00929052	3	0.567086	12	5.70155e-06
2	0	0	1	0	557.651	0.604826	0.603988	0.00765146	3	0.567094	12	4.62139e-06
2	0	0	0	0	558.651	0.594825	0.594331	0.00638369	3	0.567101	12	3.79403e-06
2	1	0	1	0	559.651	0.584823	0.584186	0.00515345	3	0.567106	12	3.01057e-06
2	1	0	1	0	560.651	0.574822	0.57672	0.00408844	3	0.56711	12	2.35789e-06
2	1	0	0	0	561.651	0.56482	0.566203	0.00354189	3	0.567114	12	2.00543e-06
2	1	0	1	0	562.651	0.554819	0.55256	0.00283218	3	0.567117	12	1.56495e-06
2	0	0	1	0	563.651	0.544816	0.545376	0.00240678	3	0.567119	12	1.3126e-06
2	0	0	0	0	564.652	0.534816	0.533767	0.00195016	3	0.567121	12	1.04093e-06
2	0	0	1	0	565.652	0.524814	0.52492	0.00137181	3	0.567122	12	7.2009e-07
2	1	0	0	0	566.652	0.514813	0.513672	0.00104213	3	0.567123	12	5.35314e-07
2	1	0	0	0	567.652	0.504811	0.505194	0.000801873	3	0.567124	12	4.05101e-07
2	1	0	1	0	568.652	0.49481	0.493907	0.000640311	3	0.567124	12	3.16255e-07
2	0	0	0	0	569.652	0.484808	0.484302	8.71126e-05	3	0.567124	12	4.21888e-08
2	0	0	1	0	570.653	0.474807	0.474684	0.000136134	3	0.567124	12	6.46204e-08
2	0	0	1	0	571.653	0.464805	0.464325	-0.000185295	3	0.567123	12	-8.6037e-08
2	1	0	0	0	572.653	0.454804	0.455477	-0.000588101	3	0.567123	12	-2.67867e-07
2	1	0	1	0	573.653	0.444802	0.445093	-0.000541084	3	0.567122	12	-2.40832e-07
2	1	0	0	0	574.653	0.434801	0.435471	-0.000333537	3	0.567121	12	-1.45246e-07
2	1	0	0	0	575.653	0.424799	0.423496	-0.000628826	3	0.56712	12	-2.66305e-07
2	0	0	1	0	576.653	0.414798	0.414643	-0.000866815	3	0.567119	12	-3.59418e-07
2	0	0	0	0	577.654	0.404797	0.405309	-0.000900865	3	0.567118	12	-3.65129e-07
2	0	0	1	0	578.654	0.394795	0.395799	-0.00105426	3	0.567117	12	-4.17277e-07
2	1	0	1	0	579.654	0.384794	0.384607	-0.00109434	3	0.567115	12	-4.20891e-07
2	1	0	0	0	580.654	0.374792	0.375005	-0.000836315	3	0.567114	12	-3.13622e-07
2	1	0	1	0	581.654	0.364791	0.364299	-0.000886396	3	0.567113	12	-3.22913e-07
2	1	0	0	0	582.654	0.354789	0.35452	-0.00107533	3	0.567112	12	-3.81228e-07
2	0	0	0	0	583.654	0.344788	0.345705	-0.000728518	3	0.56711	12	-2.51853e-07
2	0	0	1	0	584.655	0.334786	0.333483	-0.000754834	3	0.567109	12	-2.51724e-07
2	1	0	0	0	585.655	0.324785	0.325117	-0.000987076	3	0.567108	12	-3.20915e-07
2	1	0	1	0	586.655	0.314783	0.315345	-0.000818589	3	0.567107	12	-2.58138e-07
2	0	0	1	0	587.655	0.304782	0.304453	-0.00050329	3	0.567106	12	-1.53228e-07
2	0	0	0	0	588.655	0.29478	0.294516	-0.000673368	3	0.567105	12	-1.98318e-07
2	0	0	1	0	589.655	0.284779	0.286718	-0.000706373	3	0.567104	12	-2.0253e-07
2	1	0	0	0	590.656	0.274777	0.273433	-0.000683092	3	0.567104	12	-1.8678e-07
2	1	0	0	0	591.656	0.264776	0.264936	-0.000472967	3	0.567103	12	-1.25306e-07
2	0	0	1	0	592.656	0.254774	0.256583	-0.000493241	3	0.567102	12	-1.26557e-07
2	0	0	0	0	593.656	0.244773	0.243706	-0.000482677	3	0.567101	12	-1.17631e-07
2	1	0	1	0	594.656	0.234771	0.233198	-0.000776493	3	0.5671	12	-1.81076e-07
2	1	0	1	0	595.656	0.22477	0.224909	-0.000617039	3	0.567099	12	-1.38778e-07
2	1	0	0	0	596.656	0.214768	0.214392	-0.00044979	3	0.567099	12	-9.64314e-08
2	0	0	1	0	597.657	0.204767	0.203215	-0.000577565	3	0.567098	12	-1.1737e-07
2	0	0	0	0	598.657	0.194765	0.194065	-0.000657749	3	0.567097	12	-1.27646e-07
2	0	0	0	0	599.657	0.184764	0.186043	-0.000509479	3	0.567096	12	-9.47848e-08
2	1	0	1	0	600.657	0.174762	0.171942	-0.000511394	3	0.567095	12	-8.793e-08
2	1	0	0	0	601.657	0.164761	0.16481	-0.000469357	3	0.567094	12	-7.73547e-08
2	1	0	1	0	602.657	0.15476	0.155592	-0.000493295	3	0.567094	12	-7.67528e-08
2	1	0	1	0	603.657	0.144758	0.144831	-0.000407458	3	0.567093	12	-5.90125e-08
2	1	0	0	0	604.658	0.134756	0.134857	-0.000726087	3	0.567092	12	-9.79179e-08
2	1	0	1	0	605.658	0.124755	0.124547	-0.000495274	3	0.567091	12	-6.16849e-08
2	1	0	1	0	606.658	0.114753	0.112498	-0.000482921	3	0.56709	12	-5.43274e-08
2	1	0	0	0	607.658	0.104752	0.102327	-0.000676948	3	0.567089	12	-6.92703e-08
2	1	0	1	0	608.658	0.0947504	0.096329	-0.000790152	3	0.567088	12	-7.61145e-08
2	1	0	0	0	609.658	0.0847489	0.0846244	-0.000499754	3	0.567087	12	-4.22913e-08
2	1	0	1	0	610.658	0.074747	0.0743041	-0.000854567	3	0.567087	12	-6.34978e-08
2	1	0	1	0	611.659	0.064746	0.0666912	-0.000673825	3	0.567086	12	-4.49381e-08
2	1	0	0	0	612.659	0.0547445	0.0542574	-0.000474367	3	0.567085	12	-2.57379e-08
2	1	0	1	0	613.659	0.044743	0.0441616	-0.000676978	3	0.567084	12	-2.98964e-08
2	1	0	1	0	614.659	0.0347415	0.0348246	-0.000658059	3	0.567083	12	-2.29167e-08
2	1	0	0	0	615.659	0.02474	0.0258485	-0.000466174	3	0.567082	12	-1.20499e-08
2	1	0	1	0	616.659	0.0147385	0.0145461	-0.000665898	3	0.567081	12	-9.68619e-09
2	1	0	0	0	617.66	0.00473704	0.00372862	-0.000969881	3	0.567079	12	-3.61631e-09
2	1	0	1	0	618.128	-1.36638e-05	0.000213717	-0.00568265	3	0.567079	12	-1.21448e-09