File: Data_1mg/2023_01_31_Co45Ni45Fe10Nx 1mg ref309_02_CV_C05.mpt
EC-Lab ASCII FILE
Nb header lines : 57

Cyclic Voltammetry

Run on channel : 5 (SN 30436)
User :
CE vs. WE compliance from -10 V to 10 V
Electrode connection : standard
Potential control : Ewe
Ewe ctrl range : min = -10.00 V, max = 10.00 V
Safety Limits :
	Do not start on E overload
Acquisition started on : 01/31/2023 13:05:58.350
Loaded Setting File :  C:\Users\grupogalan\Documents\EC-Lab\Data\Scott\_cyclic_pause_tafel_CA.mps
Saved on :
	File : 2023_01_31_Co45Ni45Fe10Nx 1mg ref309_02_CV_C05.mpr
	Directory : C:\Users\grupogalan\Documents\EC-Lab\Data\Scott\
	Host : 169.254.104.159
Device : VSP (SN 1176)
Address : USB
EC-Lab for windows v11.46 (software)
Internet server v11.40 (firmware)
Command interpretor v11.40 (firmware)
Electrode material :
Initial state :
Electrolyte :
Comments :
Electrode surface area : 0.001 cm²
Characteristic mass : 0.001 g
Equivalent Weight : 0.000 g/eq.
Density : 0.000 g/cm3
Volume (V) : 0.001 cm³
Cycle Definition : Charge/Discharge alternance
Ei (V)              0.000
vs.                 Eoc
dE/dt               10.000
dE/dt unit          mV/s
E1 (V)              1.000
vs.                 Ref
Step percent        50
N                   10
E range min (V)     -10.000
E range max (V)     10.000
I Range             Auto
I Range min         Unset
I Range max         Unset
I Range init        Unset
Bandwidth           5
E2 (V)              0.000
vs.                 Ref
nc cycles           2
Reverse Scan        0
Ef (V)              0.000
vs.                 Eoc

mode	ox/red	error	control changes	counter inc.	time/s	control/V	Ewe/V	<I>/mA	cycle number	(Q-Qo)/C	I Range	P/W
2	1	0	1	0	80.9984	-0.156489	-0.155237	0.0986948	1	0.0000000E+000	13	-1.53211e-05
2	1	0	1	0	81.8143	-0.148331	-0.148822	0.000373194	1	8.02531e-07	12	-5.55394e-08
2	0	0	0	0	82.738	-0.139093	-0.139881	0.000382236	1	1.59228e-06	12	-5.34674e-08
2	1	0	1	0	83.6617	-0.129856	-0.12962	0.000499995	1	2.52337e-06	12	-6.48096e-08
2	1	0	1	0	84.5853	-0.12062	-0.121085	0.000799985	1	3.62651e-06	12	-9.68664e-08
2	1	0	1	0	85.509	-0.111384	-0.111544	0.00111603	1	4.9659e-06	12	-1.24486e-07
2	0	0	1	0	86.4326	-0.102147	-0.102863	0.00145367	1	6.56296e-06	12	-1.49528e-07
2	1	0	1	0	87.3563	-0.0929097	-0.0936504	0.00149747	1	8.48326e-06	12	-1.40239e-07
2	0	0	1	0	88.2799	-0.0836743	-0.0849883	0.00181401	1	1.06731e-05	12	-1.54169e-07
2	1	0	0	0	89.2036	-0.0744375	-0.0744857	0.00221336	1	1.3065e-05	12	-1.64863e-07
2	0	0	0	0	90.1272	-0.065201	-0.0653203	0.00250392	1	1.56788e-05	12	-1.63557e-07
2	1	0	1	0	91.0509	-0.0559638	-0.0560309	0.00261543	1	1.84124e-05	12	-1.46545e-07
2	0	0	1	0	91.9745	-0.0467282	-0.047012	0.0026976	1	2.12734e-05	12	-1.26819e-07
2	1	0	1	0	92.8982	-0.0374915	-0.0374592	0.00269085	1	2.42343e-05	12	-1.00797e-07
2	0	0	1	0	93.8218	-0.028255	-0.0283406	0.00262239	1	2.72662e-05	12	-7.43201e-08
2	1	0	1	0	94.7455	-0.0190178	-0.0194397	0.00277383	1	3.03752e-05	12	-5.39224e-08
2	1	0	1	0	95.6691	-0.00978217	-0.0102954	0.00299675	1	3.35525e-05	12	-3.08528e-08
2	1	0	0	0	96.5928	-0.000526852	-0.000639703	0.00319767	1	3.67922e-05	12	-2.04556e-09
2	0	0	0	0	97.5164	0.00869108	0.00870924	0.00321192	1	4.01757e-05	12	2.79734e-08
2	1	0	1	0	98.4401	0.0179283	0.0180982	0.00316476	1	4.36461e-05	12	5.72764e-08
2	1	0	1	0	99.3637	0.0271637	0.0273152	0.00328148	1	4.71939e-05	12	8.96343e-08
2	1	0	1	0	100.287	0.0364006	0.0364292	0.00334831	1	5.08322e-05	12	1.21976e-07
2	0	0	1	0	101.211	0.0456371	0.045516	0.00366008	1	5.45463e-05	12	1.66592e-07
2	1	0	1	0	102.135	0.0548741	0.0546833	0.00376622	1	5.83457e-05	12	2.05949e-07
2	1	0	1	0	103.058	0.0641097	0.0641578	0.00383518	1	6.22988e-05	12	2.46056e-07
2	1	0	0	0	103.982	0.0733466	0.0729685	0.00377088	1	6.63642e-05	12	2.75155e-07
2	1	0	0	0	104.906	0.0825832	0.0830571	0.00411608	1	7.06298e-05	12	3.4187e-07
2	0	0	1	0	105.829	0.0918201	0.0912452	0.00437961	1	7.50251e-05	12	3.99619e-07
2	0	0	1	0	106.753	0.101056	0.100788	0.00457443	1	7.9645e-05	12	4.6105e-07
2	1	0	1	0	107.677	0.110293	0.110672	0.00489253	1	8.4612e-05	12	5.41466e-07
2	1	0	1	0	108.6	0.119529	0.119717	0.00578408	1	9.00971e-05	12	6.92456e-07
2	0	0	1	0	109.524	0.128766	0.128509	0.00680977	1	9.63645e-05	12	8.75115e-07
2	1	0	1	0	110.448	0.138002	0.137975	0.00819216	1	0.000103809	12	1.13031e-06
2	1	0	0	0	111.371	0.147239	0.14675	0.00991371	1	0.000112767	12	1.45483e-06
2	1	0	0	0	112.295	0.156475	0.156575	0.011854	1	0.000123453	12	1.85605e-06
2	1	0	1	0	113.219	0.165712	0.165541	0.0135383	1	0.000135806	12	2.24115e-06
2	1	0	1	0	114.142	0.174948	0.174746	0.0148739	1	0.000149525	12	2.59914e-06
2	1	0	1	0	115.066	0.184185	0.184496	0.0160445	1	0.000164386	12	2.96013e-06
2	1	0	1	0	115.989	0.193421	0.193491	0.0167956	1	0.000180118	12	3.24981e-06
2	1	0	1	0	116.913	0.202658	0.203043	0.0174935	1	0.000196591	12	3.55193e-06
2	1	0	1	0	117.837	0.211893	0.211717	0.0180941	1	0.000213737	12	3.83083e-06
2	1	0	0	0	118.76	0.221131	0.221257	0.0189567	1	0.000231529	12	4.19429e-06
2	1	0	0	0	119.684	0.230367	0.230347	0.0197035	1	0.000250038	12	4.53864e-06
2	1	0	1	0	120.608	0.239604	0.23991	0.0206332	1	0.00026938	12	4.95012e-06
2	1	0	1	0	121.531	0.248839	0.24855	0.021848	1	0.000289681	12	5.43033e-06
2	1	0	1	0	122.455	0.258077	0.257727	0.0231663	1	0.000311111	12	5.97059e-06
2	1	0	1	0	123.379	0.267314	0.267021	0.0248446	1	0.000334025	12	6.63404e-06
2	1	0	1	0	124.302	0.27655	0.276366	0.0271329	1	0.000358897	12	7.49862e-06
2	1	0	1	0	125.226	0.285785	0.285428	0.0302801	1	0.00038633	12	8.64278e-06
2	1	0	0	0	126.15	0.295023	0.294718	0.0344547	1	0.000417155	12	1.01545e-05
2	1	0	1	0	127.073	0.30426	0.30406	0.0397641	1	0.000452338	12	1.20907e-05
2	1	0	1	0	127.997	0.313496	0.31338	0.0468253	1	0.000493256	12	1.46741e-05
2	1	0	1	0	128.921	0.322732	0.323361	0.0560982	1	0.000541692	12	1.81399e-05
2	1	0	1	0	129.844	0.331969	0.331706	0.0679015	1	0.000599938	12	2.25233e-05
2	1	0	1	0	130.768	0.341206	0.341536	0.083793	1	0.000671157	12	2.86183e-05
2	1	0	1	0	131.692	0.350442	0.350333	0.104658	1	0.000759454	12	3.66653e-05
2	1	0	0	0	132.615	0.359678	0.360088	0.131975	1	0.000870069	12	4.75227e-05
2	1	0	0	0	133.539	0.368915	0.368664	0.16682	1	0.00100951	12	6.15007e-05
2	1	0	1	0	134.463	0.378152	0.378556	0.210678	1	0.00118542	12	7.97536e-05
2	1	0	1	0	135.386	0.387388	0.386654	0.264778	1	0.00140676	12	0.000102377
2	1	0	1	0	136.31	0.396624	0.396692	0.33037	1	0.00168371	12	0.000131055
2	1	0	1	0	137.233	0.405861	0.406499	0.406571	1	0.00202656	12	0.000165271
2	1	0	1	0	138.157	0.415098	0.415282	0.493109	1	0.00244518	12	0.000204779
2	1	0	1	0	139.081	0.424334	0.424275	0.589787	1	0.00294883	12	0.000250232
2	1	0	0	0	140.004	0.43357	0.433537	0.694669	1	0.00354603	12	0.000301165
2	1	0	0	0	140.928	0.442807	0.442596	0.806284	1	0.00424352	12	0.000356858
2	1	0	1	0	141.852	0.452044	0.451617	0.922155	1	0.00504663	12	0.000416461
2	1	0	1	0	142.791	0.461434	0.461408	1.04315	1	0.00597593	12	0.000481319
2	1	0	1	0	143.73	0.470824	0.470824	1.16578	1	0.00701921	11	0.000548877
2	1	0	1	0	144.653	0.480061	0.480423	1.28863	1	0.00815926	11	0.000619088
2	1	0	1	0	145.577	0.489298	0.489204	1.40909	1	0.0094117	11	0.000689333
2	1	0	1	0	146.501	0.498534	0.498561	1.52462	1	0.0107736	11	0.000760117
2	1	0	0	0	147.424	0.50777	0.50756	1.63451	1	0.0122404	11	0.00082961
2	1	0	0	0	148.348	0.517007	0.517255	1.7381	1	0.0138055	11	0.000899039
2	1	0	1	0	149.272	0.526244	0.526435	1.83176	1	0.0154616	11	0.000964304
2	1	0	1	0	150.195	0.535479	0.536035	1.91523	1	0.0171994	11	0.00102663
2	1	0	1	0	151.119	0.544716	0.544447	1.99043	1	0.0190114	11	0.00108369
2	1	0	1	0	152.043	0.553953	0.553658	2.05721	1	0.0208891	11	0.00113899
2	1	0	1	0	152.966	0.56319	0.564337	2.11471	1	0.0228247	11	0.00119341
2	1	0	1	0	153.89	0.572426	0.572782	2.16412	1	0.0248099	11	0.00123957
2	1	0	0	0	154.814	0.581662	0.581827	2.21092	1	0.0268394	11	0.00128638
2	1	0	0	0	155.737	0.590899	0.590814	2.2555	1	0.0289103	11	0.00133258
2	1	0	1	0	156.661	0.600136	0.600339	2.30523	1	0.0310253	11	0.00138392
2	1	0	1	0	157.585	0.609371	0.608991	2.37093	1	0.0331934	11	0.00144387
2	1	0	1	0	158.508	0.618608	0.618966	2.47132	1	0.0354366	11	0.00152966
2	1	0	1	0	159.432	0.627845	0.627714	2.63191	1	0.037798	11	0.00165208
2	1	0	1	0	160.356	0.637082	0.63695	2.88428	1	0.0403498	11	0.00183714
2	1	0	1	0	161.279	0.646317	0.646497	3.26372	1	0.0431917	11	0.00210999
2	1	0	0	0	162.203	0.655555	0.655974	3.79635	1	0.0464541	11	0.00249031
2	1	0	0	0	163.126	0.664791	0.664495	4.50263	1	0.0502903	11	0.00299197
2	1	0	1	0	164.05	0.674028	0.673554	5.39	1	0.0548641	11	0.00363046
2	1	0	1	0	164.974	0.683263	0.683475	6.45069	1	0.0603388	11	0.00440889
2	1	0	1	0	165.897	0.692501	0.692076	7.67298	1	0.0668699	11	0.00531028
2	1	0	1	0	166.821	0.701737	0.701812	9.04745	1	0.0746037	11	0.00634961
2	1	0	1	0	167.745	0.710974	0.710527	10.5646	1	0.0836776	11	0.00750645
2	1	0	1	0	168.668	0.720209	0.720108	12.1843	1	0.094202	10	0.00877401
2	1	0	0	0	169.592	0.729447	0.729612	13.8992	1	0.106274	10	0.010141
2	1	0	1	0	170.516	0.738684	0.738794	15.7173	1	0.119981	10	0.0116119
2	1	0	1	0	171.439	0.74792	0.748056	17.6041	1	0.135395	10	0.0131689
2	1	0	1	0	172.363	0.757156	0.757456	19.552	1	0.152581	10	0.0148097
2	1	0	1	0	173.287	0.766393	0.76682	21.5236	1	0.17158	10	0.0165048
2	1	0	1	0	174.21	0.77563	0.775751	23.5587	1	0.192431	10	0.0182757
2	1	0	1	0	175.134	0.784865	0.784697	25.6089	1	0.215165	10	0.0200952
2	1	0	0	0	176.058	0.794102	0.794663	27.6655	1	0.239809	10	0.0219848
2	1	0	0	0	176.981	0.803339	0.803261	29.6887	1	0.266338	10	0.0238478
2	1	0	1	0	177.905	0.812576	0.812414	31.6879	1	0.294721	10	0.0257437
2	1	0	1	0	178.829	0.821812	0.821386	33.6691	1	0.324937	10	0.0276553
2	1	0	1	0	179.752	0.831048	0.831277	35.5708	1	0.356956	10	0.0295692
2	1	0	1	0	180.676	0.840285	0.840194	37.589	1	0.390757	10	0.0315821
2	1	0	1	0	181.6	0.849522	0.850416	39.573	1	0.426429	10	0.0336535
2	1	0	1	0	182.523	0.858758	0.858793	41.7458	1	0.463982	10	0.035851
2	1	0	0	0	183.447	0.867994	0.867527	44.1392	1	0.503724	10	0.038292
2	1	0	0	0	184.37	0.877231	0.876962	46.5399	1	0.545636	10	0.0408137
2	1	0	1	0	185.294	0.886468	0.886667	48.9325	1	0.58975	10	0.0433868
2	1	0	1	0	186.218	0.895704	0.895755	51.483	1	0.636211	10	0.0461162
2	1	0	1	0	187.141	0.90494	0.904797	53.9847	1	0.684932	10	0.0488452
2	1	0	1	0	188.065	0.914177	0.914119	57.1127	1	0.73632	10	0.0522078
2	1	0	1	0	188.989	0.923414	0.923015	59.5814	1	0.790284	10	0.0549945
2	1	0	1	0	189.912	0.932649	0.932446	62.654	1	0.846728	10	0.0584215
2	1	0	0	0	190.836	0.941886	0.941867	65.5438	1	0.906051	10	0.0617336
2	1	0	0	0	191.76	0.951123	0.951221	68.8006	1	0.968275	10	0.0654446
2	1	0	1	0	192.683	0.96036	0.960377	72.0304	1	1.03342	10	0.0691763
2	1	0	1	0	193.607	0.969595	0.969452	75.0157	1	1.10138	10	0.0727241
2	1	0	1	0	194.531	0.978832	0.979165	78.5478	1	1.17219	10	0.0769113
2	1	0	1	0	195.454	0.988069	0.988438	82.5397	1	1.24668	10	0.0815853
2	1	0	1	0	196.378	0.997306	0.996597	85.6514	1	1.3244	10	0.0853599
2	1	0	1	0	196.809	0.99823	0.997039	86.0456	1	1.36151	10	0.0857909
2	1	0	1	0	197.733	0.988992	0.988202	83.2417	1	1.43972	10	0.0822596
2	1	0	1	0	198.657	0.979756	0.980029	80.1229	1	1.51504	10	0.0785228
2	1	0	1	0	199.58	0.97052	0.970797	77.5146	1	1.58802	10	0.0752509
2	1	0	1	0	200.504	0.961284	0.961375	74.438	1	1.65825	10	0.0715628
2	1	0	0	0	201.428	0.952047	0.951976	71.2679	1	1.72551	10	0.0678453
2	1	0	1	0	202.351	0.942809	0.942349	68.3361	1	1.78992	10	0.0643964
2	1	0	1	0	203.275	0.933573	0.933361	65.5837	1	1.85181	10	0.0612132
2	1	0	1	0	204.199	0.924337	0.924523	62.7679	1	1.91103	10	0.0580304
2	1	0	1	0	205.122	0.9151	0.915271	59.9367	1	1.9677	10	0.0548583
2	1	0	1	0	206.046	0.905863	0.906433	57.0505	1	2.02169	10	0.0517125
2	1	0	1	0	206.97	0.896628	0.896192	54.2466	1	2.07306	10	0.0486154
2	1	0	0	0	207.893	0.887391	0.887397	51.4008	1	2.12182	10	0.0456129
2	1	0	0	0	208.817	0.878154	0.877756	48.7777	1	2.16805	10	0.0428149
2	1	0	1	0	209.741	0.868917	0.868948	46.1245	1	2.21184	10	0.0400798
2	1	0	1	0	210.664	0.859682	0.85993	43.5622	1	2.25321	10	0.0374604
2	1	0	1	0	211.588	0.850445	0.850966	41.1083	1	2.29228	10	0.0349817
2	1	0	1	0	212.511	0.841208	0.84096	38.6863	1	2.3291	10	0.0325336
2	1	0	1	0	213.435	0.831971	0.831445	36.3058	1	2.36369	10	0.0301863
2	1	0	1	0	214.359	0.822736	0.823535	34.0026	1	2.39611	10	0.0280023
2	1	0	0	0	215.282	0.813499	0.813535	31.7447	1	2.42645	10	0.0258254
2	1	0	0	0	216.206	0.804262	0.805068	29.5975	1	2.45474	10	0.023828
2	1	0	1	0	217.13	0.795025	0.795175	27.4928	1	2.48107	10	0.0218615
2	1	0	1	0	218.053	0.78579	0.785758	25.4747	1	2.5055	10	0.020017
2	1	0	1	0	218.977	0.776553	0.776992	23.5089	1	2.52808	10	0.0182662
2	1	0	1	0	219.901	0.767316	0.768002	21.6254	1	2.54889	10	0.0166084
2	1	0	1	0	220.824	0.758079	0.758578	19.8173	1	2.568	10	0.0150329
2	1	0	1	0	221.748	0.748844	0.748667	18.075	1	2.58547	10	0.0135321
2	1	0	0	0	222.672	0.739607	0.739684	16.4118	1	2.60137	10	0.0121396
2	1	0	0	0	223.595	0.73037	0.729964	14.8071	1	2.61575	10	0.0108086
2	1	0	1	0	224.519	0.721133	0.720797	13.286	1	2.6287	10	0.00957654
2	1	0	1	0	225.443	0.711898	0.712366	11.8427	1	2.64028	10	0.00843631
2	1	0	1	0	226.366	0.702661	0.702578	10.4637	1	2.65055	10	0.00735157
2	1	0	1	0	227.29	0.693424	0.693238	9.16769	1	2.65958	10	0.00635539
2	1	0	1	0	228.214	0.684187	0.684297	7.96389	1	2.66747	10	0.00544966
2	1	0	1	0	229.137	0.674952	0.674444	6.83297	1	2.67427	10	0.00460846
2	1	0	0	0	230.061	0.665715	0.66583	5.79264	1	2.68008	10	0.00385691
2	1	0	0	0	230.984	0.656478	0.656564	4.83319	1	2.68497	10	0.0031733
2	1	0	1	0	231.939	0.646933	0.647332	3.96357	1	2.68914	11	0.00256575
2	1	0	1	0	232.863	0.637698	0.637672	3.19368	1	2.69243	11	0.00203652
2	1	0	1	0	233.786	0.628461	0.628247	2.51396	1	2.69504	11	0.00157939
2	1	0	1	0	234.71	0.619224	0.619524	1.92402	1	2.69707	11	0.00119198
2	1	0	1	0	235.633	0.609987	0.609718	1.42853	1	2.6986	11	0.000871002
2	1	0	1	0	236.557	0.600752	0.60075	1.0225	1	2.69971	11	0.000614268
2	1	0	0	0	237.481	0.591515	0.591373	0.698287	1	2.70049	11	0.000412948
2	1	0	0	0	238.42	0.582124	0.581634	0.44692	1	2.70101	11	0.000259944
2	1	0	1	0	239.359	0.572733	0.572563	0.265128	1	2.70133	12	0.000151802
2	1	0	1	0	240.282	0.563498	0.563577	0.13783	1	2.70151	12	7.7678e-05
2	1	0	1	0	241.206	0.554261	0.554258	0.0503287	1	2.70159	12	2.78951e-05
2	0	0	1	0	242.13	0.545024	0.545307	-0.00897606	1	2.70159	12	-4.89471e-06
2	0	0	1	0	243.053	0.535787	0.535972	-0.0491913	1	2.70156	12	-2.63652e-05
2	0	0	1	0	243.977	0.526552	0.526463	-0.0771522	1	2.70149	12	-4.06177e-05
2	0	0	0	0	244.901	0.517315	0.517153	-0.0978333	1	2.7014	12	-5.05948e-05
2	0	0	0	0	245.824	0.508078	0.508491	-0.113351	1	2.7013	12	-5.76377e-05
2	0	0	1	0	246.748	0.498842	0.499188	-0.124784	1	2.70118	12	-6.22907e-05
2	0	0	1	0	247.672	0.489606	0.49006	-0.13395	1	2.70105	12	-6.56436e-05
2	0	0	1	0	248.595	0.480369	0.480529	-0.141998	1	2.70092	12	-6.82341e-05
2	0	0	1	0	249.519	0.471132	0.471024	-0.149224	1	2.70078	12	-7.0288e-05
2	0	0	1	0	250.443	0.461896	0.462506	-0.155256	1	2.70063	12	-7.18067e-05
2	0	0	1	0	251.366	0.45266	0.452604	-0.160379	1	2.70048	12	-7.2588e-05
2	0	0	0	0	252.29	0.443423	0.443661	-0.165661	1	2.70032	12	-7.34971e-05
2	0	0	0	0	253.214	0.434186	0.433586	-0.171614	1	2.70016	12	-7.44094e-05
2	0	0	1	0	254.137	0.424949	0.424672	-0.177891	1	2.69999	12	-7.55455e-05
2	0	0	1	0	255.061	0.415714	0.415382	-0.184348	1	2.69982	12	-7.65748e-05
2	0	0	1	0	255.985	0.406477	0.40678	-0.191493	1	2.69964	12	-7.78954e-05
2	0	0	1	0	256.908	0.39724	0.396984	-0.199792	1	2.69946	12	-7.9314e-05
2	0	0	1	0	257.832	0.388004	0.387959	-0.209831	1	2.69927	12	-8.14059e-05
2	0	0	1	0	258.755	0.378768	0.378437	-0.220046	1	2.69906	12	-8.32737e-05
2	0	0	0	0	259.679	0.369531	0.369433	-0.231482	1	2.69885	12	-8.55171e-05
2	0	0	0	0	260.603	0.360294	0.360386	-0.245676	1	2.69862	12	-8.85383e-05
2	0	0	1	0	261.526	0.351058	0.350804	-0.26247	1	2.69839	12	-9.20755e-05
2	0	0	1	0	262.45	0.341822	0.341737	-0.282966	1	2.69813	12	-9.67001e-05
2	0	0	1	0	263.374	0.332585	0.33258	-0.302686	1	2.69786	12	-0.000100667
2	0	0	1	0	264.297	0.323347	0.322745	-0.318542	1	2.69757	12	-0.000102808
2	0	0	1	0	265.221	0.314112	0.313683	-0.329552	1	2.69726	12	-0.000103375
2	0	0	0	0	266.145	0.304875	0.304449	-0.335441	1	2.69695	12	-0.000102125
2	0	0	0	0	267.068	0.295639	0.295456	-0.336929	1	2.69664	12	-9.95477e-05
2	0	0	1	0	267.992	0.286401	0.285537	-0.334397	1	2.69633	12	-9.54826e-05
2	0	0	1	0	268.916	0.277166	0.276366	-0.328284	1	2.69602	12	-9.07265e-05
2	0	0	1	0	269.839	0.267929	0.268408	-0.319076	1	2.69572	12	-8.56425e-05
2	0	0	1	0	270.763	0.258693	0.259334	-0.307417	1	2.69543	12	-7.97237e-05
2	0	0	1	0	271.687	0.249455	0.250077	-0.292977	1	2.69515	12	-7.32668e-05
2	0	0	1	0	272.61	0.24022	0.239963	-0.277625	1	2.69488	12	-6.66198e-05
2	0	0	0	0	273.534	0.230983	0.230724	-0.261824	1	2.69463	12	-6.04089e-05
2	0	0	0	0	274.458	0.221747	0.221642	-0.246058	1	2.69439	12	-5.45368e-05
2	0	0	1	0	275.381	0.212509	0.212922	-0.231218	1	2.69417	12	-4.92312e-05
2	0	0	1	0	276.305	0.203274	0.203117	-0.217609	1	2.69396	12	-4.42e-05
2	0	0	1	0	277.229	0.194037	0.193431	-0.205103	1	2.69377	12	-3.96732e-05
2	0	0	1	0	278.152	0.184801	0.184764	-0.193732	1	2.69358	12	-3.57947e-05
2	0	0	1	0	279.076	0.175564	0.175238	-0.183371	1	2.69341	12	-3.21335e-05
2	0	0	1	0	279.999	0.166328	0.166477	-0.174153	1	2.69324	12	-2.89924e-05
2	0	0	0	0	280.923	0.157091	0.156888	-0.165911	1	2.69308	12	-2.60295e-05
2	0	0	0	0	281.847	0.147854	0.147669	-0.158371	1	2.69293	12	-2.33865e-05
2	0	0	1	0	282.77	0.138618	0.138142	-0.151649	1	2.69279	12	-2.09491e-05
2	0	0	1	0	283.694	0.129382	0.129875	-0.145582	1	2.69265	12	-1.89075e-05
2	0	0	1	0	284.618	0.120145	0.120841	-0.139847	1	2.69252	12	-1.68993e-05
2	0	0	1	0	285.541	0.110908	0.110632	-0.134704	1	2.69239	12	-1.49025e-05
2	0	0	1	0	286.465	0.101671	0.101572	-0.129767	1	2.69227	12	-1.31807e-05
2	0	0	1	0	287.389	0.0924361	0.0926286	-0.125392	1	2.69215	12	-1.16148e-05
2	0	0	0	0	288.312	0.0831989	0.0827855	-0.121395	1	2.69204	12	-1.00497e-05
2	0	0	0	0	289.236	0.0739624	0.0738462	-0.117817	1	2.69192	12	-8.70036e-06
2	0	0	1	0	290.16	0.0647257	0.0645255	-0.114715	1	2.69182	12	-7.40202e-06
2	0	0	1	0	291.083	0.0554901	0.0552315	-0.111702	1	2.69171	12	-6.16949e-06
2	0	0	1	0	292.007	0.0462529	0.0458832	-0.108969	1	2.69161	12	-4.99984e-06
2	0	0	1	0	292.931	0.0370164	0.0369333	-0.106391	1	2.69151	12	-3.92937e-06
2	0	0	1	0	293.854	0.0277796	0.0273884	-0.104082	1	2.69141	12	-2.85063e-06
2	0	0	1	0	294.778	0.0185442	0.018424	-0.101773	1	2.69132	12	-1.87507e-06
2	0	0	0	0	295.702	0.00930685	0.0096124	-0.0997234	1	2.69122	12	-9.58581e-07
2	0	0	0	0	296.548	0.000840046	-0.000417627	-0.0975881	1	2.69114	12	4.07555e-08
2	0	0	0	1	297.118	0.00468859	0.00439189	-0.0921599	2	2.69109	12	-4.04756e-07
2	0	0	0	1	298.042	0.0139251	0.013865	-0.0852135	2	2.691	12	-1.18149e-06
2	0	0	1	1	298.966	0.0231621	0.0221312	-0.07989	2	2.69093	12	-1.76806e-06
2	0	0	1	1	299.889	0.0323977	0.0314969	-0.0751431	2	2.69086	12	-2.36678e-06
2	0	0	1	1	300.813	0.0416346	0.0416486	-0.070926	2	2.69079	12	-2.95397e-06
2	0	0	1	1	301.737	0.0508711	0.0509116	-0.0672499	2	2.69073	12	-3.4238e-06
2	0	0	1	1	302.66	0.0601081	0.0599416	-0.0639398	2	2.69067	12	-3.83265e-06
2	0	0	1	1	303.584	0.0693437	0.0692825	-0.0608977	2	2.69061	12	-4.21915e-06
2	0	0	0	1	304.508	0.0785807	0.0789775	-0.0579434	2	2.69055	12	-4.57623e-06
2	0	0	0	1	305.431	0.0878172	0.0871219	-0.0552583	2	2.6905	12	-4.81421e-06
2	0	0	1	1	306.355	0.0970541	0.0967979	-0.0526067	2	2.69045	12	-5.09222e-06
2	0	0	1	1	307.278	0.10629	0.106407	-0.0501654	2	2.69041	12	-5.33793e-06
2	0	0	1	1	308.233	0.115835	0.116601	-0.0473338	2	2.69036	13	-5.51919e-06
2	0	0	1	1	309.157	0.125071	0.124968	-0.0450252	2	2.69032	13	-5.6267e-06
2	0	0	1	1	310.08	0.134308	0.134023	-0.0427348	2	2.69028	13	-5.72746e-06
2	0	0	1	1	311.004	0.143544	0.142997	-0.0405404	2	2.69024	13	-5.79714e-06
2	0	0	0	1	311.928	0.152781	0.153164	-0.0383924	2	2.69021	13	-5.88034e-06
2	0	0	0	1	312.851	0.162017	0.162016	-0.0361552	2	2.69017	13	-5.85773e-06
2	0	0	1	1	313.775	0.171254	0.171568	-0.0340471	2	2.69014	13	-5.84138e-06
2	0	0	1	1	314.698	0.180489	0.180315	-0.0318049	2	2.69011	13	-5.73491e-06
2	0	0	1	1	315.622	0.189727	0.189583	-0.0294107	2	2.69008	13	-5.57579e-06
2	0	0	1	1	316.546	0.198963	0.198963	-0.026911	2	2.69006	13	-5.35431e-06
2	0	0	1	1	317.469	0.2082	0.208046	-0.0241316	2	2.69004	13	-5.0205e-06
2	0	0	1	1	318.393	0.217436	0.217701	-0.02113	2	2.69002	13	-4.60002e-06
2	0	0	0	1	319.317	0.226673	0.226593	-0.0177343	2	2.69	13	-4.01848e-06
2	0	0	0	1	320.24	0.235909	0.235411	-0.0138446	2	2.68998	13	-3.25918e-06
2	0	0	1	1	321.164	0.245146	0.244989	-0.00941362	2	2.68997	13	-2.30624e-06
2	0	0	1	1	322.088	0.254382	0.253785	-0.00443581	2	2.68997	13	-1.12574e-06
2	0	0	1	1	323.011	0.263619	0.263501	0.00156607	2	2.68997	13	4.1266e-07
2	1	0	1	1	323.935	0.272855	0.273185	0.00841668	2	2.68997	13	2.29931e-06
2	1	0	1	1	324.859	0.282092	0.282481	0.016727	2	2.68999	13	4.72506e-06
2	1	0	1	1	325.782	0.291327	0.290478	0.0267202	2	2.69001	13	7.76163e-06
2	1	0	0	1	326.706	0.300565	0.300303	0.038968	2	2.69004	13	1.17022e-05
2	1	0	0	1	327.63	0.309801	0.309187	0.0543887	2	2.69008	13	1.68163e-05
2	1	0	1	1	328.553	0.319038	0.319294	0.0738905	2	2.69014	13	2.35928e-05
2	1	0	1	1	329.508	0.328582	0.328402	0.0987973	2	2.69023	12	3.24452e-05
2	1	0	1	1	330.431	0.337819	0.337121	0.12791	2	2.69033	12	4.31212e-05
2	1	0	1	1	331.355	0.347055	0.347016	0.162286	2	2.69047	12	5.63158e-05
2	1	0	1	1	332.279	0.356292	0.3552	0.201446	2	2.69064	12	7.15535e-05
2	1	0	1	1	333.202	0.365527	0.365652	0.244426	2	2.69085	12	8.93749e-05
2	1	0	0	1	334.126	0.374765	0.374399	0.289903	2	2.6911	12	0.00010854
2	1	0	0	1	335.05	0.384001	0.383763	0.336776	2	2.69139	12	0.000129242
2	1	0	1	1	335.973	0.393238	0.393079	0.384357	2	2.69173	12	0.000151083
2	1	0	1	1	336.897	0.402473	0.402538	0.431007	2	2.69211	12	0.000173497
2	1	0	1	1	337.821	0.411711	0.411542	0.47681	2	2.69253	12	0.000196227
2	1	0	1	1	338.744	0.420948	0.420468	0.521326	2	2.693	12	0.000219201
2	1	0	1	1	339.668	0.430184	0.43023	0.562576	2	2.6935	12	0.000242037
2	1	0	1	1	340.591	0.439419	0.439068	0.598136	2	2.69404	12	0.000262622
2	1	0	0	1	341.515	0.448657	0.448847	0.627708	2	2.69461	12	0.000281745
2	1	0	1	1	342.439	0.457894	0.457762	0.649223	2	2.69521	12	0.00029719
2	1	0	1	1	343.362	0.46713	0.467166	0.663736	2	2.69582	12	0.000310075
2	1	0	1	1	344.286	0.476366	0.476026	0.671417	2	2.69644	12	0.000319612
2	1	0	1	1	345.21	0.485603	0.485933	0.671826	2	2.69707	12	0.000326463
2	1	0	1	1	346.133	0.49484	0.495151	0.666002	2	2.69769	12	0.000329772
2	1	0	1	1	347.057	0.504076	0.503792	0.656497	2	2.69831	12	0.000330738
2	1	0	0	1	347.981	0.513312	0.513752	0.643942	2	2.69891	12	0.000330826
2	1	0	0	1	348.904	0.522549	0.522642	0.630188	2	2.69951	12	0.000329363
2	1	0	1	1	349.828	0.531786	0.531202	0.616291	2	2.70009	12	0.000327375
2	1	0	1	1	350.752	0.541022	0.540828	0.604971	2	2.70066	12	0.000327186
2	1	0	1	1	351.675	0.550258	0.549894	0.598052	2	2.70122	12	0.000328865
2	1	0	1	1	352.599	0.559495	0.55981	0.595977	2	2.70178	12	0.000333634
2	1	0	1	1	353.523	0.568732	0.569069	0.604373	2	2.70234	12	0.00034393
2	1	0	1	1	354.446	0.577967	0.578095	0.630559	2	2.70291	12	0.000364523
2	1	0	0	1	355.37	0.587204	0.586771	0.684644	2	2.70353	12	0.000401729
2	1	0	0	1	356.294	0.596441	0.596329	0.780601	2	2.70421	12	0.000465495
2	1	0	1	1	357.217	0.605678	0.605998	0.934546	2	2.705	12	0.000566333
2	1	0	1	1	358.172	0.615222	0.614388	1.16746	2	2.70601	11	0.000717275
2	1	0	1	1	359.095	0.624458	0.624548	1.48133	2	2.70724	11	0.000925162
2	1	0	1	1	360.019	0.633695	0.634079	1.89387	2	2.7088	11	0.00120087
2	1	0	1	1	360.943	0.642932	0.642892	2.40486	2	2.71079	11	0.00154606
2	1	0	1	1	361.866	0.652168	0.651868	3.0168	2	2.7133	11	0.00196656
2	1	0	0	1	362.79	0.661404	0.661223	3.7376	2	2.71643	11	0.00247138
2	1	0	0	1	363.714	0.670641	0.67041	4.56565	2	2.72027	11	0.00306086
2	1	0	1	1	364.637	0.679878	0.679718	5.49987	2	2.72493	11	0.00373836
2	1	0	1	1	365.561	0.689113	0.688822	6.53204	2	2.7305	11	0.00449942
2	1	0	1	1	366.485	0.69835	0.697707	7.6569	2	2.73707	11	0.00534227
2	1	0	1	1	367.408	0.707587	0.707214	8.87991	2	2.74471	11	0.00627999
2	1	0	1	1	368.332	0.716824	0.717372	10.1918	2	2.75354	11	0.00731132
2	1	0	1	1	369.286	0.726368	0.72671	11.6318	2	2.76397	10	0.00845295
2	1	0	0	1	370.21	0.735604	0.735666	13.1506	2	2.77543	10	0.00967446
2	1	0	0	1	371.134	0.744841	0.745055	14.7739	2	2.78834	10	0.0110074
2	1	0	1	1	372.057	0.754078	0.754307	16.4932	2	2.80281	10	0.0124409
2	1	0	1	1	372.981	0.763313	0.763299	18.3105	2	2.8189	10	0.0139764
2	1	0	1	1	373.905	0.77255	0.772753	20.1824	2	2.8367	10	0.015596
2	1	0	1	1	374.828	0.781787	0.782466	22.1178	2	2.85625	10	0.0173064
2	1	0	1	1	375.752	0.791024	0.790748	24.1494	2	2.87765	10	0.0190961
2	1	0	1	1	376.675	0.800259	0.800392	26.2324	2	2.90094	10	0.0209962
2	1	0	0	1	377.599	0.809496	0.809408	28.3849	2	2.9262	10	0.0229749
2	1	0	0	1	378.523	0.818733	0.818497	30.6119	2	2.95348	10	0.0250557
2	1	0	1	1	379.446	0.82797	0.828345	32.8962	2	2.98284	10	0.0272494
2	1	0	1	1	380.37	0.837205	0.836644	35.3135	2	3.01437	10	0.0295448
2	1	0	1	1	381.294	0.846442	0.846364	37.7824	2	3.04817	10	0.0319777
2	1	0	1	1	382.217	0.855679	0.855532	40.3017	2	3.08426	10	0.0344794
2	1	0	1	1	383.141	0.864916	0.865243	42.9158	2	3.12273	10	0.0371326
2	1	0	1	1	384.065	0.874151	0.874107	45.5414	2	3.1636	10	0.039808
2	1	0	0	1	384.988	0.883389	0.884	48.2115	2	3.20694	10	0.0426189
2	1	0	0	1	385.912	0.892625	0.893165	50.962	2	3.2528	10	0.0455175
2	1	0	1	1	386.836	0.901862	0.901794	54.1904	2	3.30145	10	0.0488685
2	1	0	1	1	387.759	0.911097	0.910653	57.0499	2	3.35288	10	0.0519526
2	1	0	1	1	388.683	0.920334	0.920374	60.1523	2	3.40706	10	0.0553626
2	1	0	1	1	389.607	0.929571	0.929968	63.0974	2	3.46406	10	0.0586785
2	1	0	1	1	390.53	0.938808	0.938696	66.0635	2	3.52378	10	0.0620136
2	1	0	1	1	391.454	0.948043	0.948198	69.0988	2	3.58624	10	0.0655193
2	1	0	0	1	392.378	0.957281	0.957128	72.1477	2	3.65154	10	0.0690546
2	1	0	0	1	393.301	0.966517	0.966164	75.0798	2	3.71957	10	0.0725394
2	1	0	1	1	394.225	0.975754	0.975996	78.1494	2	3.79039	10	0.0762736
2	1	0	1	1	395.148	0.984989	0.985227	81.3448	2	3.86406	10	0.0801431
2	1	0	1	1	396.072	0.994227	0.993984	84.3694	2	3.94067	10	0.0838618
2	1	0	0	1	396.642	0.999923	0.999705	86.1498	2	3.98926	10	0.0861244
2	1	0	1	1	397.427	0.992072	0.99205	83.0803	2	4.05564	10	0.0824198
2	1	0	1	1	398.351	0.982835	0.98275	79.5802	2	4.13071	10	0.0782075
2	1	0	1	1	399.275	0.973598	0.973657	76.1377	2	4.20252	10	0.0741321
2	1	0	1	1	400.198	0.964361	0.964577	72.7785	2	4.27122	10	0.0702004
2	1	0	1	1	401.122	0.955126	0.955295	69.4926	2	4.33686	10	0.0663859
2	1	0	0	1	402.046	0.945889	0.945828	66.3875	2	4.39956	10	0.0627912
2	1	0	0	1	402.969	0.936652	0.936622	64.0489	2	4.45984	10	0.0599896
2	1	0	1	1	403.893	0.927415	0.927613	60.9345	2	4.51754	10	0.0565236
2	1	0	1	1	404.816	0.91818	0.918248	57.9055	2	4.57237	10	0.0531716
2	1	0	1	1	405.74	0.908943	0.908514	54.9334	2	4.62442	10	0.0499078
2	1	0	1	1	406.664	0.899706	0.900346	52.0629	2	4.67376	10	0.0468747
2	1	0	1	1	407.587	0.890469	0.890731	49.2556	2	4.7205	10	0.0438734
2	1	0	1	1	408.511	0.881234	0.881419	46.5456	2	4.76469	10	0.0410262
2	1	0	0	1	409.435	0.871997	0.872382	43.8996	2	4.80643	10	0.0382972
2	1	0	0	1	410.358	0.86276	0.863155	41.295	2	4.84571	10	0.035644
2	1	0	1	1	411.282	0.853523	0.853356	38.8044	2	4.88266	10	0.0331139
2	1	0	1	1	412.206	0.844288	0.844537	36.3812	2	4.91732	10	0.0307253
2	1	0	1	1	413.129	0.835051	0.834688	34.0497	2	4.94981	10	0.0284209
2	1	0	1	1	414.053	0.825814	0.825336	31.7539	2	4.98016	10	0.0262077
2	1	0	1	1	414.977	0.816577	0.816821	29.5897	2	5.00845	10	0.0241695
2	1	0	1	1	415.9	0.807342	0.807279	27.4875	2	5.03476	10	0.0221901
2	1	0	0	1	416.824	0.798105	0.798025	25.4833	2	5.05919	10	0.0203363
2	1	0	0	1	417.748	0.788868	0.788547	23.5438	2	5.0818	10	0.0185654
2	1	0	1	1	418.671	0.779631	0.779356	21.9198	2	5.10278	10	0.0170834
2	1	0	1	1	419.595	0.770396	0.770382	20.0995	2	5.12216	10	0.0154843
2	1	0	1	1	420.519	0.761159	0.760806	18.3708	2	5.13989	10	0.0139766
2	1	0	1	1	421.442	0.751922	0.752504	16.7239	2	5.15607	10	0.0125848
2	1	0	1	1	422.366	0.742685	0.742247	15.1535	2	5.17076	10	0.0112477
2	1	0	1	1	423.289	0.73345	0.733434	13.6565	2	5.18403	10	0.0100161
2	1	0	0	1	424.213	0.724213	0.724281	12.2431	2	5.19596	10	0.00886744
2	1	0	0	1	425.137	0.714976	0.715184	10.9114	2	5.20663	10	0.00780363
2	1	0	1	1	426.06	0.70574	0.705219	9.64612	2	5.2161	10	0.00680263
2	1	0	1	1	426.984	0.696504	0.69641	8.46926	2	5.22444	10	0.00589808
2	1	0	1	1	427.908	0.687267	0.68715	7.3758	2	5.23173	10	0.00506828
2	1	0	1	1	428.831	0.678029	0.678144	6.36079	2	5.23805	10	0.00431354
2	1	0	1	1	429.755	0.668794	0.66894	5.41937	2	5.24347	10	0.00362524
2	1	0	1	1	430.694	0.659404	0.659666	4.55389	2	5.24813	10	0.00300405
2	1	0	0	1	431.633	0.650013	0.649194	3.77984	2	5.25203	11	0.00245385
2	1	0	0	1	432.557	0.640776	0.640524	3.08699	2	5.25518	11	0.00197729
2	1	0	1	1	433.48	0.63154	0.631157	2.4684	2	5.25773	11	0.00155795
2	1	0	1	1	434.404	0.622304	0.62253	1.92807	2	5.25974	11	0.00120028
2	1	0	1	1	435.328	0.613067	0.613287	1.46531	2	5.26129	11	0.000898657
2	1	0	1	1	436.251	0.603829	0.604274	1.07804	2	5.26245	11	0.000651431
2	1	0	1	1	437.175	0.594594	0.594599	0.759704	2	5.26328	11	0.000451719
2	1	0	1	1	438.099	0.585358	0.585302	0.508265	2	5.26386	11	0.000297488
2	1	0	0	1	439.053	0.575813	0.575254	0.309607	2	5.26423	12	0.000178102
2	1	0	0	1	439.977	0.566576	0.566591	0.168368	2	5.26444	12	9.5396e-05
2	1	0	1	1	440.9	0.557339	0.557734	0.0669011	2	5.26454	12	3.7313e-05
2	0	0	1	1	441.824	0.548104	0.548231	-0.00463297	2	5.26456	12	-2.53994e-06
2	0	0	1	1	442.748	0.538867	0.53913	-0.0523239	2	5.26452	12	-2.82094e-05
2	0	0	1	1	443.671	0.52963	0.529593	-0.0849128	2	5.26445	12	-4.49692e-05
2	0	0	1	1	444.595	0.520394	0.520406	-0.107835	2	5.26436	12	-5.61178e-05
2	0	0	1	1	445.519	0.511158	0.511482	-0.123975	2	5.26424	12	-6.34112e-05
2	0	0	0	1	446.442	0.501921	0.501864	-0.136145	2	5.26412	12	-6.83262e-05
2	0	0	1	1	447.366	0.492683	0.492859	-0.145698	2	5.26398	12	-7.18088e-05
2	0	0	1	1	448.29	0.483448	0.483216	-0.152724	2	5.26384	12	-7.37986e-05
2	0	0	1	1	449.213	0.474212	0.47382	-0.159091	2	5.26369	12	-7.53804e-05
2	0	0	1	1	450.137	0.464975	0.46477	-0.164544	2	5.26353	12	-7.64749e-05
2	0	0	1	1	451.061	0.455737	0.45611	-0.168906	2	5.26337	12	-7.70396e-05
2	0	0	1	1	451.984	0.446502	0.446374	-0.172883	2	5.26321	12	-7.71705e-05
2	0	0	0	1	452.908	0.437265	0.43761	-0.177752	2	5.26304	12	-7.77862e-05
2	0	0	0	1	453.832	0.428029	0.428311	-0.183444	2	5.26287	12	-7.85713e-05
2	0	0	1	1	454.755	0.418791	0.418765	-0.189993	2	5.26269	12	-7.95626e-05
2	0	0	1	1	455.679	0.409556	0.40974	-0.196914	2	5.26251	12	-8.06834e-05
2	0	0	1	1	456.603	0.400319	0.400561	-0.206085	2	5.26232	12	-8.25496e-05
2	0	0	1	1	457.526	0.391083	0.391224	-0.216416	2	5.26212	12	-8.46671e-05
2	0	0	1	1	458.45	0.381845	0.381614	-0.226606	2	5.26191	12	-8.64762e-05
2	0	0	1	1	459.373	0.37261	0.372323	-0.238174	2	5.26169	12	-8.86776e-05
2	0	0	0	1	460.297	0.363373	0.363323	-0.251811	2	5.26146	12	-9.14887e-05
2	0	0	0	1	461.221	0.354137	0.353818	-0.267311	2	5.26122	12	-9.45793e-05
2	0	0	1	1	462.144	0.344899	0.34491	-0.286627	2	5.26096	12	-9.88605e-05
2	0	0	1	1	463.068	0.335664	0.33568	-0.306923	2	5.26068	12	-0.000103028
2	0	0	1	1	463.992	0.326427	0.326011	-0.32395	2	5.26039	12	-0.000105611
2	0	0	1	1	464.915	0.31719	0.317188	-0.336392	2	5.26008	12	-0.000106699
2	0	0	1	1	465.839	0.307953	0.307951	-0.343691	2	5.25976	12	-0.00010584
2	0	0	1	1	466.763	0.298718	0.299204	-0.346265	2	5.25944	12	-0.000103604
2	0	0	0	1	467.686	0.289481	0.289603	-0.34429	2	5.25912	12	-9.97075e-05
2	0	0	0	1	468.61	0.280244	0.280135	-0.339321	2	5.2588	12	-9.50557e-05
2	0	0	1	1	469.534	0.271007	0.270693	-0.330921	2	5.25849	12	-8.9578e-05
2	0	0	1	1	470.457	0.261772	0.261412	-0.319538	2	5.25819	12	-8.3531e-05
2	0	0	1	1	471.381	0.252535	0.252984	-0.305268	2	5.2579	12	-7.7228e-05
2	0	0	1	1	472.305	0.243298	0.243249	-0.289215	2	5.25762	12	-7.03512e-05
2	0	0	1	1	473.228	0.234061	0.233822	-0.272236	2	5.25736	12	-6.36546e-05
2	0	0	1	1	474.152	0.224826	0.224581	-0.255216	2	5.25711	12	-5.73166e-05
2	0	0	0	1	475.076	0.215589	0.215998	-0.238827	2	5.25689	12	-5.15863e-05
2	0	0	0	1	475.999	0.206352	0.206127	-0.223589	2	5.25667	12	-4.60878e-05
2	0	0	1	1	476.923	0.197116	0.196811	-0.209886	2	5.25647	12	-4.1308e-05
2	0	0	1	1	477.846	0.18788	0.187704	-0.197206	2	5.25628	12	-3.70164e-05
2	0	0	1	1	478.77	0.178643	0.177839	-0.18585	2	5.2561	12	-3.30514e-05
2	0	0	1	1	479.694	0.169406	0.169372	-0.175559	2	5.25593	12	-2.97348e-05
2	0	0	1	1	480.617	0.16017	0.160215	-0.166472	2	5.25578	12	-2.66713e-05
2	0	0	1	1	481.541	0.150934	0.150748	-0.158202	2	5.25562	12	-2.38487e-05
2	0	0	0	1	482.465	0.141697	0.142184	-0.150885	2	5.25548	12	-2.14534e-05
2	0	0	0	1	483.388	0.13246	0.132453	-0.144074	2	5.25534	12	-1.9083e-05
2	0	0	1	1	484.312	0.123224	0.123298	-0.13784	2	5.25521	12	-1.69953e-05
2	0	0	1	1	485.236	0.113988	0.113433	-0.132191	2	5.25509	12	-1.49948e-05
2	0	0	1	1	486.159	0.104751	0.104749	-0.12704	2	5.25497	12	-1.33073e-05
2	0	0	1	1	487.083	0.0955134	0.09553	-0.122329	2	5.25485	12	-1.1686e-05
2	0	0	1	1	488.007	0.0862777	0.0866005	-0.117869	2	5.25474	12	-1.02075e-05
2	0	0	1	1	488.93	0.0770421	0.0769858	-0.114011	2	5.25463	12	-8.77724e-06
2	0	0	0	1	489.854	0.0678047	0.067869	-0.110169	2	5.25453	12	-7.47708e-06
2	0	0	1	1	490.778	0.0585673	0.0584202	-0.106508	2	5.25443	12	-6.2222e-06
2	0	0	1	1	491.701	0.0493317	0.0499189	-0.103231	2	5.25433	12	-5.15319e-06
2	0	0	1	1	492.625	0.0400952	0.0401013	-0.100255	2	5.25424	12	-4.02036e-06
2	0	0	1	1	493.549	0.0308587	0.0307693	-0.0977406	2	5.25414	12	-3.00741e-06
2	0	0	1	1	494.472	0.0216213	0.0209219	-0.0952573	2	5.25406	12	-1.99296e-06
2	0	0	1	1	495.396	0.0123859	0.0124283	-0.0926434	2	5.25397	12	-1.1514e-06
2	0	0	0	1	496.32	0.00314917	0.00332105	-0.0901048	2	5.25388	12	-2.99242e-07
2	0	0	1	0	496.813	0.00160998	0.00125691	-0.0875809	3	5.25384	12	-1.10081e-07
2	0	0	1	0	497.736	0.0108456	0.0109499	-0.0802741	3	5.25376	12	-8.78998e-07
2	0	0	0	0	498.66	0.0200828	0.0196851	-0.0744991	3	5.25369	12	-1.46653e-06
2	0	0	0	0	499.584	0.0293193	0.0290256	-0.0696978	3	5.25363	12	-2.02302e-06
2	0	0	1	0	500.507	0.038556	0.038478	-0.0658995	3	5.25356	12	-2.53568e-06
2	0	0	1	0	501.431	0.0477914	0.047457	-0.0624392	3	5.2535	12	-2.96318e-06
2	0	0	1	0	502.355	0.0570288	0.0564654	-0.059463	3	5.25345	12	-3.3576e-06
2	0	0	1	0	503.278	0.0662653	0.065947	-0.0564394	3	5.2534	12	-3.722e-06
2	0	0	1	0	504.202	0.0755018	0.0756358	-0.0535759	3	5.25335	12	-4.05226e-06
2	0	0	1	0	505.125	0.0847374	0.0843591	-0.0510372	3	5.2533	12	-4.30546e-06
2	0	0	0	0	506.049	0.0939748	0.0937189	-0.0485809	3	5.25325	12	-4.55295e-06
2	0	0	1	0	506.973	0.103212	0.10308	-0.0465257	3	5.25321	12	-4.79585e-06
2	0	0	1	0	507.896	0.112448	0.112704	-0.0443856	3	5.25317	12	-5.00244e-06
2	0	0	1	0	508.82	0.121683	0.121564	-0.042486	3	5.25313	12	-5.16476e-06
2	0	0	1	0	509.744	0.130921	0.131175	-0.0403775	3	5.25309	12	-5.29652e-06
2	0	0	1	0	510.667	0.140158	0.139732	-0.0382904	3	5.25305	12	-5.35038e-06
2	0	0	1	0	511.591	0.149394	0.148852	-0.0363734	3	5.25302	12	-5.41423e-06
2	0	0	0	0	512.515	0.15863	0.158367	-0.0344774	3	5.25299	12	-5.46007e-06
2	0	0	0	0	513.438	0.167867	0.168246	-0.0326162	3	5.25296	12	-5.48756e-06
2	0	0	1	0	514.362	0.177104	0.177254	-0.0306595	3	5.25293	12	-5.43452e-06
2	0	0	1	0	515.286	0.18634	0.186313	-0.0286359	3	5.2529	12	-5.33524e-06
2	0	0	1	0	516.209	0.195576	0.19576	-0.0264096	3	5.25288	12	-5.16995e-06
2	0	0	1	0	517.133	0.204813	0.20448	-0.0240126	3	5.25286	12	-4.9101e-06
2	0	0	1	0	518.057	0.21405	0.214543	-0.0215513	3	5.25284	12	-4.62368e-06
2	0	0	1	0	518.98	0.223286	0.223055	-0.0188134	3	5.25282	12	-4.19642e-06
2	1	0	0	0	519.904	0.232522	0.232296	-0.0155187	3	5.2528	12	-3.60493e-06
2	0	0	0	0	520.828	0.241759	0.241722	-0.0117369	3	5.25279	12	-2.83707e-06
2	0	0	1	0	521.751	0.250996	0.2512	-0.00755112	3	5.25278	12	-1.89684e-06
2	0	0	1	0	522.675	0.260232	0.260435	-0.00279474	3	5.25278	12	-7.27846e-07
2	0	0	1	0	523.599	0.269468	0.269146	0.00284339	3	5.25278	12	7.65285e-07
2	1	0	1	0	524.522	0.278705	0.27882	0.00943924	3	5.25279	12	2.63185e-06
2	1	0	1	0	525.446	0.287942	0.287208	0.0173971	3	5.2528	12	4.9966e-06
2	1	0	1	0	526.369	0.297178	0.296924	0.0270275	3	5.25282	12	8.02512e-06
2	1	0	0	0	527.293	0.306415	0.306251	0.0389524	3	5.25285	12	1.19292e-05
2	1	0	0	0	528.217	0.315651	0.315734	0.0541133	3	5.2529	12	1.70854e-05
2	1	0	1	0	529.14	0.324888	0.324759	0.073026	3	5.25296	12	2.37158e-05
2	1	0	1	0	530.064	0.334124	0.334167	0.0965369	3	5.25304	12	3.22595e-05
2	1	0	1	0	530.988	0.343361	0.343842	0.124622	3	5.25314	12	4.28502e-05
2	1	0	1	0	531.911	0.352597	0.35201	0.157173	3	5.25327	12	5.53265e-05
2	1	0	1	0	532.835	0.361834	0.361341	0.1939	3	5.25344	12	7.00641e-05
2	1	0	1	0	533.759	0.371069	0.371406	0.233552	3	5.25364	12	8.67424e-05
2	1	0	0	0	534.682	0.380307	0.380289	0.275027	3	5.25387	12	0.00010459
2	1	0	0	0	535.606	0.389543	0.389437	0.31724	3	5.25415	12	0.000123545
2	1	0	1	0	536.53	0.39878	0.39904	0.359794	3	5.25447	12	0.000143572
2	1	0	1	0	537.453	0.408015	0.407513	0.402023	3	5.25482	12	0.00016383
2	1	0	1	0	538.377	0.417253	0.417479	0.443644	3	5.25522	12	0.000185212
2	1	0	1	0	539.301	0.426489	0.42665	0.483987	3	5.25565	12	0.000206493
2	1	0	1	0	540.224	0.435726	0.436012	0.520561	3	5.25612	12	0.000226971
2	1	0	1	0	541.148	0.444961	0.445127	0.552162	3	5.25661	12	0.000245783
2	1	0	0	0	542.072	0.454199	0.454062	0.577173	3	5.25714	12	0.000262073
2	1	0	0	0	542.995	0.463435	0.463046	0.596729	3	5.25769	12	0.000276313
2	1	0	1	0	543.919	0.472672	0.472214	0.610142	3	5.25825	12	0.000288118
2	1	0	1	0	544.842	0.481907	0.482821	0.616033	3	5.25882	12	0.000297434
2	1	0	1	0	545.766	0.491145	0.491532	0.615527	3	5.2594	12	0.000302551
2	1	0	1	0	546.69	0.500381	0.500401	0.609696	3	5.25997	12	0.000305092
2	1	0	1	0	547.613	0.509618	0.509973	0.599335	3	5.26053	12	0.000305645
2	1	0	1	0	548.537	0.518853	0.5191	0.585565	3	5.26108	12	0.000303967
2	1	0	0	0	549.461	0.528091	0.528023	0.570304	3	5.26162	12	0.000301134
2	1	0	1	0	550.384	0.537328	0.537501	0.555052	3	5.26215	12	0.000298341
2	1	0	1	0	551.308	0.546564	0.54751	0.54166	3	5.26266	12	0.000296564
2	1	0	1	0	552.232	0.5558	0.555367	0.532711	3	5.26316	12	0.00029585
2	1	0	1	0	553.155	0.565037	0.564738	0.531569	3	5.26365	12	0.000300197
2	1	0	1	0	554.079	0.574274	0.57386	0.542778	3	5.26415	12	0.000311478
2	1	0	1	0	555.003	0.58351	0.583417	0.577268	3	5.26468	12	0.000336788
2	1	0	0	0	555.926	0.592746	0.592672	0.646476	3	5.26524	12	0.000383148
2	1	0	0	0	556.85	0.601983	0.60207	0.764125	3	5.2659	12	0.000460057
2	1	0	1	0	557.774	0.61122	0.611082	0.943478	3	5.26669	12	0.000576543
2	1	0	1	0	558.697	0.620456	0.620417	1.1936	3	5.26768	11	0.00074053
2	1	0	1	0	559.621	0.629692	0.629447	1.52761	3	5.26894	11	0.00096155
2	1	0	1	0	560.545	0.638929	0.63911	1.9436	3	5.27055	11	0.00124218
2	1	0	1	0	561.468	0.648166	0.648154	2.44524	3	5.27258	11	0.00158489
2	1	0	1	0	562.392	0.657402	0.657656	3.03346	3	5.27512	11	0.00199498
2	1	0	0	0	563.316	0.666638	0.667209	3.71273	3	5.27824	11	0.00247717
2	1	0	0	0	564.239	0.675875	0.676337	4.47981	3	5.28203	11	0.00302986
2	1	0	1	0	565.163	0.685112	0.68536	5.33793	3	5.28657	11	0.00365841
2	1	0	1	0	566.086	0.694347	0.694392	6.28075	3	5.29195	11	0.0043613
2	1	0	1	0	567.01	0.703584	0.703217	7.30345	3	5.29823	11	0.00513591
2	1	0	1	0	567.934	0.712821	0.712255	8.41674	3	5.30551	11	0.00599486
2	1	0	1	0	568.857	0.722058	0.722006	9.61944	3	5.31385	11	0.00694529
2	1	0	1	0	569.781	0.731293	0.731415	10.9046	3	5.32334	11	0.00797577
2	1	0	0	0	570.705	0.74053	0.740715	12.3013	3	5.33407	10	0.00911172
2	1	0	0	0	571.628	0.749767	0.75027	13.7929	3	5.34615	10	0.0103484
2	1	0	1	0	572.552	0.759004	0.758862	15.366	3	5.35963	10	0.0116606
2	1	0	1	0	573.476	0.768239	0.768268	17.018	3	5.37461	10	0.0130744
2	1	0	1	0	574.399	0.777476	0.777086	18.735	3	5.39114	10	0.0145587
2	1	0	1	0	575.323	0.786713	0.786825	20.5401	3	5.4093	10	0.0161615
2	1	0	1	0	576.247	0.79595	0.796371	22.4492	3	5.42917	10	0.0178779
2	1	0	1	0	577.17	0.805185	0.805835	24.4309	3	5.45085	10	0.0196873
2	1	0	0	0	578.094	0.814422	0.814566	26.4789	3	5.47439	10	0.0215688
2	1	0	0	0	579.018	0.823659	0.822429	28.6072	3	5.49985	10	0.0235274
2	1	0	1	0	579.941	0.832896	0.832437	30.8132	3	5.52733	10	0.02565
2	1	0	1	0	580.865	0.842131	0.841983	33.1053	3	5.55687	10	0.0278741
2	1	0	1	0	581.789	0.851369	0.851374	35.4459	3	5.58856	10	0.0301777
2	1	0	1	0	582.712	0.860605	0.860416	37.8575	3	5.62244	10	0.0325732
2	1	0	1	0	583.636	0.869842	0.869305	40.338	3	5.65859	10	0.035066
2	1	0	1	0	584.559	0.879077	0.878672	42.914	3	5.69707	10	0.0377074
2	1	0	0	0	585.483	0.888315	0.888326	45.4573	3	5.73792	10	0.0403809
2	1	0	0	0	586.407	0.897551	0.897992	48.1978	3	5.7812	10	0.0432812
2	1	0	1	0	587.33	0.906788	0.907196	50.9013	3	5.827	10	0.0461775
2	1	0	1	0	588.254	0.916023	0.915636	53.6415	3	5.87533	10	0.0491161
2	1	0	1	0	589.178	0.925261	0.924951	56.4541	3	5.92624	10	0.0522173
2	1	0	1	0	590.101	0.934498	0.934515	59.3433	3	5.97977	10	0.0554572
2	1	0	1	0	591.025	0.943734	0.943602	62.2362	3	6.03594	10	0.0587262
2	1	0	0	0	591.949	0.95297	0.953203	65.1354	3	6.09479	10	0.0620872
2	1	0	0	0	592.872	0.962207	0.961943	68.131	3	6.15636	10	0.0655381
2	1	0	1	0	593.796	0.971444	0.971251	71.0746	3	6.2207	10	0.0690313
2	1	0	1	0	594.72	0.980679	0.979992	74.0238	3	6.28776	10	0.0725427
2	1	0	1	0	595.643	0.989916	0.990074	77.0567	3	6.35759	10	0.0762918
2	1	0	1	0	596.521	0.998691	0.998964	79.7402	3	6.4264	10	0.0796576
2	1	0	0	0	597.122	0.99515	0.994824	78.4083	3	6.47405	10	0.0780025
2	1	0	1	0	598.045	0.985913	0.986206	74.981	3	6.54481	10	0.0739467
2	1	0	1	0	598.969	0.976678	0.976936	71.7414	3	6.6125	10	0.0700868
2	1	0	1	0	599.893	0.967441	0.967801	69.0451	3	6.6773	10	0.0668219
2	1	0	1	0	600.816	0.958204	0.958003	66.0733	3	6.73974	10	0.0632984
2	1	0	1	0	601.74	0.948967	0.948244	63.8221	3	6.79957	10	0.0605189
2	1	0	1	0	602.663	0.939732	0.939937	60.896	3	6.85711	10	0.0572384
2	1	0	0	0	603.587	0.930495	0.929864	57.8816	3	6.91189	10	0.053822
2	1	0	0	0	604.511	0.921258	0.921256	54.9124	3	6.96393	10	0.0505883
2	1	0	1	0	605.434	0.912021	0.911746	52.0803	3	7.01329	10	0.047484
2	1	0	1	0	606.358	0.902786	0.902706	49.2654	3	7.06006	10	0.0444721
2	1	0	1	0	607.282	0.893549	0.893464	46.5952	3	7.10427	10	0.0416311
2	1	0	1	0	608.205	0.884312	0.884522	44.0137	3	7.14609	10	0.0389311
2	1	0	1	0	609.129	0.875075	0.875099	41.4649	3	7.18551	10	0.0362859
2	1	0	1	0	610.053	0.86584	0.865558	38.9428	3	7.22259	10	0.0337072
2	1	0	0	0	610.976	0.856603	0.856474	36.4768	3	7.25736	10	0.0312415
2	1	0	1	0	611.9	0.847365	0.846827	34.6373	3	7.29032	10	0.0293318
2	1	0	1	0	612.824	0.83813	0.837767	32.3078	3	7.32121	10	0.0270664
2	1	0	1	0	613.747	0.828894	0.829369	30.0885	3	7.34998	10	0.0249545
2	1	0	1	0	614.671	0.819657	0.819902	27.9333	3	7.37673	10	0.0229025
2	1	0	1	0	615.595	0.810419	0.810003	25.8771	3	7.40156	10	0.0209605
2	1	0	1	0	616.518	0.801184	0.801107	23.8986	3	7.4245	10	0.0191453
2	1	0	1	0	617.442	0.791948	0.791949	21.9754	3	7.44565	10	0.0174034
2	1	0	0	0	618.366	0.78271	0.782466	20.1471	3	7.46507	10	0.0157644
2	1	0	1	0	619.289	0.773473	0.773811	18.4083	3	7.48284	10	0.0142446
2	1	0	1	0	620.213	0.764238	0.765177	16.7714	3	7.49905	10	0.0128331
2	1	0	1	0	621.137	0.755001	0.755008	15.2059	3	7.51379	10	0.0114806
2	1	0	1	0	622.06	0.745764	0.745653	13.7182	3	7.52711	10	0.010229
2	1	0	1	0	622.984	0.736527	0.736346	12.3202	3	7.53911	10	0.00907197
2	1	0	1	0	623.907	0.727292	0.726966	11.0052	3	7.54985	10	0.0080004
2	1	0	0	0	624.831	0.718055	0.718586	9.77693	3	7.55942	10	0.00702556
2	1	0	0	0	625.755	0.708818	0.708734	8.6279	3	7.5679	10	0.00611488
2	1	0	1	0	626.678	0.699581	0.699496	7.55658	3	7.57535	10	0.0052858
2	1	0	1	0	627.602	0.690346	0.690435	6.56554	3	7.58185	10	0.00453308
2	1	0	1	0	628.526	0.681109	0.681043	5.665	3	7.58748	10	0.00385811
2	1	0	1	0	629.449	0.671872	0.67179	4.8371	3	7.59231	10	0.00324951
2	1	0	1	0	630.404	0.662327	0.662633	4.07402	3	7.59655	11	0.00269958
2	1	0	1	0	631.327	0.653092	0.652973	3.39503	3	7.59998	11	0.00221686
2	1	0	0	0	632.251	0.643855	0.643752	2.79118	3	7.60282	11	0.00179683
2	1	0	0	0	633.175	0.634618	0.634373	2.25352	3	7.60513	11	0.00142957
2	1	0	1	0	634.098	0.625381	0.62531	1.77926	3	7.60698	11	0.00111259
2	1	0	1	0	635.022	0.616146	0.616342	1.37333	3	7.60842	11	0.000846443
2	1	0	1	0	635.946	0.606909	0.607179	1.03076	3	7.60952	11	0.000625854
2	1	0	1	0	636.869	0.597672	0.597715	0.74553	3	7.61032	11	0.000445614
2	1	0	1	0	637.793	0.588435	0.588411	0.514627	3	7.61089	11	0.000302812
2	1	0	1	0	638.747	0.578892	0.578538	0.329744	3	7.61129	12	0.00019077
2	1	0	0	0	639.671	0.569655	0.569243	0.192977	3	7.61152	12	0.000109851
2	1	0	0	0	640.595	0.560419	0.560746	0.0921779	3	7.61164	12	5.16884e-05
2	1	0	1	0	641.518	0.551181	0.551378	0.019634	3	7.61168	12	1.08258e-05
2	0	0	1	0	642.442	0.541946	0.541293	-0.0319088	3	7.61167	12	-1.7272e-05
2	0	0	1	0	643.366	0.532709	0.533064	-0.0674914	3	7.61162	12	-3.59773e-05
2	0	0	1	0	644.289	0.523472	0.523503	-0.0922577	3	7.61154	12	-4.82972e-05
2	0	0	1	0	645.213	0.514235	0.514786	-0.109752	3	7.61144	12	-5.6499e-05
2	0	0	1	0	646.137	0.505	0.504892	-0.12267	3	7.61133	12	-6.19353e-05
2	0	0	0	0	647.06	0.495763	0.495932	-0.131872	3	7.6112	12	-6.53995e-05
2	0	0	0	0	647.984	0.486526	0.485897	-0.139217	3	7.61107	12	-6.76451e-05
2	0	0	1	0	648.908	0.477289	0.47728	-0.145489	3	7.61094	12	-6.94388e-05
2	0	0	1	0	649.831	0.468054	0.468606	-0.151405	3	7.6108	12	-7.09492e-05
2	0	0	1	0	650.755	0.458817	0.459004	-0.156004	3	7.61065	12	-7.16063e-05
2	0	0	1	0	651.679	0.44958	0.449601	-0.160333	3	7.6105	12	-7.20858e-05
2	0	0	1	0	652.602	0.440343	0.440276	-0.165325	3	7.61034	12	-7.27886e-05
2	0	0	1	0	653.526	0.431108	0.430722	-0.170405	3	7.61018	12	-7.33971e-05
2	0	0	0	0	654.45	0.421871	0.421742	-0.176078	3	7.61002	12	-7.42592e-05
2	0	0	0	0	655.373	0.412634	0.41327	-0.183121	3	7.60985	12	-7.56786e-05
2	0	0	1	0	656.297	0.403397	0.403924	-0.190863	3	7.60967	12	-7.70942e-05
2	0	0	1	0	657.22	0.394162	0.39441	-0.199904	3	7.60949	12	-7.88442e-05
2	0	0	1	0	658.144	0.384925	0.384648	-0.210425	3	7.6093	12	-8.09395e-05
2	0	0	1	0	659.068	0.375688	0.375653	-0.220696	3	7.60909	12	-8.2905e-05
2	0	0	1	0	659.991	0.366451	0.36628	-0.232014	3	7.60888	12	-8.4982e-05
2	0	0	1	0	660.915	0.357216	0.357485	-0.244617	3	7.60866	12	-8.74467e-05
2	0	0	0	0	661.839	0.347979	0.347639	-0.259521	3	7.60842	12	-9.02196e-05
2	0	0	0	0	662.762	0.338742	0.338116	-0.27617	3	7.60817	12	-9.33774e-05
2	0	0	1	0	663.686	0.329506	0.329579	-0.291257	3	7.60791	12	-9.5992e-05
2	0	0	1	0	664.61	0.32027	0.320263	-0.303685	3	7.60763	12	-9.72591e-05
2	0	0	1	0	665.533	0.311033	0.311023	-0.311858	3	7.60734	12	-9.69952e-05
2	0	0	1	0	666.457	0.301796	0.301543	-0.315736	3	7.60705	12	-9.5208e-05
2	0	0	1	0	667.381	0.292559	0.293189	-0.315994	3	7.60675	12	-9.2646e-05
2	0	0	1	0	668.304	0.283324	0.283312	-0.31312	3	7.60646	12	-8.87107e-05
2	0	0	0	0	669.228	0.274087	0.273673	-0.307087	3	7.60617	12	-8.40415e-05
2	0	0	0	0	670.152	0.26485	0.264841	-0.298469	3	7.60589	12	-7.90468e-05
2	0	0	1	0	671.075	0.255614	0.255462	-0.287234	3	7.60562	12	-7.33774e-05
2	0	0	1	0	671.999	0.246378	0.246264	-0.273776	3	7.60536	12	-6.74212e-05
2	0	0	1	0	672.923	0.237141	0.237469	-0.259024	3	7.60511	12	-6.15103e-05
2	0	0	1	0	673.846	0.227903	0.227974	-0.243639	3	7.60488	12	-5.55436e-05
2	0	0	1	0	674.77	0.218668	0.218178	-0.228859	3	7.60466	12	-4.9932e-05
2	0	0	1	0	675.693	0.209432	0.208873	-0.214588	3	7.60445	12	-4.48217e-05
2	0	0	0	0	676.617	0.200195	0.200412	-0.201615	3	7.60426	12	-4.0406e-05
2	0	0	1	0	677.541	0.190957	0.190541	-0.189861	3	7.60408	12	-3.61763e-05
2	0	0	1	0	678.464	0.181722	0.181771	-0.179146	3	7.60391	12	-3.25635e-05
2	0	0	1	0	679.388	0.172485	0.172653	-0.169331	3	7.60375	12	-2.92355e-05
2	0	0	1	0	680.312	0.163249	0.163069	-0.16066	3	7.60359	12	-2.61986e-05
2	0	0	1	0	681.235	0.154011	0.15416	-0.152871	3	7.60345	12	-2.35667e-05
2	0	0	1	0	682.159	0.144776	0.144888	-0.145823	3	7.60331	12	-2.11281e-05
2	0	0	0	0	683.083	0.135539	0.136088	-0.139303	3	7.60318	12	-1.89574e-05
2	0	0	0	0	684.006	0.126303	0.126074	-0.133141	3	7.60305	12	-1.67855e-05
2	0	0	1	0	684.93	0.117065	0.117469	-0.127597	3	7.60293	12	-1.49887e-05
2	0	0	1	0	685.854	0.10783	0.107243	-0.122543	3	7.60281	12	-1.31418e-05
2	0	0	1	0	686.777	0.0985931	0.098153	-0.117957	3	7.6027	12	-1.15778e-05
2	0	0	1	0	687.701	0.0893566	0.0898335	-0.113843	3	7.60259	12	-1.02269e-05
2	0	0	1	0	688.625	0.0801194	0.0803699	-0.110032	3	7.60249	12	-8.84323e-06
2	0	0	1	0	689.548	0.070884	0.0708387	-0.106431	3	7.60239	12	-7.53944e-06
2	0	0	0	0	690.472	0.0616471	0.0613378	-0.103216	3	7.60229	12	-6.33103e-06
2	0	0	0	0	691.396	0.0524106	0.0523306	-0.0998844	3	7.6022	12	-5.227e-06
2	0	0	1	0	692.319	0.0431736	0.0431544	-0.0967166	3	7.60211	12	-4.17374e-06
2	0	0	1	0	693.243	0.033938	0.0339633	-0.0938449	3	7.60202	12	-3.18728e-06
2	0	0	1	0	694.167	0.024701	0.0255191	-0.0911392	3	7.60193	12	-2.32579e-06
2	0	0	1	0	695.09	0.0154645	0.0147905	-0.0888648	3	7.60185	12	-1.31435e-06
2	0	0	1	0	696.014	0.00622756	0.00557098	-0.0865724	3	7.60177	12	-4.82293e-07
2	0	0	0	0	696.621	-8.36053e-05	0.000219945	-0.0890439	3	7.60171	12	-1.95848e-08