File: Data_1mg/2023_01_31 NiNx 1 mg 307ref set2_01_CV_C01.mpt
EC-Lab ASCII FILE
Nb header lines : 57

Cyclic Voltammetry

Run on channel : 1 (SN 21648)
User :
CE vs. WE compliance from -10 V to 10 V
Electrode connection : standard
Potential control : Ewe
Ewe ctrl range : min = -2.50 V, max = 2.50 V
Safety Limits :
	Do not start on E overload
Acquisition started on : 01/31/2023 10:44:48.640
Loaded Setting File :  C:\Users\grupogalan\Documents\EC-Lab\Data\Scott\_cyclic_pause_tafel.mps
Saved on :
	File : 2023_01_31 NiNx 1 mg 307ref set2_01_CV_C01.mpr
	Directory : C:\Users\grupogalan\Documents\EC-Lab\Data\Scott\
	Host : 169.254.104.159
Device : VSP (SN 1176)
Address : USB
EC-Lab for windows v11.46 (software)
Internet server v11.40 (firmware)
Command interpretor v11.40 (firmware)
Electrode material :
Initial state :
Electrolyte :
Comments :
Electrode surface area : 0.001 cm²
Characteristic mass : 0.001 g
Equivalent Weight : 0.000 g/eq.
Density : 0.000 g/cm3
Volume (V) : 0.001 cm³
Cycle Definition : Charge/Discharge alternance
Ei (V)              0.000
vs.                 Eoc
dE/dt               10.000
dE/dt unit          mV/s
E1 (V)              1.000
vs.                 Ref
Step percent        50
N                   10
E range min (V)     -2.500
E range max (V)     2.500
I Range             Auto
I Range min         Unset
I Range max         Unset
I Range init        Unset
Bandwidth           5
E2 (V)              0.000
vs.                 Ref
nc cycles           2
Reverse Scan        0
Ef (V)              0.000
vs.                 Eoc

mode	ox/red	error	control changes	counter inc.	time/s	control/V	Ewe/V	<I>/mA	cycle number	(Q-Qo)/C	I Range	P/W
2	0	0	0	0	0.000000000000000E+000	-0.215604	-0.215578	-0.00135832	1	0.0000000E+000	14	2.92824e-07
2	0	0	1	0	0.9552	-0.206054	-0.206248	0.000683236	1	5.82446e-07	14	-1.40916e-07
2	0	0	1	0	1.9552	-0.196054	-0.19609	0.000729597	1	1.27503e-06	14	-1.43067e-07
2	0	0	1	0	2.9552	-0.186054	-0.18609	0.000760908	1	2.02693e-06	14	-1.41597e-07
2	0	0	1	0	3.9552	-0.176054	-0.175968	0.000817852	1	2.83318e-06	14	-1.43916e-07
2	0	0	1	0	4.9552	-0.166053	-0.166175	0.000866796	1	3.69056e-06	14	-1.4404e-07
2	0	0	1	0	5.9552	-0.156053	-0.156005	0.000948194	1	4.61305e-06	14	-1.47923e-07
2	0	0	1	0	6.9552	-0.146053	-0.145975	0.00103293	1	5.60927e-06	14	-1.50782e-07
2	0	0	1	0	7.9552	-0.136053	-0.136065	0.00113414	1	6.70033e-06	14	-1.54318e-07
2	0	0	1	0	8.9552	-0.126053	-0.125863	0.00129316	1	7.92627e-06	14	-1.62762e-07
2	0	0	1	0	9.9552	-0.116053	-0.116349	0.00153676	1	9.35499e-06	14	-1.78801e-07
2	0	0	1	0	10.9552	-0.106052	-0.105924	0.00183859	1	1.10531e-05	14	-1.94752e-07
2	0	0	0	0	11.9554	-0.0960521	-0.096365	0.00206134	1	1.30212e-05	14	-1.98641e-07
2	1	0	0	0	12.9554	-0.0860519	-0.0860472	0.0022493	1	1.5195e-05	14	-1.93546e-07
2	1	0	0	0	13.9554	-0.0760517	-0.0762735	0.00242153	1	1.75457e-05	14	-1.84698e-07
2	1	0	0	0	14.9554	-0.0660516	-0.0660756	0.00261447	1	2.00747e-05	14	-1.72753e-07
2	1	0	0	0	15.9554	-0.0560514	-0.0558978	0.00278354	1	2.27857e-05	14	-1.55594e-07
2	1	0	0	0	16.9554	-0.0460512	-0.0463299	0.00291953	1	2.56609e-05	14	-1.35261e-07
2	1	0	0	0	17.9554	-0.036051	-0.0358763	0.00300898	1	2.8633e-05	14	-1.07951e-07
2	1	0	0	0	18.9554	-0.0260508	-0.0262236	0.00303563	1	3.1672e-05	14	-7.9605e-08
2	1	0	0	0	19.9554	-0.0160506	-0.0158081	0.00305481	1	3.47365e-05	14	-4.82908e-08
2	1	0	0	0	20.9554	-0.00605043	-0.00620633	0.00305842	1	3.78085e-05	14	-1.89816e-08
2	1	0	1	0	21.9556	0.00394976	0.00435015	0.00308081	1	4.08893e-05	14	1.3402e-08
2	1	0	1	0	22.9556	0.0139499	0.0143794	0.00307573	1	4.39686e-05	14	4.42273e-08
2	1	0	1	0	23.9556	0.0239501	0.0241648	0.00305179	1	4.70411e-05	14	7.37457e-08
2	0	0	1	0	24.9556	0.0339503	0.0344115	0.00305689	1	5.0111e-05	14	1.05192e-07
2	0	0	1	0	25.9556	0.0439505	0.0437693	0.00306538	1	5.31847e-05	14	1.34169e-07
2	0	0	1	0	26.9556	0.0539507	0.0544987	0.00309778	1	5.62708e-05	14	1.68825e-07
2	0	0	1	0	27.9556	0.0639509	0.0636041	0.00310058	1	5.93787e-05	14	1.9721e-07
2	0	0	1	0	28.9556	0.0739511	0.0742699	0.00314325	1	6.25155e-05	14	2.33449e-07
2	0	0	1	0	29.9556	0.0839513	0.0839947	0.00319834	1	6.56984e-05	14	2.68643e-07
2	0	0	1	0	30.9556	0.0939514	0.0939901	0.00326169	1	6.89344e-05	14	3.06567e-07
2	0	0	1	0	31.9556	0.103952	0.104289	0.00331607	1	7.22333e-05	14	3.45829e-07
2	1	0	0	0	32.9858	0.114252	0.114122	0.00330578	1	7.59162e-05	13	3.77262e-07
2	1	0	0	0	33.9858	0.124252	0.124432	0.00339938	1	7.93748e-05	13	4.22993e-07
2	1	0	0	0	34.9858	0.134252	0.134369	0.00348414	1	8.29202e-05	13	4.6816e-07
2	1	0	0	0	35.9858	0.144252	0.144428	0.00354839	1	8.6552e-05	13	5.12487e-07
2	1	0	0	0	36.9858	0.154253	0.154481	0.00364552	1	9.02728e-05	13	5.63162e-07
2	1	0	0	0	37.9858	0.164253	0.164044	0.00373841	1	9.4091e-05	13	6.13266e-07
2	1	0	0	0	38.9858	0.174253	0.17464	0.00386034	1	9.80186e-05	13	6.7417e-07
2	1	0	0	0	39.9858	0.184253	0.18469	0.00399567	1	0.000102063	13	7.37958e-07
2	1	0	0	0	40.9858	0.194253	0.194504	0.00412399	1	0.000106227	13	8.02131e-07
2	1	0	0	0	41.9858	0.204253	0.204538	0.00423731	1	0.000110516	13	8.66692e-07
2	1	0	1	0	42.986	0.214254	0.214407	0.00442605	1	0.000114947	13	9.48978e-07
2	1	0	1	0	43.986	0.224254	0.224672	0.00456823	1	0.000119532	13	1.02635e-06
2	1	0	1	0	44.986	0.234254	0.234312	0.00474967	1	0.000124289	13	1.11291e-06
2	1	0	1	0	45.986	0.244254	0.24456	0.00492172	1	0.00012922	13	1.20365e-06
2	1	0	1	0	46.986	0.254254	0.254431	0.00513752	1	0.000134335	13	1.30714e-06
2	1	0	1	0	47.986	0.264255	0.264278	0.00532291	1	0.000139643	13	1.40673e-06
2	1	0	1	0	48.986	0.274255	0.274345	0.00555608	1	0.000145155	13	1.52428e-06
2	1	0	1	0	49.986	0.284255	0.284162	0.00579378	1	0.000150888	13	1.64637e-06
2	1	0	1	0	50.986	0.294255	0.294846	0.00604405	1	0.000156875	13	1.78206e-06
2	1	0	1	0	51.986	0.304255	0.304411	0.00630204	1	0.000163123	13	1.91841e-06
2	1	0	1	0	52.986	0.314256	0.314694	0.00662902	1	0.000169661	13	2.08611e-06
2	1	0	0	0	53.9862	0.324256	0.324245	0.00692196	1	0.000176515	13	2.24441e-06
2	1	0	0	0	54.9862	0.334256	0.334455	0.00728434	1	0.000183686	13	2.43629e-06
2	1	0	0	0	55.9862	0.344256	0.344475	0.00765708	1	0.000191215	13	2.63767e-06
2	1	0	0	0	56.9862	0.354256	0.354371	0.00805317	1	0.000199132	13	2.85381e-06
2	1	0	0	0	57.9862	0.364256	0.364572	0.00848702	1	0.000207465	13	3.09413e-06
2	1	0	0	0	58.9862	0.374257	0.374265	0.0089361	1	0.000216235	13	3.34447e-06
2	1	0	0	0	59.9862	0.384257	0.384586	0.00942533	1	0.000225474	13	3.62485e-06
2	1	0	0	0	60.9862	0.394257	0.394263	0.0099603	1	0.00023522	13	3.92698e-06
2	1	0	0	0	61.9862	0.404257	0.40465	0.0105233	1	0.000245527	13	4.25825e-06
2	1	0	0	0	62.9862	0.414257	0.414551	0.0111373	1	0.000256412	13	4.61696e-06
2	1	0	1	0	63.9864	0.424258	0.424391	0.0117696	1	0.000267915	13	4.9949e-06
2	1	0	1	0	64.9864	0.434258	0.434631	0.0125573	1	0.000280125	13	5.45779e-06
2	1	0	1	0	65.9864	0.444258	0.444434	0.0136648	1	0.000293271	13	6.07311e-06
2	1	0	1	0	66.9864	0.454258	0.454491	0.0149055	1	0.000307669	13	6.77439e-06
2	1	0	1	0	67.9864	0.464258	0.464194	0.0155722	1	0.000323015	13	7.22851e-06
2	1	0	1	0	68.9864	0.474258	0.474593	0.0163559	1	0.00033903	13	7.7624e-06
2	1	0	1	0	69.9864	0.484259	0.484266	0.0173821	1	0.000355986	13	8.41755e-06
2	1	0	1	0	70.9864	0.494259	0.494482	0.0186786	1	0.000374098	13	9.23622e-06
2	1	0	1	0	71.9864	0.504259	0.504408	0.0199242	1	0.000393501	13	1.00499e-05
2	1	0	1	0	72.9864	0.514259	0.51434	0.0212251	1	0.000414186	13	1.09169e-05
2	1	0	1	0	73.9864	0.524259	0.524648	0.0225512	1	0.00043617	13	1.18315e-05
2	1	0	0	0	74.9866	0.53426	0.534299	0.0238874	1	0.000459484	13	1.2763e-05
2	1	0	0	0	75.9866	0.54426	0.544707	0.0252432	1	0.000484131	13	1.37501e-05
2	1	0	0	0	76.9866	0.55426	0.554427	0.026678	1	0.000510156	13	1.4791e-05
2	1	0	0	0	77.9866	0.56426	0.564641	0.0281863	1	0.000537652	13	1.59152e-05
2	1	0	0	0	78.9866	0.57426	0.57425	0.0298301	1	0.000566729	13	1.713e-05
2	1	0	0	0	79.9866	0.584261	0.584309	0.0315708	1	0.000597499	13	1.84471e-05
2	1	0	0	0	80.9866	0.594261	0.594412	0.0335095	1	0.000630108	13	1.99185e-05
2	1	0	0	0	81.9866	0.604261	0.604363	0.0356135	1	0.000664723	13	2.15235e-05
2	1	0	0	0	82.9866	0.614261	0.614544	0.0379722	1	0.000701567	13	2.33355e-05
2	1	0	0	0	83.9866	0.624261	0.624355	0.0407236	1	0.000740957	13	2.5426e-05
2	1	0	1	0	84.9868	0.634262	0.634551	0.0439643	1	0.000783343	13	2.78976e-05
2	1	0	1	0	85.9868	0.644262	0.644599	0.0480302	1	0.000829362	13	3.09602e-05
2	1	0	1	0	86.9868	0.654262	0.654527	0.0531436	1	0.000879967	13	3.47839e-05
2	1	0	1	0	87.9868	0.664262	0.664529	0.059682	1	0.000936377	13	3.96604e-05
2	1	0	1	0	88.9868	0.674262	0.674535	0.0679782	1	0.00100016	13	4.58537e-05
2	1	0	1	0	89.9868	0.684262	0.684416	0.0783711	1	0.00107327	13	5.36384e-05
2	1	0	1	0	90.9868	0.694263	0.694564	0.0913189	1	0.001158	13	6.34268e-05
2	1	0	1	0	92.0168	0.704563	0.704457	0.107097	1	0.00126033	12	7.54452e-05
2	1	0	1	0	93.0168	0.714563	0.714858	0.125443	1	0.00137681	12	8.96737e-05
2	1	0	1	0	94.0168	0.724563	0.724632	0.146245	1	0.00151296	12	0.000105974
2	1	0	1	0	95.0168	0.734563	0.735036	0.169601	1	0.00167116	12	0.000124663
2	1	0	0	0	96.017	0.744564	0.744396	0.195582	1	0.00185405	12	0.00014559
2	1	0	0	0	97.017	0.754564	0.754847	0.222461	1	0.00206406	12	0.000167924
2	1	0	0	0	98.017	0.764564	0.764626	0.252531	1	0.0023019	12	0.000193091
2	1	0	0	0	99.017	0.774564	0.774536	0.282264	1	0.00256956	12	0.000218624
2	1	0	0	0	100.017	0.784564	0.784783	0.313402	1	0.0028675	12	0.000245952
2	1	0	0	0	101.017	0.794564	0.794878	0.34557	1	0.00319806	12	0.000274686
2	1	0	0	0	102.017	0.804565	0.80468	0.375291	1	0.00355931	12	0.000301989
2	1	0	0	0	103.017	0.814565	0.814841	0.406448	1	0.00394894	12	0.000331191
2	1	0	0	0	104.017	0.824565	0.824858	0.438648	1	0.00437191	12	0.000361822
2	1	0	0	0	105.017	0.834565	0.834799	0.471415	1	0.00482642	12	0.000393537
2	1	0	1	0	106.017	0.844565	0.844478	0.507314	1	0.0053153	12	0.000428416
2	1	0	1	0	107.017	0.854566	0.854592	0.550879	1	0.00584466	12	0.000470777
2	1	0	1	0	108.017	0.864566	0.864851	0.595416	1	0.00641848	12	0.000514946
2	1	0	1	0	109.017	0.874566	0.874391	0.636946	1	0.00703285	12	0.00055694
2	1	0	1	0	110.017	0.884566	0.884872	0.690526	1	0.00769615	12	0.000611027
2	1	0	1	0	111.017	0.894566	0.894603	0.74535	1	0.00841362	12	0.000666793
2	1	0	1	0	112.017	0.904566	0.904977	0.800228	1	0.00918865	12	0.000724188
2	1	0	1	0	113.017	0.914567	0.914999	0.868673	1	0.0100223	12	0.000794835
2	1	0	1	0	114.017	0.924567	0.924822	0.942291	1	0.0109282	12	0.000871451
2	1	0	1	0	115.017	0.934567	0.93473	1.01513	1	0.0119071	12	0.000948874
2	1	0	1	0	116.047	0.944867	0.945442	1.09738	1	0.0129954	11	0.00103751
2	1	0	0	0	117.047	0.954867	0.95487	1.16788	1	0.0141288	11	0.00111517
2	1	0	0	0	118.047	0.964868	0.965568	1.23069	1	0.0153302	11	0.00118831
2	1	0	0	0	119.047	0.974868	0.974716	1.29379	1	0.016596	11	0.00126108
2	1	0	0	0	120.047	0.984868	0.985338	1.35289	1	0.0179199	11	0.00133305
2	1	0	0	0	121.047	0.994868	0.994841	1.40671	1	0.0192995	11	0.00139945
2	1	0	0	0	121.918	0.996468	0.996775	1.3575	1	0.0205245	11	0.00135312
2	1	0	0	0	122.918	0.986468	0.986503	1.19715	1	0.0217982	11	0.001181
2	1	0	0	0	123.918	0.976468	0.976726	1.06548	1	0.0229268	11	0.00104068
2	1	0	0	0	124.918	0.966468	0.966667	0.961864	1	0.0239373	11	0.000929802
2	1	0	0	0	125.918	0.956467	0.956615	0.862082	1	0.024847	11	0.000824681
2	1	0	1	0	126.918	0.946467	0.946584	0.774897	1	0.0256641	11	0.000733505
2	1	0	1	0	127.918	0.936467	0.936808	0.70191	1	0.0264023	11	0.000657555
2	1	0	1	0	128.918	0.926467	0.926481	0.632153	1	0.0270683	11	0.000585677
2	1	0	1	0	129.918	0.916467	0.916897	0.571669	1	0.0276691	11	0.000524161
2	1	0	1	0	130.918	0.906466	0.906593	0.516813	1	0.0282123	11	0.000468539
2	1	0	1	0	131.918	0.896466	0.896897	0.465467	1	0.0287029	11	0.000417476
2	1	0	1	0	132.948	0.886166	0.886092	0.416807	1	0.0291559	12	0.000369329
2	1	0	1	0	133.948	0.876166	0.876392	0.376052	1	0.0295516	12	0.000329569
2	1	0	1	0	134.948	0.866166	0.866376	0.337686	1	0.029908	12	0.000292563
2	1	0	1	0	135.948	0.856166	0.85625	0.303893	1	0.0302281	12	0.000260208
2	1	0	1	0	136.948	0.846165	0.846389	0.273126	1	0.0305158	12	0.000231171
2	1	0	0	0	137.948	0.836165	0.836263	0.244733	1	0.0307741	12	0.000204661
2	1	0	0	0	138.948	0.826165	0.826526	0.219265	1	0.0310054	12	0.000181228
2	1	0	0	0	139.948	0.816165	0.816263	0.195878	1	0.0312124	12	0.000159888
2	1	0	0	0	140.948	0.806165	0.806336	0.174853	1	0.0313973	12	0.00014099
2	1	0	0	0	141.948	0.796165	0.796156	0.154986	1	0.0315617	12	0.000123393
2	1	0	0	0	142.948	0.786164	0.78624	0.136717	1	0.0317071	12	0.000107492
2	1	0	0	0	143.948	0.776164	0.77647	0.120025	1	0.0318351	12	9.31955e-05
2	1	0	0	0	144.948	0.766164	0.766348	0.10439	1	0.0319468	12	7.9999e-05
2	1	0	0	0	145.948	0.756164	0.756414	0.0899247	1	0.0320435	12	6.80203e-05
2	1	0	0	0	146.948	0.746163	0.746327	0.0767511	1	0.0321265	12	5.72814e-05
2	1	0	1	0	147.948	0.736163	0.73632	0.0648623	1	0.032197	12	4.77594e-05
2	1	0	1	0	148.948	0.726163	0.726154	0.054144	1	0.032256	12	3.93169e-05
2	1	0	1	0	149.963	0.716013	0.716096	0.0437695	1	0.0323058	12	3.13432e-05
2	1	0	1	0	150.978	0.705863	0.70618	0.0361984	1	0.0323465	13	2.55626e-05
2	1	0	1	0	151.978	0.695863	0.696373	0.0293118	1	0.0323792	13	2.04119e-05
2	1	0	1	0	152.978	0.685862	0.686027	0.0234945	1	0.0324055	13	1.61178e-05
2	1	0	1	0	153.978	0.675862	0.676009	0.0187268	1	0.0324266	13	1.26595e-05
2	1	0	1	0	154.978	0.665862	0.666172	0.0148927	1	0.0324433	13	9.9211e-06
2	1	0	1	0	155.978	0.655862	0.655893	0.0118195	1	0.0324566	13	7.75232e-06
2	1	0	1	0	156.978	0.645862	0.646316	0.00944501	1	0.0324673	13	6.10446e-06
2	1	0	1	0	157.978	0.635861	0.635861	0.00761867	1	0.0324758	13	4.84442e-06
2	1	0	0	0	158.979	0.625861	0.626001	0.00628475	1	0.0324827	13	3.93426e-06
2	1	0	0	0	159.979	0.615861	0.615907	0.00528741	1	0.0324885	13	3.25655e-06
2	1	0	0	0	160.979	0.605861	0.606207	0.00455172	1	0.0324935	13	2.75928e-06
2	1	0	0	0	161.979	0.595861	0.596131	0.00401735	1	0.0324978	13	2.39487e-06
2	1	0	0	0	162.979	0.58586	0.586013	0.00360858	1	0.0325017	13	2.11467e-06
2	1	0	0	0	163.979	0.57586	0.575974	0.00329063	1	0.0325052	13	1.89532e-06
2	1	0	0	0	164.979	0.56586	0.565922	0.00299086	1	0.0325083	13	1.69259e-06
2	1	0	0	0	165.979	0.55586	0.556093	0.00277325	1	0.0325113	13	1.54219e-06
2	1	0	0	0	166.979	0.54586	0.54591	0.0025492	1	0.032514	13	1.39163e-06
2	1	0	0	0	167.979	0.53586	0.536081	0.00236219	1	0.0325165	13	1.26632e-06
2	1	0	1	0	168.979	0.525859	0.525959	0.002157	1	0.0325188	13	1.13449e-06
2	1	0	1	0	169.979	0.515859	0.515955	0.00198638	1	0.0325209	13	1.02488e-06
2	1	0	1	0	170.979	0.505859	0.50581	0.00185265	1	0.0325228	13	9.3709e-07
2	1	0	1	0	171.979	0.495859	0.496056	0.00168631	1	0.0325247	13	8.36502e-07
2	1	0	1	0	172.979	0.485859	0.486247	0.00155509	1	0.0325263	13	7.56158e-07
2	1	0	1	0	173.979	0.475858	0.475911	0.00142548	1	0.0325278	13	6.78401e-07
2	1	0	1	0	174.979	0.465858	0.46601	0.0012819	1	0.0325292	13	5.97381e-07
2	1	0	1	0	175.979	0.455858	0.455875	0.00115974	1	0.0325305	13	5.28697e-07
2	1	0	1	0	176.979	0.445858	0.446083	0.000999427	1	0.0325316	13	4.45828e-07
2	1	0	1	0	177.979	0.435858	0.435866	0.000797061	1	0.0325325	13	3.47412e-07
2	1	0	1	0	178.979	0.425858	0.426071	0.000661795	1	0.0325333	13	2.81972e-07
2	1	0	0	0	179.979	0.415857	0.416035	0.0005493	1	0.0325339	13	2.28528e-07
2	1	0	0	0	180.979	0.405857	0.406095	0.00048424	1	0.0325345	13	1.96647e-07
2	1	0	0	0	181.979	0.395857	0.396125	0.000399927	1	0.0325349	13	1.58421e-07
2	1	0	0	0	182.979	0.385857	0.385799	0.000223323	1	0.0325352	13	8.6158e-08
2	1	0	0	0	183.979	0.375857	0.376192	-0.000549045	1	0.0325352	13	-2.06546e-07
2	1	0	0	0	184.979	0.365856	0.365994	-0.000424647	1	0.0325343	13	-1.55418e-07
2	1	0	0	0	185.979	0.355856	0.356122	-0.000237135	1	0.0325341	13	-8.4449e-08
2	1	0	0	0	186.979	0.345856	0.345967	1.40527e-05	1	0.032534	13	4.86176e-09
2	1	0	0	0	187.979	0.335856	0.336016	0.000105181	1	0.0325341	13	3.53423e-08
2	1	0	0	0	188.979	0.325856	0.325727	0.000131487	1	0.0325343	13	4.28287e-08
2	1	0	1	0	189.979	0.315856	0.31558	0.00013376	1	0.0325345	13	4.22119e-08
2	1	0	1	0	190.979	0.305855	0.305971	0.000149198	1	0.0325347	13	4.56505e-08
2	1	0	1	0	191.979	0.295855	0.295582	0.000100047	1	0.0325348	13	2.9572e-08
2	1	0	1	0	192.979	0.285855	0.286221	7.96612e-05	1	0.032535	13	2.28007e-08
2	1	0	1	0	193.979	0.275855	0.276131	5.13427e-05	1	0.0325351	13	1.41773e-08
2	1	0	1	0	194.979	0.265855	0.266082	1.54007e-05	1	0.0325352	13	4.09784e-09
2	1	0	1	0	195.979	0.255854	0.256029	1.00015e-05	1	0.0325353	13	2.56068e-09
2	1	0	1	0	196.979	0.245854	0.245998	-2.57122e-05	1	0.0325353	13	-6.32515e-09
2	1	0	1	0	197.979	0.235854	0.236185	-5.22187e-05	1	0.0325354	13	-1.23333e-08
2	1	0	1	0	198.979	0.225854	0.226058	-6.20785e-05	1	0.0325354	13	-1.40334e-08
2	1	0	1	0	199.979	0.215854	0.216133	-9.38147e-05	1	0.0325353	13	-2.02765e-08
2	1	0	0	0	200.979	0.205854	0.205626	-0.000124063	1	0.0325353	13	-2.55106e-08
2	1	0	0	0	201.979	0.195853	0.195786	-0.000135646	1	0.0325352	13	-2.65577e-08
2	1	0	0	0	202.979	0.185853	0.186064	-0.0001657	1	0.0325351	13	-3.08309e-08
2	1	0	0	0	203.979	0.175853	0.176071	-0.000179529	1	0.032535	13	-3.16098e-08
2	1	0	0	0	204.979	0.165853	0.166206	-0.000196559	1	0.0325349	13	-3.26692e-08
2	1	0	0	0	205.979	0.155853	0.156179	-0.000218234	1	0.0325347	13	-3.40837e-08
2	1	0	0	0	206.979	0.145852	0.145976	-0.00023263	1	0.0325346	13	-3.39584e-08
2	1	0	0	0	207.979	0.135852	0.13576	-0.000255072	1	0.0325344	13	-3.46286e-08
2	1	0	0	0	208.979	0.125852	0.126315	-0.000272949	1	0.0325342	13	-3.44775e-08
2	1	0	0	0	209.979	0.115852	0.115944	-0.000285173	1	0.0325339	13	-3.30642e-08
2	1	0	1	0	210.98	0.105852	0.106126	-0.000278871	1	0.0325337	13	-2.95954e-08
2	1	0	1	0	211.98	0.0958515	0.0959492	-0.000289728	1	0.0325335	13	-2.77992e-08
2	1	0	1	0	212.98	0.0858513	0.0857884	-0.000320732	1	0.0325332	13	-2.75151e-08
2	0	0	1	0	213.98	0.0758511	0.0758683	-0.000322307	1	0.0325329	13	-2.44529e-08
2	0	0	1	0	214.98	0.0658509	0.0660183	-0.00034307	1	0.0325326	13	-2.26489e-08
2	1	0	1	0	215.98	0.0558507	0.0562881	-0.00032763	1	0.0325323	13	-1.84417e-08
2	1	0	1	0	216.98	0.0458505	0.0459533	-0.000357277	1	0.032532	13	-1.64181e-08
2	1	0	1	0	217.98	0.0358504	0.0359081	-0.000372559	1	0.0325317	13	-1.33779e-08
2	1	0	1	0	218.98	0.0258502	0.0257282	-0.000368719	1	0.0325313	13	-9.48648e-09
2	1	0	1	0	219.98	0.01585	0.0156342	-0.000383338	1	0.032531	13	-5.9932e-09
2	1	0	1	0	220.98	0.0058498	0.00600378	-0.000382371	1	0.0325306	13	-2.29567e-09
2	0	0	1	1	221.82	0.00254974	0.00240469	0.000409756	2	0.0325305	13	9.85335e-10
2	0	0	1	1	222.82	0.0125499	0.0128509	0.000497862	2	0.0325309	13	6.39795e-09
2	0	0	1	1	223.82	0.0225501	0.0227857	0.00055482	2	0.0325314	13	1.2642e-08
2	0	0	1	1	224.82	0.0325503	0.0326082	0.000606048	2	0.032532	13	1.97621e-08
2	0	0	1	1	225.82	0.0425505	0.0426863	0.000639348	2	0.0325326	13	2.72914e-08
2	0	0	1	1	226.82	0.0525507	0.0528301	0.000667655	2	0.0325332	13	3.52723e-08
2	1	0	1	1	227.82	0.0625509	0.0627852	0.000680706	2	0.0325338	13	4.27382e-08
2	1	0	1	1	228.82	0.072551	0.072318	0.00069604	2	0.0325345	13	5.03362e-08
2	1	0	1	1	229.82	0.0825512	0.0827302	0.000726708	2	0.0325351	13	6.01207e-08
2	0	0	1	1	230.82	0.0925514	0.0929038	0.00074132	2	0.0325358	13	6.88714e-08
2	0	0	1	1	231.82	0.102552	0.102323	0.00073746	2	0.0325365	13	7.54593e-08
2	0	0	0	1	232.821	0.112552	0.112619	0.00075575	2	0.0325372	13	8.51115e-08
2	0	0	0	1	233.821	0.122552	0.122959	0.000779442	2	0.0325379	13	9.58393e-08
2	0	0	0	1	234.821	0.132552	0.132737	0.000815952	2	0.0325387	13	1.08307e-07
2	0	0	0	1	235.821	0.142552	0.142773	0.000815274	2	0.0325394	13	1.16399e-07
2	0	0	0	1	236.821	0.152553	0.152412	0.000828671	2	0.0325402	13	1.263e-07
2	0	0	0	1	237.821	0.162553	0.162474	0.000850425	2	0.032541	13	1.38172e-07
2	0	0	0	1	238.821	0.172553	0.172431	0.000864505	2	0.0325418	13	1.49067e-07
2	0	0	0	1	239.821	0.182553	0.182993	0.000902507	2	0.0325427	13	1.65153e-07
2	0	0	0	1	240.821	0.192553	0.192342	0.000932991	2	0.0325435	13	1.79453e-07
2	0	0	0	1	241.821	0.202553	0.202654	0.000946772	2	0.0325444	13	1.91867e-07
2	0	0	1	1	242.821	0.212554	0.212942	0.000969935	2	0.0325453	13	2.0654e-07
2	0	0	1	1	243.821	0.222554	0.222744	0.000984366	2	0.0325462	13	2.19261e-07
2	0	0	1	1	244.821	0.232554	0.232661	0.00100419	2	0.0325471	13	2.33637e-07
2	0	0	1	1	245.821	0.242554	0.242553	0.00103207	2	0.0325481	13	2.50332e-07
2	0	0	1	1	246.821	0.252554	0.252503	0.00106777	2	0.0325491	13	2.69615e-07
2	0	0	1	1	247.821	0.262555	0.262841	0.00108831	2	0.0325501	13	2.86052e-07
2	0	0	1	1	248.821	0.272555	0.272719	0.00110847	2	0.0325511	13	3.023e-07
2	0	0	1	1	249.821	0.282555	0.282547	0.00116091	2	0.0325522	13	3.2801e-07
2	0	0	1	1	250.821	0.292555	0.293149	0.0011874	2	0.0325533	13	3.48086e-07
2	0	0	1	1	251.821	0.302555	0.302724	0.00121106	2	0.0325544	13	3.66616e-07
2	0	0	1	1	252.821	0.312555	0.312713	0.00124701	2	0.0325556	13	3.89956e-07
2	0	0	0	1	253.821	0.322556	0.322682	0.00129869	2	0.0325568	13	4.19065e-07
2	0	0	0	1	254.821	0.332556	0.332421	0.00134676	2	0.0325581	13	4.47691e-07
2	0	0	0	1	255.821	0.342556	0.342547	0.00138428	2	0.0325594	13	4.74182e-07
2	1	0	0	1	256.821	0.352556	0.352569	0.00144018	2	0.0325607	13	5.07761e-07
2	1	0	0	1	257.821	0.362556	0.362473	0.00148649	2	0.0325621	13	5.38812e-07
2	1	0	0	1	258.821	0.372557	0.373075	0.0015497	2	0.0325636	13	5.78155e-07
2	1	0	0	1	259.821	0.382557	0.382898	0.0016083	2	0.0325651	13	6.15817e-07
2	1	0	0	1	260.821	0.392557	0.392631	0.0016599	2	0.0325667	13	6.51727e-07
2	0	0	0	1	261.821	0.402557	0.402945	0.00174035	2	0.0325683	13	7.01264e-07
2	1	0	0	1	262.821	0.412557	0.412481	0.00184135	2	0.0325701	13	7.59524e-07
2	1	0	1	1	263.821	0.422557	0.422596	0.00202753	2	0.0325719	13	8.56824e-07
2	1	0	1	1	264.821	0.432558	0.432632	0.00273435	2	0.0325742	13	1.18297e-06
2	1	0	1	1	265.821	0.442558	0.442367	0.00305486	2	0.0325772	13	1.35137e-06
2	1	0	1	1	266.821	0.452558	0.452719	0.00295359	2	0.0325801	13	1.33715e-06
2	1	0	1	1	267.821	0.462558	0.462562	0.00301379	2	0.0325831	13	1.39407e-06
2	1	0	1	1	268.821	0.472558	0.472506	0.00307003	2	0.0325861	13	1.45061e-06
2	1	0	1	1	269.821	0.482559	0.482921	0.00315333	2	0.0325892	13	1.52281e-06
2	1	0	1	1	270.821	0.492559	0.492923	0.00320252	2	0.0325923	13	1.5786e-06
2	0	0	1	1	271.821	0.502559	0.502539	0.00323825	2	0.0325955	13	1.62735e-06
2	0	0	1	1	272.821	0.512559	0.512705	0.0032898	2	0.0325988	13	1.6867e-06
2	0	0	1	1	273.821	0.522559	0.523055	0.00332563	2	0.032602	13	1.73949e-06
2	0	0	0	1	274.821	0.53256	0.532499	0.00339649	2	0.0326054	13	1.80863e-06
2	0	0	0	1	275.821	0.54256	0.542607	0.00345181	2	0.0326088	13	1.87298e-06
2	1	0	0	1	276.821	0.55256	0.552474	0.00358568	2	0.0326123	13	1.98099e-06
2	1	0	0	1	277.821	0.56256	0.56253	0.00372037	2	0.0326159	13	2.09282e-06
2	1	0	0	1	278.821	0.57256	0.573234	0.0038859	2	0.0326196	13	2.22753e-06
2	1	0	0	1	279.821	0.58256	0.582788	0.00407042	2	0.0326236	13	2.37219e-06
2	1	0	0	1	280.821	0.592561	0.592793	0.00431119	2	0.0326277	13	2.55564e-06
2	1	0	0	1	281.821	0.602561	0.602854	0.00463323	2	0.0326322	13	2.79316e-06
2	1	0	0	1	282.821	0.612561	0.612848	0.00507151	2	0.032637	13	3.10806e-06
2	1	0	0	1	283.821	0.622561	0.622529	0.00568754	2	0.0326423	13	3.54065e-06
2	1	0	0	1	284.821	0.632561	0.632677	0.00654909	2	0.0326484	13	4.14346e-06
2	1	0	1	1	285.822	0.642562	0.64235	0.00784611	2	0.0326555	13	5.03995e-06
2	1	0	1	1	286.822	0.652562	0.652344	0.00963433	2	0.0326642	13	6.2849e-06
2	1	0	1	1	287.822	0.662562	0.662819	0.01211	2	0.0326749	13	8.02671e-06
2	1	0	1	1	288.822	0.672562	0.672794	0.0154261	2	0.0326886	13	1.03786e-05
2	1	0	1	1	289.822	0.682562	0.683168	0.0198227	2	0.0327061	13	1.35423e-05
2	1	0	1	1	290.822	0.692563	0.692678	0.0253688	2	0.0327286	13	1.75724e-05
2	1	0	1	1	291.822	0.702563	0.702625	0.0322479	2	0.0327573	13	2.26582e-05
2	1	0	1	1	292.822	0.712563	0.713028	0.0404348	2	0.0327936	13	2.88311e-05
2	1	0	1	1	293.822	0.722563	0.72272	0.0499991	2	0.0328387	13	3.61353e-05
2	1	0	1	1	294.822	0.732563	0.732412	0.0609074	2	0.0328941	13	4.46093e-05
2	1	0	0	1	295.822	0.742563	0.742448	0.0730463	2	0.032961	13	5.4233e-05
2	1	0	0	1	296.822	0.752564	0.752737	0.0864869	2	0.0330408	13	6.51019e-05
2	1	0	0	1	297.822	0.762564	0.762525	0.101079	2	0.0331346	13	7.70755e-05
2	1	0	0	1	298.852	0.772864	0.773348	0.117019	2	0.0332471	12	9.04967e-05
2	1	0	0	1	299.852	0.782864	0.78309	0.133848	2	0.0333728	12	0.000104815
2	1	0	0	1	300.852	0.792864	0.792707	0.15171	2	0.0335158	12	0.000120261
2	1	0	0	1	301.852	0.802864	0.803219	0.170841	2	0.0336773	12	0.000137223
2	1	0	0	1	302.852	0.812865	0.813326	0.19139	2	0.0338586	12	0.000155662
2	1	0	0	1	303.852	0.822865	0.822772	0.213315	2	0.0340612	12	0.00017551
2	1	0	0	1	304.852	0.832865	0.833191	0.237034	2	0.0342865	12	0.000197494
2	1	0	1	1	305.852	0.842866	0.842833	0.26278	2	0.0345367	12	0.00022148
2	1	0	1	1	306.852	0.852866	0.853062	0.290619	2	0.0348135	12	0.000247915
2	1	0	1	1	307.852	0.862866	0.863262	0.321195	2	0.0351197	12	0.000277276
2	1	0	1	1	308.852	0.872866	0.872947	0.354127	2	0.0354575	12	0.000309134
2	1	0	1	1	309.852	0.882866	0.882924	0.390681	2	0.0358299	12	0.000344941
2	1	0	1	1	310.852	0.892866	0.893181	0.430707	2	0.0362408	12	0.000384699
2	1	0	1	1	311.852	0.902866	0.90326	0.474644	2	0.0366934	12	0.000428727
2	1	0	1	1	312.852	0.912867	0.913289	0.520941	2	0.0371916	12	0.00047577
2	1	0	1	1	313.852	0.922867	0.923206	0.570304	2	0.0377377	12	0.000526508
2	1	0	1	1	314.852	0.932867	0.932917	0.621324	2	0.0383338	12	0.000579643
2	1	0	1	1	315.852	0.942867	0.942921	0.673856	2	0.0389822	12	0.000635393
2	1	0	0	1	316.852	0.952867	0.953154	0.727842	2	0.0396837	12	0.000693746
2	1	0	0	1	317.852	0.962867	0.963228	0.779025	2	0.0404385	12	0.000750379
2	1	0	0	1	318.852	0.972868	0.973193	0.834772	2	0.0412465	12	0.000812394
2	1	0	0	1	319.852	0.982868	0.982879	0.884554	2	0.0421059	12	0.000869409
2	1	0	0	1	320.852	0.992868	0.99322	0.938923	2	0.0430192	12	0.000932557
2	1	0	0	1	321.723	0.998468	0.998787	0.955446	2	0.0438544	12	0.000954287
2	1	0	0	1	322.723	0.988468	0.988641	0.8419	2	0.0447501	12	0.000832337
2	1	0	0	1	323.723	0.978468	0.978202	0.75372	2	0.045546	12	0.000737291
2	1	0	0	1	324.723	0.968468	0.968486	0.677295	2	0.0462593	12	0.000655951
2	1	0	0	1	325.723	0.958467	0.958632	0.613656	2	0.0469035	12	0.00058827
2	1	0	1	1	326.723	0.948467	0.948731	0.554025	2	0.0474867	12	0.000525621
2	1	0	1	1	327.723	0.938467	0.938694	0.50165	2	0.0480137	12	0.000470896
2	1	0	1	1	328.723	0.928467	0.928639	0.454498	2	0.0484909	12	0.000422065
2	1	0	1	1	329.723	0.918467	0.918769	0.411973	2	0.0489229	12	0.000378508
2	1	0	1	1	330.723	0.908467	0.908556	0.371961	2	0.049314	12	0.000337948
2	1	0	1	1	331.723	0.898466	0.898426	0.33615	2	0.0496675	12	0.000302006
2	1	0	1	1	332.723	0.888466	0.889096	0.303875	2	0.0499868	12	0.000270174
2	1	0	1	1	333.723	0.878466	0.878608	0.273899	2	0.050275	12	0.00024065
2	1	0	1	1	334.723	0.868466	0.868616	0.247175	2	0.0505349	12	0.000214701
2	1	0	1	1	335.723	0.858466	0.858476	0.222758	2	0.0507693	12	0.000191233
2	1	0	1	1	336.723	0.848465	0.848575	0.200622	2	0.0509805	12	0.000170243
2	1	0	0	1	337.723	0.838465	0.838816	0.180795	2	0.0511706	12	0.000151654
2	1	0	0	1	338.723	0.828465	0.828654	0.162536	2	0.0513417	12	0.000134686
2	1	0	0	1	339.723	0.818465	0.818434	0.145942	2	0.0514955	12	0.000119444
2	1	0	0	1	340.723	0.808465	0.808259	0.13097	2	0.0516336	12	0.000105858
2	1	0	0	1	341.723	0.798464	0.798546	0.117125	2	0.0517572	12	9.35296e-05
2	1	0	0	1	342.723	0.788464	0.788724	0.104323	2	0.0518675	12	8.22817e-05
2	1	0	0	1	343.723	0.778464	0.778324	0.0924152	2	0.0519655	12	7.1929e-05
2	1	0	0	1	344.723	0.768464	0.76858	0.0813875	2	0.052052	12	6.25528e-05
2	1	0	0	1	345.723	0.758464	0.758613	0.0711213	2	0.0521279	12	5.39536e-05
2	1	0	0	1	346.723	0.748464	0.748748	0.0616741	2	0.052194	12	4.61784e-05
2	1	0	1	1	347.723	0.738463	0.738828	0.0528969	2	0.0522509	12	3.90818e-05
2	1	0	1	1	348.738	0.728313	0.728744	0.0439534	2	0.0523001	12	3.20308e-05
2	1	0	1	1	349.753	0.718163	0.718476	0.0373095	2	0.0523415	13	2.6806e-05
2	1	0	1	1	350.753	0.708163	0.708845	0.0310009	2	0.0523756	13	2.19748e-05
2	1	0	1	1	351.753	0.698163	0.698722	0.0255193	2	0.0524037	13	1.78309e-05
2	1	0	1	1	352.753	0.688162	0.688651	0.0208385	2	0.0524268	13	1.43505e-05
2	1	0	1	1	353.753	0.678162	0.678636	0.0168615	2	0.0524456	13	1.14428e-05
2	1	0	1	1	354.753	0.668162	0.668534	0.0136074	2	0.0524608	13	9.09702e-06
2	1	0	1	1	355.753	0.658162	0.658268	0.0110095	2	0.0524731	13	7.24723e-06
2	1	0	1	1	356.753	0.648162	0.648463	0.0089433	2	0.052483	13	5.7994e-06
2	1	0	1	1	357.753	0.638162	0.638238	0.00731772	2	0.0524911	13	4.67045e-06
2	1	0	0	1	358.753	0.628161	0.628442	0.00610998	2	0.0524979	13	3.83977e-06
2	1	0	0	1	359.753	0.618161	0.618357	0.00518376	2	0.0525035	13	3.20541e-06
2	1	0	0	1	360.753	0.608161	0.608339	0.00450442	2	0.0525084	13	2.74022e-06
2	1	0	0	1	361.753	0.598161	0.598426	0.00398571	2	0.0525127	13	2.38515e-06
2	1	0	0	1	362.753	0.588161	0.588529	0.00360522	2	0.0525165	13	2.12178e-06
2	1	0	0	1	363.753	0.57816	0.578862	0.0032746	2	0.05252	13	1.89554e-06
2	1	0	0	1	364.753	0.56816	0.568086	0.00301644	2	0.0525232	13	1.7136e-06
2	1	0	0	1	365.753	0.55816	0.558143	0.00278242	2	0.0525261	13	1.55299e-06
2	1	0	0	1	366.753	0.54816	0.548065	0.00255954	2	0.0525288	13	1.40279e-06
2	1	0	0	1	367.753	0.53816	0.538139	0.00237887	2	0.0525313	13	1.28016e-06
2	1	0	1	1	368.753	0.528159	0.528417	0.00220728	2	0.0525337	13	1.16637e-06
2	1	0	1	1	369.754	0.518159	0.518361	0.00205118	2	0.0525358	13	1.06325e-06
2	1	0	1	1	370.754	0.508159	0.508262	0.00188995	2	0.0525379	13	9.60588e-07
2	1	0	1	1	371.754	0.498159	0.498529	0.00175717	2	0.0525397	13	8.75999e-07
2	1	0	1	1	372.754	0.488159	0.488882	0.00162409	2	0.0525414	13	7.93987e-07
2	1	0	1	1	373.754	0.478159	0.478448	0.00149392	2	0.052543	13	7.14763e-07
2	1	0	1	1	374.754	0.468158	0.468259	0.00136318	2	0.0525445	13	6.38322e-07
2	1	0	1	1	375.754	0.458158	0.458534	0.00124634	2	0.0525458	13	5.71491e-07
2	1	0	1	1	376.754	0.448158	0.448242	0.00111665	2	0.052547	13	5.00528e-07
2	1	0	1	1	377.754	0.438158	0.438437	0.000893616	2	0.052548	13	3.91794e-07
2	1	0	1	1	378.754	0.428158	0.42832	0.000721783	2	0.0525489	13	3.09154e-07
2	1	0	0	1	379.754	0.418157	0.41849	0.000598931	2	0.0525495	13	2.50647e-07
2	1	0	0	1	380.754	0.408157	0.408637	0.000527845	2	0.0525501	13	2.15697e-07
2	1	0	0	1	381.754	0.398157	0.3983	0.000413826	2	0.0525506	13	1.64827e-07
2	1	0	0	1	382.754	0.388157	0.388411	0.000295464	2	0.052551	13	1.14761e-07
2	1	0	0	1	383.754	0.378157	0.378303	-0.000162515	2	0.0525511	13	-6.14801e-08
2	0	0	0	1	384.754	0.368156	0.368055	-0.000550436	2	0.0525504	13	-2.02591e-07
2	0	0	0	1	385.754	0.358156	0.358433	-0.000122322	2	0.0525502	13	-4.38442e-08
2	1	0	0	1	386.754	0.348156	0.348286	-6.43398e-05	2	0.0525502	13	-2.24087e-08
2	1	0	0	1	387.754	0.338156	0.338477	0.000165967	2	0.0525503	13	5.61761e-08
2	1	0	0	1	388.754	0.328156	0.328348	0.000228353	2	0.0525505	13	7.49791e-08
2	1	0	1	1	389.754	0.318155	0.318354	0.000285314	2	0.0525508	13	9.08308e-08
2	1	0	1	1	390.754	0.308155	0.308405	0.000240555	2	0.0525511	13	7.41882e-08
2	1	0	1	1	391.754	0.298155	0.298567	0.000234815	2	0.0525514	13	7.01082e-08
2	1	0	1	1	392.754	0.288155	0.288557	0.000223173	2	0.0525517	13	6.43982e-08
2	1	0	1	1	393.754	0.278155	0.278544	0.000183445	2	0.052552	13	5.10975e-08
2	1	0	1	1	394.754	0.268155	0.268596	0.00018456	2	0.0525522	13	4.95722e-08
2	1	0	1	1	395.754	0.258154	0.258253	0.000157398	2	0.0525525	13	4.06485e-08
2	1	0	1	1	396.754	0.248154	0.248362	0.000145225	2	0.0525527	13	3.60684e-08
2	1	0	1	1	397.754	0.238154	0.238363	0.000122836	2	0.0525528	13	2.92797e-08
2	1	0	1	1	398.754	0.228154	0.228309	9.85029e-05	2	0.052553	13	2.24891e-08
2	1	0	1	1	399.754	0.218154	0.218413	7.22438e-05	2	0.0525532	13	1.5779e-08
2	1	0	0	1	400.754	0.208154	0.208254	6.26359e-05	2	0.0525533	13	1.30442e-08
2	1	0	0	1	401.754	0.198153	0.19849	3.49141e-05	2	0.0525534	13	6.93009e-09
2	1	0	0	1	402.754	0.188153	0.188281	2.85044e-05	2	0.0525535	13	5.36684e-09
2	1	0	0	1	403.754	0.178153	0.178322	1.25398e-05	2	0.0525536	13	2.23612e-09
2	1	0	0	1	404.754	0.168153	0.168505	-5.08209e-06	2	0.0525536	13	-8.56357e-10
2	1	0	0	1	405.754	0.158153	0.15815	-3.01685e-05	2	0.0525537	13	-4.77114e-09
2	1	0	0	1	406.754	0.148152	0.148284	-4.91383e-05	2	0.0525537	13	-7.28643e-09
2	1	0	0	1	407.754	0.138152	0.138093	-5.75397e-05	2	0.0525537	13	-7.94586e-09
2	1	0	0	1	408.754	0.128152	0.127755	-7.17321e-05	2	0.0525537	13	-9.16417e-09
2	1	0	0	1	409.754	0.118152	0.118603	-7.60647e-05	2	0.0525537	13	-9.02153e-09
2	1	0	0	1	410.754	0.108152	0.108307	-9.4952e-05	2	0.0525536	13	-1.02839e-08
2	1	0	1	1	411.754	0.0981515	0.0983104	-0.000114199	2	0.0525536	13	-1.12269e-08
2	1	0	1	1	412.754	0.0881513	0.0883978	-0.000123365	2	0.0525535	13	-1.09052e-08
2	1	0	1	1	413.754	0.0781511	0.0778466	-0.000120367	2	0.0525535	13	-9.37015e-09
2	1	0	1	1	414.754	0.0681509	0.0681886	-0.000141166	2	0.0525534	13	-9.62593e-09
2	1	0	1	1	415.754	0.0581508	0.058206	-0.000135763	2	0.0525533	13	-7.9022e-09
2	1	0	1	1	416.754	0.0481506	0.0481247	-0.00013821	2	0.0525532	13	-6.6513e-09
2	1	0	1	1	417.754	0.0381504	0.0383288	-0.000134867	2	0.0525531	13	-5.16929e-09
2	1	0	1	1	418.754	0.0281502	0.0282051	-0.000163927	2	0.052553	13	-4.62356e-09
2	0	0	1	1	419.754	0.01815	0.0180601	-0.000157617	2	0.0525529	13	-2.84659e-09
2	1	0	1	1	420.754	0.00814984	0.00829179	-0.000158564	2	0.0525527	13	-1.31478e-09
2	1	0	0	0	421.625	0.0005497	0.000623709	0.000532182	3	0.0525526	13	3.31927e-10
2	0	0	1	0	422.625	0.0105499	0.0104971	0.000742192	3	0.0525533	13	7.79084e-09
2	0	0	1	0	423.625	0.0205501	0.0211564	0.000835712	3	0.052554	13	1.76807e-08
2	0	0	1	0	424.625	0.0305503	0.0305737	0.000869196	3	0.0525549	13	2.65745e-08
2	0	0	1	0	425.625	0.0405504	0.0404863	0.000909546	3	0.0525557	13	3.68241e-08
2	0	0	1	0	426.625	0.0505506	0.0504721	0.000950189	3	0.0525566	13	4.7958e-08
2	0	0	1	0	427.625	0.0605508	0.0606361	0.000963074	3	0.0525575	13	5.83971e-08
2	0	0	1	0	428.625	0.070551	0.0704766	0.000978422	3	0.0525585	13	6.89558e-08
2	0	0	1	0	429.625	0.0805512	0.0806692	0.00101707	3	0.0525594	13	8.20466e-08
2	0	0	1	0	430.625	0.0905514	0.0907038	0.00103673	3	0.0525604	13	9.4035e-08
2	0	0	1	0	431.625	0.100552	0.100836	0.00106886	3	0.0525614	13	1.0778e-07
2	0	0	0	0	432.625	0.110552	0.110605	0.00106512	3	0.0525624	13	1.17808e-07
2	0	0	0	0	433.625	0.120552	0.120759	0.00109591	3	0.0525634	13	1.32341e-07
2	0	0	0	0	434.625	0.130552	0.130346	0.00112104	3	0.0525645	13	1.46123e-07
2	0	0	0	0	435.625	0.140552	0.140758	0.00110625	3	0.0525655	13	1.55714e-07
2	0	0	0	0	436.625	0.150552	0.150355	0.00114621	3	0.0525666	13	1.72337e-07
2	0	0	0	0	437.625	0.160553	0.160866	0.00117018	3	0.0525677	13	1.88242e-07
2	0	0	0	0	438.625	0.170553	0.170849	0.00119388	3	0.0525688	13	2.03974e-07
2	0	0	0	0	439.625	0.180553	0.180607	0.00120388	3	0.0525699	13	2.1743e-07
2	0	0	0	0	440.625	0.190553	0.190972	0.00121472	3	0.0525711	13	2.31978e-07
2	0	0	0	0	441.625	0.200553	0.200549	0.00124392	3	0.0525723	13	2.49466e-07
2	0	0	0	0	442.625	0.210554	0.210751	0.00124436	3	0.0525735	13	2.6225e-07
2	1	0	1	0	443.626	0.220554	0.220788	0.00130239	3	0.0525747	13	2.87551e-07
2	1	0	1	0	444.626	0.230554	0.230476	0.00130803	3	0.0525759	13	3.0147e-07
2	0	0	1	0	445.626	0.240554	0.240592	0.00134088	3	0.0525772	13	3.22604e-07
2	0	0	1	0	446.626	0.250554	0.250663	0.00138173	3	0.0525785	13	3.4635e-07
2	0	0	1	0	447.626	0.260555	0.260609	0.00139229	3	0.0525798	13	3.62844e-07
2	0	0	1	0	448.626	0.270555	0.270758	0.0014203	3	0.0525811	13	3.84557e-07
2	0	0	1	0	449.626	0.280555	0.280525	0.00147513	3	0.0525825	13	4.1381e-07
2	0	0	1	0	450.626	0.290555	0.290595	0.00149	3	0.0525839	13	4.32987e-07
2	0	0	1	0	451.626	0.300555	0.300589	0.00152374	3	0.0525854	13	4.5802e-07
2	0	0	1	0	452.626	0.310555	0.31032	0.00156738	3	0.0525869	13	4.86389e-07
2	0	0	0	0	453.626	0.320556	0.320926	0.00160122	3	0.0525884	13	5.13872e-07
2	0	0	0	0	454.626	0.330556	0.330611	0.00165929	3	0.05259	13	5.4858e-07
2	0	0	0	0	455.626	0.340556	0.340616	0.00170267	3	0.0525916	13	5.79959e-07
2	0	0	0	0	456.626	0.350556	0.350535	0.001743	3	0.0525932	13	6.10984e-07
2	0	0	0	0	457.626	0.360556	0.360862	0.00180084	3	0.0525949	13	6.49856e-07
2	0	0	0	0	458.626	0.370557	0.370274	0.00185062	3	0.0525967	13	6.85236e-07
2	0	0	0	0	459.626	0.380557	0.380637	0.00192766	3	0.0525985	13	7.33737e-07
2	0	0	0	0	460.626	0.390557	0.390408	0.00198175	3	0.0526004	13	7.73692e-07
2	0	0	0	0	461.626	0.400557	0.400389	0.00205496	3	0.0526024	13	8.22785e-07
2	0	0	0	0	462.626	0.410557	0.410688	0.00214607	3	0.0526044	13	8.81366e-07
2	0	0	0	0	463.626	0.420557	0.420699	0.00229483	3	0.0526066	13	9.65434e-07
2	1	0	1	0	464.626	0.430558	0.430462	0.00278766	3	0.052609	13	1.19998e-06
2	1	0	1	0	465.626	0.440558	0.440752	0.00338717	3	0.0526121	13	1.4929e-06
2	1	0	1	0	466.626	0.450558	0.450413	0.0033854	3	0.0526155	13	1.52483e-06
2	1	0	1	0	467.626	0.460558	0.46077	0.0034747	3	0.0526189	13	1.60104e-06
2	1	0	1	0	468.626	0.470558	0.470484	0.0035689	3	0.0526224	13	1.67911e-06
2	1	0	1	0	469.626	0.480559	0.480625	0.00357924	3	0.0526259	13	1.72027e-06
2	1	0	1	0	470.626	0.490559	0.490499	0.00361488	3	0.0526295	13	1.7731e-06
2	1	0	1	0	471.626	0.500559	0.500703	0.00360909	3	0.0526331	13	1.80708e-06
2	1	0	1	0	472.626	0.510559	0.51075	0.00361642	3	0.0526367	13	1.84709e-06
2	1	0	1	0	473.626	0.520559	0.520715	0.0036494	3	0.0526403	13	1.9003e-06
2	1	0	0	0	474.626	0.53056	0.530466	0.00370928	3	0.0526439	13	1.96765e-06
2	1	0	0	0	475.626	0.54056	0.540678	0.00381426	3	0.0526476	13	2.06229e-06
2	0	0	0	0	476.626	0.55056	0.550823	0.00391044	3	0.0526515	13	2.15396e-06
2	0	0	0	0	477.626	0.56056	0.56086	0.0040443	3	0.0526554	13	2.26829e-06
2	1	0	0	0	478.626	0.57056	0.570993	0.0042125	3	0.0526595	13	2.40531e-06
2	1	0	0	0	479.626	0.58056	0.580741	0.0044032	3	0.0526638	13	2.55712e-06
2	1	0	0	0	480.626	0.590561	0.590694	0.00466616	3	0.0526682	13	2.75627e-06
2	1	0	0	0	481.626	0.600561	0.60084	0.00495385	3	0.052673	13	2.97647e-06
2	1	0	0	0	482.626	0.610561	0.610934	0.00540721	3	0.0526782	13	3.30345e-06
2	1	0	0	0	483.626	0.620561	0.620885	0.00598825	3	0.0526838	13	3.71801e-06
2	1	0	0	0	484.626	0.630561	0.630879	0.00680657	3	0.0526901	13	4.29412e-06
2	1	0	1	0	485.626	0.640562	0.64046	0.0079653	3	0.0526974	13	5.10145e-06
2	1	0	1	0	486.626	0.650562	0.650701	0.00958338	3	0.0527061	13	6.23591e-06
2	1	0	1	0	487.626	0.660562	0.661023	0.0118136	3	0.0527168	13	7.80906e-06
2	1	0	1	0	488.626	0.670562	0.670763	0.0148174	3	0.05273	13	9.93895e-06
2	1	0	1	0	489.626	0.680562	0.680538	0.0186955	3	0.0527466	13	1.2723e-05
2	1	0	1	0	490.626	0.690562	0.690485	0.0236585	3	0.0527677	13	1.63359e-05
2	1	0	1	0	491.626	0.700563	0.700666	0.029744	3	0.0527943	13	2.08406e-05
2	1	0	1	0	492.626	0.710563	0.710765	0.0370112	3	0.0528276	13	2.63063e-05
2	1	0	1	0	493.626	0.720563	0.720488	0.0454698	3	0.0528688	13	3.27604e-05
2	1	0	1	0	494.626	0.730563	0.730618	0.0550744	3	0.052919	13	4.02383e-05
2	1	0	1	0	495.626	0.740563	0.740628	0.0658367	3	0.0529794	13	4.87605e-05
2	1	0	0	0	496.627	0.750564	0.750772	0.0776562	3	0.0530511	13	5.83021e-05
2	1	0	0	0	497.627	0.760564	0.760644	0.0904475	3	0.0531352	13	6.87983e-05
2	1	0	0	0	498.642	0.770714	0.77079	0.104011	3	0.0532341	13	8.01706e-05
2	1	0	0	0	499.657	0.780864	0.78084	0.119075	3	0.0533478	12	9.29783e-05
2	1	0	0	0	500.657	0.790864	0.791134	0.134798	3	0.053475	12	0.000106644
2	1	0	0	0	501.657	0.800865	0.801109	0.151489	3	0.0536183	12	0.000121359
2	1	0	0	0	502.657	0.810865	0.810721	0.169497	3	0.053779	12	0.000137415
2	1	0	0	0	503.657	0.820865	0.820872	0.188734	3	0.0539584	12	0.000154927
2	1	0	0	0	504.657	0.830865	0.830833	0.209702	3	0.0541578	12	0.000174227
2	1	0	0	0	505.657	0.840865	0.841048	0.232513	3	0.0543792	12	0.000195554
2	1	0	1	0	506.657	0.850865	0.851121	0.257289	3	0.0546243	12	0.000218984
2	1	0	1	0	507.657	0.860866	0.860779	0.284591	3	0.0548955	12	0.00024497
2	1	0	1	0	508.657	0.870866	0.870919	0.314333	3	0.0551951	12	0.000273759
2	1	0	1	0	509.657	0.880866	0.8812	0.347113	3	0.0555261	12	0.000305876
2	1	0	1	0	510.657	0.890866	0.891077	0.383253	3	0.0558913	12	0.000341508
2	1	0	1	0	511.657	0.900866	0.900802	0.423277	3	0.0562944	12	0.000381289
2	1	0	1	0	512.657	0.910867	0.911111	0.464656	3	0.0567385	12	0.000423353
2	1	0	1	0	513.657	0.920867	0.92107	0.509028	3	0.0572256	12	0.00046885
2	1	0	1	0	514.657	0.930867	0.931151	0.554664	3	0.0577575	12	0.000516476
2	1	0	1	0	515.657	0.940867	0.940896	0.600544	3	0.0583356	12	0.00056505
2	1	0	1	0	516.657	0.950867	0.950949	0.649219	3	0.0589608	12	0.000617374
2	1	0	0	0	517.657	0.960867	0.961078	0.697674	3	0.0596349	12	0.000670519
2	1	0	0	0	518.657	0.970868	0.971229	0.747303	3	0.0603578	12	0.000725803
2	1	0	0	0	519.657	0.980868	0.981201	0.797929	3	0.061131	12	0.000782929
2	1	0	0	0	520.657	0.990868	0.991394	0.846279	3	0.0619553	12	0.000838995
2	1	0	0	0	521.572	1.00002	1.0003	0.89489	3	0.0627543	12	0.000895161
2	1	0	0	0	522.527	0.990468	0.990616	0.789812	3	0.0635552	12	0.0007824
2	1	0	0	0	523.527	0.980468	0.980559	0.706131	3	0.0643014	12	0.000692404
2	1	0	0	0	524.527	0.970468	0.970895	0.634466	3	0.06497	12	0.000615999
2	1	0	0	0	525.527	0.960468	0.960598	0.573607	3	0.0655735	12	0.000551006
2	1	0	1	0	526.527	0.950467	0.950579	0.519747	3	0.0661193	12	0.000494061
2	1	0	1	0	527.528	0.940467	0.940602	0.470074	3	0.0666132	12	0.000442153
2	1	0	1	0	528.528	0.930467	0.930616	0.426093	3	0.0670607	12	0.000396529
2	1	0	1	0	529.528	0.920467	0.920853	0.38601	3	0.0674658	12	0.000355459
2	1	0	1	0	530.528	0.910467	0.910991	0.349551	3	0.0678326	12	0.000318438
2	1	0	1	0	531.528	0.900466	0.900675	0.31629	3	0.068165	12	0.000284874
2	1	0	1	0	532.528	0.890466	0.89073	0.285957	3	0.0684656	12	0.000254711
2	1	0	1	0	533.528	0.880466	0.880756	0.258614	3	0.0687373	12	0.000227776
2	1	0	1	0	534.528	0.870466	0.870633	0.233741	3	0.068983	12	0.000203503
2	1	0	1	0	535.528	0.860466	0.860855	0.210903	3	0.0692047	12	0.000181557
2	1	0	1	0	536.528	0.850465	0.850706	0.190506	3	0.0694049	12	0.000162064
2	1	0	0	0	537.528	0.840465	0.84054	0.171839	3	0.0695857	12	0.000144437
2	1	0	0	0	538.528	0.830465	0.830798	0.155093	3	0.0697486	12	0.000128851
2	1	0	0	0	539.528	0.820465	0.820956	0.13959	3	0.0698955	12	0.000114597
2	1	0	0	0	540.528	0.810465	0.81081	0.125598	3	0.0700277	12	0.000101836
2	1	0	0	0	541.528	0.800464	0.800521	0.112678	3	0.0701464	12	9.02009e-05
2	1	0	0	0	542.528	0.790464	0.790427	0.100801	3	0.0702528	12	7.96756e-05
2	1	0	0	0	543.528	0.780464	0.780566	0.0898145	3	0.0703477	12	7.01062e-05
2	1	0	0	0	544.528	0.770464	0.770456	0.0796019	3	0.0704321	12	6.13298e-05
2	1	0	0	0	545.528	0.760464	0.760608	0.0700931	3	0.0705065	12	5.33134e-05
2	1	0	0	0	546.528	0.750464	0.750675	0.0612058	3	0.0705718	12	4.59457e-05
2	1	0	1	0	547.528	0.740463	0.740724	0.0529474	3	0.0706286	12	3.92194e-05
2	1	0	1	0	548.558	0.730163	0.730443	0.0448785	3	0.0706788	13	3.27812e-05
2	1	0	1	0	549.558	0.720163	0.720082	0.0381001	3	0.0707202	13	2.74352e-05
2	1	0	1	0	550.558	0.710163	0.71063	0.032014	3	0.0707551	13	2.27501e-05
2	1	0	1	0	551.558	0.700163	0.700739	0.0266547	3	0.0707844	13	1.8678e-05
2	1	0	1	0	552.558	0.690162	0.690585	0.0219831	3	0.0708086	13	1.51812e-05
2	1	0	1	0	553.558	0.680162	0.680126	0.0180011	3	0.0708285	13	1.2243e-05
2	1	0	1	0	554.558	0.670162	0.670272	0.0147217	3	0.0708449	13	9.86754e-06
2	1	0	1	0	555.558	0.660162	0.660508	0.0120171	3	0.0708582	13	7.93738e-06
2	1	0	1	0	556.558	0.650162	0.65053	0.00985804	3	0.0708691	13	6.41295e-06
2	1	0	1	0	557.558	0.640162	0.640372	0.00817306	3	0.0708781	13	5.2338e-06
2	1	0	0	0	558.558	0.630161	0.630188	0.0068518	3	0.0708856	13	4.31792e-06
2	1	0	0	0	559.558	0.620161	0.620453	0.00587276	3	0.070892	13	3.64377e-06
2	1	0	0	0	560.558	0.610161	0.610213	0.00512719	3	0.0708975	13	3.12868e-06
2	1	0	0	0	561.558	0.600161	0.600379	0.00454976	3	0.0709024	13	2.73158e-06
2	1	0	0	0	562.558	0.590161	0.590207	0.0041018	3	0.0709067	13	2.42091e-06
2	1	0	0	0	563.558	0.58016	0.580255	0.0037307	3	0.0709107	13	2.16476e-06
2	1	0	0	0	564.558	0.57016	0.570076	0.00344033	3	0.0709143	13	1.96125e-06
2	1	0	0	0	565.558	0.56016	0.560182	0.00319172	3	0.0709177	13	1.78795e-06
2	1	0	0	0	566.558	0.55016	0.550292	0.00294754	3	0.0709208	13	1.62201e-06
2	1	0	0	0	567.558	0.54016	0.540353	0.0027231	3	0.0709236	13	1.47143e-06
2	1	0	0	0	568.558	0.53016	0.530015	0.00253435	3	0.0709263	13	1.34324e-06
2	1	0	1	0	569.558	0.520159	0.520351	0.00236271	3	0.0709288	13	1.22944e-06
2	1	0	1	0	570.558	0.510159	0.510227	0.0021924	3	0.0709311	13	1.11862e-06
2	1	0	1	0	571.558	0.500159	0.500079	0.00203139	3	0.0709332	13	1.01585e-06
2	1	0	1	0	572.558	0.490159	0.490391	0.00185407	3	0.0709352	13	9.09219e-07
2	1	0	1	0	573.558	0.480159	0.479957	0.00173717	3	0.0709371	13	8.33769e-07
2	1	0	1	0	574.558	0.470158	0.470335	0.00160196	3	0.0709388	13	7.53459e-07
2	1	0	1	0	575.558	0.460158	0.460132	0.00144699	3	0.0709403	13	6.65808e-07
2	1	0	1	0	576.558	0.450158	0.450034	0.0013018	3	0.0709417	13	5.85852e-07
2	1	0	1	0	577.558	0.440158	0.440447	0.00112435	3	0.070943	13	4.95215e-07
2	1	0	1	0	578.558	0.430158	0.430363	0.000906204	3	0.070944	13	3.89997e-07
2	1	0	0	0	579.559	0.420157	0.420346	0.000752462	3	0.0709448	13	3.16294e-07
2	1	0	0	0	580.559	0.410157	0.410053	0.000639515	3	0.0709455	13	2.62235e-07
2	1	0	0	0	581.559	0.400157	0.400095	0.000536121	3	0.0709461	13	2.14499e-07
2	1	0	0	0	582.559	0.390157	0.390124	0.00040735	3	0.0709465	13	1.58917e-07
2	1	0	0	0	583.559	0.380157	0.38042	2.02856e-05	3	0.0709468	13	7.71705e-09
2	1	0	0	0	584.559	0.370157	0.370322	-0.000570765	3	0.0709463	13	-2.11367e-07
2	1	0	0	0	585.559	0.360156	0.360599	2.78895e-06	3	0.0709462	13	1.00569e-09
2	1	0	0	0	586.559	0.350156	0.350404	-6.99132e-06	3	0.0709462	13	-2.44978e-09
2	1	0	0	0	587.559	0.340156	0.340435	0.000190276	3	0.0709464	13	6.47766e-08
2	1	0	0	0	588.559	0.330156	0.330467	0.000324706	3	0.0709467	13	1.07305e-07
2	1	0	0	0	589.559	0.320156	0.320297	0.000363283	3	0.0709471	13	1.16358e-07
2	1	0	1	0	590.559	0.310155	0.310086	0.000377202	3	0.0709475	13	1.16965e-07
2	1	0	1	0	591.559	0.300155	0.300333	0.000365967	3	0.0709479	13	1.09912e-07
2	1	0	1	0	592.559	0.290155	0.290349	0.000338036	3	0.0709483	13	9.81485e-08
2	1	0	1	0	593.559	0.280155	0.280289	0.000323172	3	0.0709487	13	9.05815e-08
2	1	0	1	0	594.559	0.270155	0.270029	0.000282641	3	0.0709491	13	7.63214e-08
2	1	0	1	0	595.559	0.260155	0.260408	0.000257667	3	0.0709494	13	6.70986e-08
2	1	0	1	0	596.559	0.250154	0.250186	0.000239765	3	0.0709497	13	5.99859e-08
2	1	0	1	0	597.559	0.240154	0.240614	0.000235536	3	0.07095	13	5.66732e-08
2	1	0	1	0	598.559	0.230154	0.230311	0.000211775	3	0.0709503	13	4.87742e-08
2	1	0	1	0	599.559	0.220154	0.220199	0.000169211	3	0.0709505	13	3.72602e-08
2	1	0	0	0	600.559	0.210154	0.210511	0.000164537	3	0.0709508	13	3.46369e-08
2	1	0	0	0	601.559	0.200153	0.200436	0.000132733	3	0.070951	13	2.66045e-08
2	1	0	0	0	602.559	0.190153	0.190356	0.000109009	3	0.0709512	13	2.07506e-08
2	1	0	0	0	603.559	0.180153	0.180097	8.03845e-05	3	0.0709513	13	1.4477e-08
2	1	0	0	0	604.559	0.170153	0.170287	7.44845e-05	3	0.0709515	13	1.26837e-08
2	1	0	0	0	605.559	0.160153	0.160519	6.64013e-05	3	0.0709516	13	1.06586e-08
2	1	0	0	0	606.559	0.150152	0.150439	4.79928e-05	3	0.0709517	13	7.22e-09
2	1	0	0	0	607.559	0.140152	0.140325	4.22268e-05	3	0.0709518	13	5.92549e-09
2	1	0	0	0	608.559	0.130152	0.130392	-3.98458e-06	3	0.0709519	13	-5.19559e-10
2	1	0	0	0	609.559	0.120152	0.120182	1.1485e-05	3	0.070952	13	1.38029e-09
2	1	0	0	0	610.559	0.110152	0.110136	-1.90226e-05	3	0.070952	13	-2.09506e-09
2	1	0	1	0	611.559	0.100152	0.100522	-2.17052e-05	3	0.0709521	13	-2.18185e-09
2	1	0	1	0	612.559	0.0901514	0.0903464	-2.94098e-05	3	0.0709521	13	-2.65707e-09
2	1	0	1	0	613.559	0.0801512	0.0802895	-3.08992e-05	3	0.0709521	13	-2.48088e-09
2	1	0	1	0	614.559	0.070151	0.0702199	-5.42398e-05	3	0.0709521	13	-3.80871e-09
2	1	0	1	0	615.559	0.0601508	0.0604293	-5.51739e-05	3	0.0709521	13	-3.33412e-09
2	1	0	1	0	616.559	0.0501506	0.0504965	-5.24087e-05	3	0.0709521	13	-2.64646e-09
2	1	0	1	0	617.559	0.0401504	0.0401087	-5.44004e-05	3	0.0709521	13	-2.18193e-09
2	1	0	1	0	618.559	0.0301502	0.030056	-6.00883e-05	3	0.070952	13	-1.80602e-09
2	1	0	1	0	619.559	0.0201501	0.0203153	-9.60171e-05	3	0.070952	13	-1.95061e-09
2	1	0	1	0	620.559	0.0101499	0.0104048	-7.58687e-05	3	0.0709519	13	-7.89398e-10
2	1	0	0	0	621.539	0.000349697	0.0006515	-9.09515e-05	3	0.0709519	13	-5.92549e-11
2	1	0	1	0	621.569	-3.09883e-07	0.00019517	-0.00111802	3	0.0709519	13	-2.18204e-10