File: Data_1mg/2023_01_31 NiNx 1 mg 307ref set1_C05.mpt
EC-Lab ASCII FILE
Nb header lines : 63

Potentio Electrochemical Impedance Spectroscopy

Run on channel : 5 (SN 30436)
User :
CE vs. WE compliance from -10 V to 10 V
Electrode connection : standard
Potential control : Ewe
Ewe ctrl range : min = -10.00 V, max = 10.00 V
Safety Limits :
	Do not start on E overload
Acquisition started on : 01/31/2023 10:41:20.236
Loaded Setting File :  NONE
Saved on :
	File : 2023_01_31 NiNx 1 mg 307ref set1_C05.mpr
	Directory : C:\Users\grupogalan\Documents\EC-Lab\Data\Scott\
	Host : 169.254.104.159
Device : VSP (SN 1176)
Address : USB
EC-Lab for windows v11.46 (software)
Internet server v11.40 (firmware)
Command interpretor v11.40 (firmware)
Electrode material :
Initial state :
Electrolyte :
Comments :
Electrode surface area : 0.001 cm²
Characteristic mass : 0.001 g
Equivalent Weight : 0.000 g/eq.
Density : 0.000 g/cm3
Volume (V) : 0.001 cm³
Cycle Definition : Charge/Discharge alternance
Mode                Single sine
E (V)               0.0000
vs.                 Eoc
tE (h:m:s)          0:00:0.0000
record              0
dI                  0.000
unit dI             mA
dt (s)              0.000
fi                  200.000
unit fi             kHz
ff                  100.000
unit ff             mHz
Nd                  6
Points              per decade
spacing             Logarithmic
Va (mV)             10.0
pw                  0.10
Na                  2
corr                0
E range min (V)     -10.000
E range max (V)     10.000
I Range             Auto
Bandwidth           5
nc cycles           0
goto Ns'            0
nr cycles           0
inc. cycle          0

freq/Hz	Re(Z)/Ohm	-Im(Z)/Ohm	|Z|/Ohm	Phase(Z)/deg	time/s	<Ewe>/V	<I>/mA	Cs/µF	Cp/µF	cycle number	I Range	|Ewe|/V	|I|/A	Ns	(Q-Qo)/mA.h	Re(Y)/Ohm-1	Im(Y)/Ohm-1	|Y|/Ohm-1	Phase(Y)/deg	Re(C)/nF	Im(C)/nF	|C|/nF	Phase(C)/deg	Re(M)	Im(M)	|M|	Phase(M)/deg	Re(Permittivity)	Im(Permittivity)	|Permittivity|	Phase(Permittivity)/deg	Re(Resistivity)/Ohm.cm	Im(Resistivity)/Ohm.cm	|Resistivity|/Ohm.cm	Phase(Resistivity)/deg	Re(Conductivity)/mS/cm	Im(Conductivity)/mS/cm	|Conductivity|/mS/cm	Phase(Conductivity)/deg	Tan(Delta)	Loss Angle(Delta)/deg	dq/mA.h
199998	1.57645	-1.42248	2.12335	42.061	2.7335	-0.204078	-0.170366	-0.559433	-0.25107	1	9	0.00713426	0.0033599	0	-2.60027e-05	0.349651	-0.315501	0.470953	-42.061	-251.07	278.246	374.776	-132.061	0.0000000E+000	0.0000000E+000	0.0000000E+000	132.061	0.0000000E+000	0.0000000E+000	0.0000000E+000	-132.061	0.0000000E+000	0.0000000E+000	0.0000000E+000	42.061	0.0000000E+000	0.0000000E+000	0.0000000E+000	-42.061	-1.10824	-42.061	-2.60027e-05
135123	1.15987	-0.592197	1.3023	27.0476	3.15548	-0.204018	-0.167328	-1.98896	-0.411276	1	9	0.00996131	0.00764899	0	-3.42605e-05	0.683888	-0.349174	0.76787	-27.0476	-411.276	805.52	904.439	-117.048	0.0000000E+000	0.0000000E+000	0.0000000E+000	117.048	0.0000000E+000	0.0000000E+000	0.0000000E+000	-117.048	0.0000000E+000	0.0000000E+000	0.0000000E+000	27.0476	0.0000000E+000	0.0000000E+000	0.0000000E+000	-27.0476	-1.95859	-27.0476	-8.25781e-06
91291.2	1.11152	-0.243543	1.13789	12.3587	3.57747	-0.204111	-0.172285	-7.15839	-0.327919	1	9	0.00968938	0.00851522	0	-7.07213e-05	0.858455	-0.188094	0.87882	-12.3587	-327.919	1496.61	1532.11	-102.359	0.0000000E+000	0.0000000E+000	0.0000000E+000	102.359	0.0000000E+000	0.0000000E+000	0.0000000E+000	-102.359	0.0000000E+000	0.0000000E+000	0.0000000E+000	12.3587	0.0000000E+000	0.0000000E+000	0.0000000E+000	-12.3587	-4.56396	-12.3587	-3.64609e-05
61674.2	1.13428	-0.088733	1.13774	4.47306	3.99949	-0.203894	-0.165371	-29.0825	-0.176894	1	9	0.0105511	0.00927366	0	-0.000103744	0.876255	-0.0685482	0.878932	-4.47306	-176.894	2261.24	2268.15	-94.4731	0.0000000E+000	0.0000000E+000	0.0000000E+000	94.4731	0.0000000E+000	0.0000000E+000	0.0000000E+000	-94.4731	0.0000000E+000	0.0000000E+000	0.0000000E+000	4.47306	0.0000000E+000	0.0000000E+000	0.0000000E+000	-4.47306	-12.7831	-4.47306	-3.30224e-05
41669.8	1.14808	0.0271719	1.1484	-1.35578	4.42148	-0.203904	-0.159949	140.566	0.0786917	1	9	0.0107549	0.00936507	0	-0.000105706	0.87053	0.020603	0.870773	1.35578	78.6916	3324.93	3325.86	-88.6442	0.0000000E+000	0.0000000E+000	0.0000000E+000	88.6442	0.0000000E+000	0.0000000E+000	0.0000000E+000	-88.6442	0.0000000E+000	0.0000000E+000	0.0000000E+000	-1.35578	0.0000000E+000	0.0000000E+000	0.0000000E+000	1.35578	42.2526	1.35578	-1.9626e-06
28151	1.17836	0.152124	1.18814	-7.35607	4.84349	-0.203986	-0.17221	37.1647	0.609241	1	9	0.0108207	0.00910729	0	-0.000127925	0.834725	0.107761	0.841652	7.35607	609.241	4719.22	4758.38	-82.6439	0.0000000E+000	0.0000000E+000	0.0000000E+000	82.6439	0.0000000E+000	0.0000000E+000	0.0000000E+000	-82.6439	0.0000000E+000	0.0000000E+000	0.0000000E+000	-7.35607	0.0000000E+000	0.0000000E+000	0.0000000E+000	7.35607	7.74607	7.35607	-2.22189e-05
19020.9	1.16924	0.247886	1.19523	-11.9698	5.26548	-0.203938	-0.164831	33.7549	1.45191	1	9	0.0107275	0.00897527	0	-0.00013619	0.81847	0.173521	0.836662	11.9698	1451.91	6848.43	7000.65	-78.0302	0.0000000E+000	0.0000000E+000	0.0000000E+000	78.0302	0.0000000E+000	0.0000000E+000	0.0000000E+000	-78.0302	0.0000000E+000	0.0000000E+000	0.0000000E+000	-11.9698	0.0000000E+000	0.0000000E+000	0.0000000E+000	11.9698	4.71685	11.9698	-8.26467e-06
12850.7	1.21007	0.386055	1.27016	-17.6946	5.68748	-0.20399	-0.157843	32.0806	2.96365	1	9	0.0107528	0.00846572	0	-0.000173357	0.750057	0.239295	0.787304	17.6946	2963.65	9289.37	9750.68	-72.3054	0.0000000E+000	0.0000000E+000	0.0000000E+000	72.3054	0.0000000E+000	0.0000000E+000	0.0000000E+000	-72.3054	0.0000000E+000	0.0000000E+000	0.0000000E+000	-17.6946	0.0000000E+000	0.0000000E+000	0.0000000E+000	17.6946	3.13444	17.6946	-3.71673e-05
8683.37	1.2255	0.57442	1.35344	-25.1136	6.13698	-0.203989	-0.164328	31.9082	5.74755	1	9	0.010483	0.00774542	0	-0.000197772	0.669012	0.313582	0.738857	25.1136	5747.55	12262.1	13542.3	-64.8864	0.0000000E+000	0.0000000E+000	0.0000000E+000	64.8864	0.0000000E+000	0.0000000E+000	0.0000000E+000	-64.8864	0.0000000E+000	0.0000000E+000	0.0000000E+000	-25.1136	0.0000000E+000	0.0000000E+000	0.0000000E+000	25.1136	2.13345	25.1136	-2.44148e-05
5865.09	1.25086	0.814106	1.49245	-33.0577	6.75084	-0.203944	-0.169807	33.3323	9.91807	1	9	0.009952	0.00666823	0	-0.000228996	0.561574	0.365495	0.670039	33.0577	9918.07	15238.9	18182.2	-56.9423	0.0000000E+000	0.0000000E+000	0.0000000E+000	56.9423	0.0000000E+000	0.0000000E+000	0.0000000E+000	-56.9423	0.0000000E+000	0.0000000E+000	0.0000000E+000	-33.0577	0.0000000E+000	0.0000000E+000	0.0000000E+000	33.0577	1.53648	33.0577	-3.12237e-05
3961.2	1.32969	1.17754	1.77614	-41.5271	7.21396	-0.203976	-0.15598	34.1208	14.9973	1	9	0.01026	0.00577656	0	-0.000250353	0.421499	0.373267	0.563019	41.5271	14997.3	16935.2	22621.2	-48.4729	0.0000000E+000	0.0000000E+000	0.0000000E+000	48.4729	0.0000000E+000	0.0000000E+000	0.0000000E+000	-48.4729	0.0000000E+000	0.0000000E+000	0.0000000E+000	-41.5271	0.0000000E+000	0.0000000E+000	0.0000000E+000	41.5271	1.12922	41.5271	-2.13576e-05
2677.43	1.38398	1.71551	2.20417	-51.1053	7.67594	-0.204006	-0.162819	34.6505	20.9896	1	9	0.00982815	0.00445889	0	-0.000268997	0.284865	0.353104	0.453686	51.1053	20989.6	16933.3	26968.5	-38.8947	0.0000000E+000	0.0000000E+000	0.0000000E+000	38.8947	0.0000000E+000	0.0000000E+000	0.0000000E+000	-38.8947	0.0000000E+000	0.0000000E+000	0.0000000E+000	-51.1053	0.0000000E+000	0.0000000E+000	0.0000000E+000	51.1053	0.806746	51.1053	-1.86436e-05
1808.26	1.45562	2.43233	2.83462	-59.1017	8.13793	-0.204025	-0.167254	36.1856	26.6435	1	9	0.00923346	0.00325739	0	-0.000292814	0.181159	0.302715	0.352781	59.1017	26643.5	15944.8	31050.2	-30.8983	0.0000000E+000	0.0000000E+000	0.0000000E+000	30.8983	0.0000000E+000	0.0000000E+000	0.0000000E+000	-30.8983	0.0000000E+000	0.0000000E+000	0.0000000E+000	-59.1017	0.0000000E+000	0.0000000E+000	0.0000000E+000	59.1017	0.598448	59.1017	-2.38174e-05
1221.96	1.49242	3.5621	3.86211	-67.2677	8.85043	-0.203769	-0.0184159	36.5644	31.1044	1	10	0.00942113	0.00243938	0	-0.00030952	0.100056	0.238813	0.258926	67.2677	31104.4	13031.9	33724.1	-22.7323	0.0000000E+000	0.0000000E+000	0.0000000E+000	22.7323	0.0000000E+000	0.0000000E+000	0.0000000E+000	-22.7323	0.0000000E+000	0.0000000E+000	0.0000000E+000	-67.2677	0.0000000E+000	0.0000000E+000	0.0000000E+000	67.2677	0.418972	67.2677	-1.6706e-05
825.264	1.62859	5.16351	5.41426	-72.4945	9.53271	-0.204001	-0.0194132	37.3492	33.9699	1	10	0.00992579	0.00183327	0	-0.000310763	0.0555564	0.176144	0.184698	72.4945	33969.9	10714.2	35619.5	-17.5055	0.0000000E+000	0.0000000E+000	0.0000000E+000	17.5055	0.0000000E+000	0.0000000E+000	0.0000000E+000	-17.5055	0.0000000E+000	0.0000000E+000	0.0000000E+000	-72.4945	0.0000000E+000	0.0000000E+000	0.0000000E+000	72.4945	0.315403	72.4945	-1.24295e-06
558.036	1.85557	7.46165	7.68891	-76.0349	9.99644	-0.20411	-0.020211	38.2229	35.9967	1	10	0.00968902	0.00126013	0	-0.000312322	0.0313869	0.126213	0.130057	76.0349	35996.7	8951.72	37093.1	-13.9651	0.0000000E+000	0.0000000E+000	0.0000000E+000	13.9651	0.0000000E+000	0.0000000E+000	0.0000000E+000	-13.9651	0.0000000E+000	0.0000000E+000	0.0000000E+000	-76.0349	0.0000000E+000	0.0000000E+000	0.0000000E+000	76.0349	0.248681	76.0349	-1.55859e-06
377.051	2.16568	10.9617	11.1736	-78.8242	10.4557	-0.203752	-0.0183917	38.5072	37.0606	1	10	0.0096754	0.000865917	0	-0.000314842	0.0173463	0.0877996	0.0894967	78.8242	37060.6	7321.96	37777	-11.1759	0.0000000E+000	0.0000000E+000	0.0000000E+000	11.1759	0.0000000E+000	0.0000000E+000	0.0000000E+000	-11.1759	0.0000000E+000	0.0000000E+000	0.0000000E+000	-78.8242	0.0000000E+000	0.0000000E+000	0.0000000E+000	78.8242	0.197567	78.8242	-2.52061e-06
254.755	2.39282	15.8953	16.0744	-81.4392	10.918	-0.203921	-0.0194505	39.3032	38.4323	1	10	0.00959862	0.000597137	0	-0.000317807	0.00926066	0.0615176	0.0622108	81.4392	38432.3	5785.47	38865.3	-8.56084	0.0000000E+000	0.0000000E+000	0.0000000E+000	8.56084	0.0000000E+000	0.0000000E+000	0.0000000E+000	-8.56084	0.0000000E+000	0.0000000E+000	0.0000000E+000	-81.4392	0.0000000E+000	0.0000000E+000	0.0000000E+000	81.4392	0.150537	81.4392	-2.965e-06
172.037	2.91534	23.2491	23.4312	-82.8527	11.3744	-0.203972	-0.0194207	39.7917	39.1757	1	10	0.00963889	0.000411371	0	-0.000319818	0.00531008	0.0423466	0.0426782	82.8527	39175.7	4912.47	39482.5	-7.14734	0.0000000E+000	0.0000000E+000	0.0000000E+000	7.14734	0.0000000E+000	0.0000000E+000	0.0000000E+000	-7.14734	0.0000000E+000	0.0000000E+000	0.0000000E+000	-82.8527	0.0000000E+000	0.0000000E+000	0.0000000E+000	82.8527	0.125396	82.8527	-2.01035e-06
116.227	3.67008	32.7449	32.95	-83.6049	12.0807	-0.203875	-0.00268734	41.8184	41.2996	1	11	0.00939137	0.000285019	0	-0.000321521	0.00338038	0.0301602	0.0303491	83.6049	41299.6	4628.9	41558.2	-6.39507	0.0000000E+000	0.0000000E+000	0.0000000E+000	6.39507	0.0000000E+000	0.0000000E+000	0.0000000E+000	-6.39507	0.0000000E+000	0.0000000E+000	0.0000000E+000	-83.6049	0.0000000E+000	0.0000000E+000	0.0000000E+000	83.6049	0.112081	83.6049	-1.70329e-06
78.5176	5.7746	48.8749	49.2149	-83.2617	12.5505	-0.203835	-0.00231657	41.4731	40.9022	1	11	0.00965715	0.000196224	0	-0.000321808	0.00238412	0.0201787	0.0203191	83.2617	40902.2	4832.61	41186.7	-6.73829	0.0000000E+000	0.0000000E+000	0.0000000E+000	6.73829	0.0000000E+000	0.0000000E+000	0.0000000E+000	-6.73829	0.0000000E+000	0.0000000E+000	0.0000000E+000	-83.2617	0.0000000E+000	0.0000000E+000	0.0000000E+000	83.2617	0.118151	83.2617	-2.86759e-07
53.0478	6.16014	70.2775	70.547	-84.9906	13.0271	-0.204083	-0.00254306	42.691	42.3655	1	11	0.00952166	0.000134969	0	-0.000322196	0.00123775	0.0141208	0.014175	84.9906	42365.5	3713.52	42527.9	-5.00943	0.0000000E+000	0.0000000E+000	0.0000000E+000	5.00943	0.0000000E+000	0.0000000E+000	0.0000000E+000	-5.00943	0.0000000E+000	0.0000000E+000	0.0000000E+000	-84.9906	0.0000000E+000	0.0000000E+000	0.0000000E+000	84.9906	0.0876545	84.9906	-3.88345e-07
35.8372	8.59597	102.595	102.954	-85.2106	13.4791	-0.203892	-0.00240643	43.2873	42.9855	1	11	0.00958113	9.30618e-05	0	-0.000322529	0.000810969	0.00967912	0.00971303	85.2106	42985.5	3601.56	43136.1	-4.78937	0.0000000E+000	0.0000000E+000	0.0000000E+000	4.78937	0.0000000E+000	0.0000000E+000	0.0000000E+000	-4.78937	0.0000000E+000	0.0000000E+000	0.0000000E+000	-85.2106	0.0000000E+000	0.0000000E+000	0.0000000E+000	85.2106	0.0837855	85.2106	-3.32857e-07
24.2323	13.6962	147.03	147.666	-84.6781	13.9541	-0.204002	-0.00295895	44.6705	44.2862	1	11	0.00942325	6.38146e-05	0	-0.000322734	0.000628115	0.00674284	0.00677203	84.6781	44286.2	4125.38	44477.9	-5.32191	0.0000000E+000	0.0000000E+000	0.0000000E+000	5.32191	0.0000000E+000	0.0000000E+000	0.0000000E+000	-5.32191	0.0000000E+000	0.0000000E+000	0.0000000E+000	-84.6781	0.0000000E+000	0.0000000E+000	0.0000000E+000	84.6781	0.0931529	84.6781	-2.04756e-07
16.367	19.8692	215.974	216.886	-84.7437	14.617	-0.204014	-0.000546611	45.0247	44.6468	1	12	0.00952268	4.39064e-05	0	-0.000322725	0.000422394	0.00459133	0.00461072	84.7437	44646.8	4107.42	44835.3	-5.25631	0.0000000E+000	0.0000000E+000	0.0000000E+000	5.25631	0.0000000E+000	0.0000000E+000	0.0000000E+000	-5.25631	0.0000000E+000	0.0000000E+000	0.0000000E+000	-84.7437	0.0000000E+000	0.0000000E+000	0.0000000E+000	84.7437	0.0919982	84.7437	8.2605e-09
11.0502	25.573	309.708	310.762	-85.2797	15.0407	-0.203833	-6.72391e-05	46.5048	46.1899	1	12	0.00960139	3.08963e-05	0	-0.000322949	0.000264806	0.00320699	0.0032179	85.2797	46189.9	3813.97	46347.1	-4.72029	0.0000000E+000	0.0000000E+000	0.0000000E+000	4.72029	0.0000000E+000	0.0000000E+000	0.0000000E+000	-4.72029	0.0000000E+000	0.0000000E+000	0.0000000E+000	-85.2797	0.0000000E+000	0.0000000E+000	0.0000000E+000	85.2797	0.0825716	85.2797	-2.23969e-07
7.46893	19.9427	444.083	444.531	-87.4287	15.3666	-0.203963	-0.0008235	47.9841	47.8875	1	12	0.00940526	2.11577e-05	0	-0.000322901	0.00010092	0.0022473	0.00224956	87.4287	47887.5	2150.51	47935.8	-2.57128	0.0000000E+000	0.0000000E+000	0.0000000E+000	2.57128	0.0000000E+000	0.0000000E+000	0.0000000E+000	-2.57128	0.0000000E+000	0.0000000E+000	0.0000000E+000	-87.4287	0.0000000E+000	0.0000000E+000	0.0000000E+000	87.4287	0.0449075	87.4287	4.79575e-08
5.04683	45.5942	654.992	656.577	-86.0181	15.8299	-0.203898	-0.000620997	48.1465	47.9143	1	12	0.00956714	1.45712e-05	0	-0.000323151	0.000105764	0.00151937	0.00152305	86.0181	47914.4	3335.33	48030.3	-3.98195	0.0000000E+000	0.0000000E+000	0.0000000E+000	3.98195	0.0000000E+000	0.0000000E+000	0.0000000E+000	-3.98195	0.0000000E+000	0.0000000E+000	0.0000000E+000	-86.0181	0.0000000E+000	0.0000000E+000	0.0000000E+000	86.0181	0.0696103	86.0181	-2.49284e-07
3.4086	91.2536	982.203	986.433	-84.6921	16.8292	-0.20399	-0.000183684	47.5383	47.1314	1	13	0.00947824	9.6086e-06	0	-0.000323047	9.3781e-05	0.00100941	0.00101375	84.6921	47131.4	4378.84	47334.4	-5.30795	0.0000000E+000	0.0000000E+000	0.0000000E+000	5.30795	0.0000000E+000	0.0000000E+000	0.0000000E+000	-5.30795	0.0000000E+000	0.0000000E+000	0.0000000E+000	-84.6921	0.0000000E+000	0.0000000E+000	0.0000000E+000	84.6921	0.092907	84.6921	1.03927e-07
2.30321	126.229	1375.5	1381.28	-84.7567	17.7781	-0.203904	-0.000184756	50.2374	49.8178	1	13	0.00937231	6.78526e-06	0	-0.000323063	6.61605e-05	0.000720939	0.000723969	84.7567	49817.8	4571.77	50027.1	-5.24334	0.0000000E+000	0.0000000E+000	0.0000000E+000	5.24334	0.0000000E+000	0.0000000E+000	0.0000000E+000	-5.24334	0.0000000E+000	0.0000000E+000	0.0000000E+000	-84.7567	0.0000000E+000	0.0000000E+000	0.0000000E+000	84.7567	0.0917699	84.7567	-1.58173e-08
1.55627	199.414	2000.61	2010.53	-84.3078	19.1626	-0.203948	-0.000111754	51.1176	50.6147	1	13	0.00945237	4.70144e-06	0	-0.000323213	4.93327e-05	0.000494929	0.000497382	84.3078	50614.7	5045.08	50865.5	-5.69222	0.0000000E+000	0.0000000E+000	0.0000000E+000	5.69222	0.0000000E+000	0.0000000E+000	0.0000000E+000	-5.69222	0.0000000E+000	0.0000000E+000	0.0000000E+000	-84.3078	0.0000000E+000	0.0000000E+000	0.0000000E+000	84.3078	0.0996762	84.3078	-1.5063e-07
1.05233	222.96	2983	2991.32	-85.7255	22.1916	-0.20398	5.4916e-05	50.7008	50.4192	1	14	0.00962652	3.21815e-06	0	-0.000323379	2.49173e-05	0.000333371	0.000334301	85.7255	50419.2	3768.51	50559.8	-4.27454	0.0000000E+000	0.0000000E+000	0.0000000E+000	4.27454	0.0000000E+000	0.0000000E+000	0.0000000E+000	-4.27454	0.0000000E+000	0.0000000E+000	0.0000000E+000	-85.7255	0.0000000E+000	0.0000000E+000	0.0000000E+000	85.7255	0.0747435	85.7255	-1.65356e-07
0.710357	528.265	4214.09	4247.07	-82.8548	25.1822	-0.203962	-3.54994e-05	53.1668	52.3442	1	14	0.00949418	2.23547e-06	0	-0.000323402	2.92869e-05	0.000233628	0.000235456	82.8548	52344.2	6561.71	52753.9	-7.14516	0.0000000E+000	0.0000000E+000	0.0000000E+000	7.14516	0.0000000E+000	0.0000000E+000	0.0000000E+000	-7.14516	0.0000000E+000	0.0000000E+000	0.0000000E+000	-82.8548	0.0000000E+000	0.0000000E+000	0.0000000E+000	82.8548	0.125357	82.8548	-2.28521e-08
0.480355	654.763	6088.55	6123.66	-83.862	29.5885	-0.203974	-7.40623e-06	54.4181	53.7959	1	14	0.00944769	1.54282e-06	0	-0.000323371	1.74607e-05	0.000162365	0.000163301	83.862	53795.9	5785.21	54106.1	-6.13799	0.0000000E+000	0.0000000E+000	0.0000000E+000	6.13799	0.0000000E+000	0.0000000E+000	0.0000000E+000	-6.13799	0.0000000E+000	0.0000000E+000	0.0000000E+000	-83.862	0.0000000E+000	0.0000000E+000	0.0000000E+000	83.862	0.10754	83.862	3.0408e-08