File: Data_1mg/2023_01_31_Co45Ni45Fe10Nx 1mg ref309_04_CP_C05.mpt
EC-Lab ASCII FILE
Nb header lines : 53

Chronopotentiometry

Run on channel : 5 (SN 30436)
User :
CE vs. WE compliance from -10 V to 10 V
Electrode connection : standard
Potential control : Ewe
Ewe ctrl range : min = -10.00 V, max = 10.00 V
Safety Limits :
	Do not start on E overload
Acquisition started on : 01/31/2023 13:05:58.350
Loaded Setting File :  C:\Users\grupogalan\Documents\EC-Lab\Data\Scott\_cyclic_pause_tafel_CA.mps
Saved on :
	File : 2023_01_31_Co45Ni45Fe10Nx 1mg ref309_04_CP_C05.mpr
	Directory : C:\Users\grupogalan\Documents\EC-Lab\Data\Scott\
	Host : 169.254.104.159
Device : VSP (SN 1176)
Address : USB
EC-Lab for windows v11.46 (software)
Internet server v11.40 (firmware)
Command interpretor v11.40 (firmware)
Electrode material :
Initial state :
Electrolyte :
Comments :
Electrode surface area : 0.001 cm²
Characteristic mass : 0.001 g
Equivalent Weight : 0.000 g/eq.
Density : 0.000 g/cm3
Volume (V) : 0.001 cm³
Cycle Definition : Charge/Discharge alternance
Ns                  0                   1                   2                   3                   4                   5                   6                   7                   8                   9                   10                  11                  12
Is                  10.000              18.000              32.000              56.000              100.000             178.000             316.000             562.000             1.000               1.778               3.162               5.623               10.000
unit Is             µA                  µA                  µA                  µA                  µA                  µA                  µA                  µA                  mA                  mA                  mA                  mA                  mA
vs.                 <None>              <None>              <None>              <None>              <None>              <None>              <None>              <None>              <None>              <None>              <None>              <None>              <None>
ts (h:m:s)          0:03:0.0000         0:03:0.0000         0:03:0.0000         0:03:0.0000         0:03:0.0000         0:03:0.0000         0:03:0.0000         0:03:0.0000         0:03:0.0000         0:03:0.0000         0:03:0.0000         0:03:0.0000         0:03:0.0000
EM (V)              pass                pass                pass                pass                pass                pass                pass                pass                pass                pass                pass                pass                pass
dQM                 500.000             900.000             1.600               2.800               5.000               8.900               15.800              28.100              50.000              88.900              158.100             281.150             500.000
unit dQM            nA.h                nA.h                µA.h                µA.h                µA.h                µA.h                µA.h                µA.h                µA.h                µA.h                µA.h                µA.h                µA.h
record              <Ewe>               <Ewe>               <Ewe>               <Ewe>               <Ewe>               <Ewe>               <Ewe>               <Ewe>               <Ewe>               <Ewe>               <Ewe>               <Ewe>               <Ewe>
dEs (mV)            0.00                0.00                0.00                0.00                0.00                0.00                0.00                0.00                0.00                0.00                0.00                0.00                0.00
dts (s)             1.0000              1.0000              1.0000              1.0000              1.0000              1.0000              1.0000              1.0000              1.0000              1.0000              1.0000              1.0000              1.0000
E range min (V)     -10.000             -10.000             -10.000             -10.000             -10.000             -10.000             -10.000             -10.000             -10.000             -10.000             -10.000             -10.000             -10.000
E range max (V)     10.000              10.000              10.000              10.000              10.000              10.000              10.000              10.000              10.000              10.000              10.000              10.000              10.000
I Range             10 mA               10 mA               10 mA               10 mA               10 mA               10 mA               10 mA               10 mA               10 mA               10 mA               10 mA               10 mA               10 mA
Bandwidth           5                   5                   5                   5                   5                   5                   5                   5                   5                   5                   5                   5                   5
goto Ns'            0                   0                   0                   0                   0                   0                   0                   0                   0                   0                   0                   0                   0
nc cycles           0                   0                   0                   0                   0                   0                   0                   0                   0                   0                   0                   0                   0

mode	ox/red	error	control changes	Ns changes	counter inc.	Ns	time/s	control/mA	<Ewe>/V	I/mA	dQ/C	(Q-Qo)/C	half cycle	Q charge/discharge/mA.h	I Range	Energy charge/W.h	Energy discharge/W.h	Capacitance charge/µF	Capacitance discharge/µF	Q discharge/mA.h	Q charge/mA.h	Capacity/mA.h	Efficiency/%	cycle number	P/W
1	1	0	1	0	0	0	731.781	0.01	0.315329	0.010312	8.89795e-06	8.89795e-06	0	2.47165e-06	11	7.79384e-10	0.000000000000000E+000	0.000000000000000E+000	0.000000000000000E+000	0.000000000000000E+000	2.47165e-06	2.47165e-06	0.0000000E+000	0.000000000000000E+000	3.25168e-06
1	1	0	1	0	0	0	743.781	0.01	0.324068	0.00973939	0.000120679	0.000120679	0	3.35219e-05	11	1.07533e-08	0.000000000000000E+000	13809.4	0.000000000000000E+000	0.000000000000000E+000	3.35219e-05	3.35219e-05	0.0000000E+000	0.000000000000000E+000	3.15622e-06
1	1	0	1	0	0	0	755.781	0.01	0.328057	0.00948488	0.000231745	0.000231745	0	6.43736e-05	11	2.08211e-08	0.000000000000000E+000	18207.1	0.000000000000000E+000	0.000000000000000E+000	6.43736e-05	6.43736e-05	0.0000000E+000	0.000000000000000E+000	3.11158e-06
1	1	0	1	0	0	0	767.781	0.01	0.330739	0.00891223	0.000342733	0.000342733	0	9.52037e-05	11	3.09814e-08	0.000000000000000E+000	22240.1	0.000000000000000E+000	0.000000000000000E+000	9.52037e-05	9.52037e-05	0.0000000E+000	0.000000000000000E+000	2.94763e-06
1	1	0	1	0	0	0	779.781	0.01	0.332572	0.00986665	0.000453204	0.000453204	0	0.00012589	11	4.11628e-08	0.000000000000000E+000	26282.6	0.000000000000000E+000	0.000000000000000E+000	0.00012589	0.00012589	0.0000000E+000	0.000000000000000E+000	3.28137e-06
1	1	0	1	0	0	0	791.781	0.01	0.333814	0.00923037	0.000563304	0.000563304	0	0.000156473	11	5.13574e-08	0.000000000000000E+000	30473.8	0.000000000000000E+000	0.000000000000000E+000	0.000156473	0.000156473	0.0000000E+000	0.000000000000000E+000	3.08122e-06
1	1	0	1	0	0	0	803.781	0.01	0.334598	0.00910311	0.00067355	0.00067355	0	0.000187097	11	6.15954e-08	0.000000000000000E+000	34955.5	0.000000000000000E+000	0.000000000000000E+000	0.000187097	0.000187097	0.0000000E+000	0.000000000000000E+000	3.04588e-06
1	1	0	1	0	0	0	815.781	0.01	0.335071	0.00948488	0.000783631	0.000783631	0	0.000217675	11	7.18355e-08	0.000000000000000E+000	39693.3	0.000000000000000E+000	0.000000000000000E+000	0.000217675	0.000217675	0.0000000E+000	0.000000000000000E+000	3.17811e-06
1	1	0	1	0	0	0	827.781	0.01	0.334963	0.00891223	0.000893697	0.000893697	0	0.000248249	11	8.20776e-08	0.000000000000000E+000	45518.2	0.000000000000000E+000	0.000000000000000E+000	0.000248249	0.000248249	0.0000000E+000	0.000000000000000E+000	2.98526e-06
1	1	0	1	0	0	0	839.781	0.01	0.334335	0.00923037	0.00100366	0.00100366	0	0.000278793	11	9.2298e-08	0.000000000000000E+000	52807.7	0.000000000000000E+000	0.000000000000000E+000	0.000278793	0.000278793	0.0000000E+000	0.000000000000000E+000	3.08603e-06
1	1	0	1	0	0	0	851.781	0.01	0.333192	0.00897586	0.0011138	0.0011138	0	0.00030939	11	1.02511e-07	0.000000000000000E+000	62353.1	0.000000000000000E+000	0.000000000000000E+000	0.00030939	0.00030939	0.0000000E+000	0.000000000000000E+000	2.99068e-06
1	1	0	1	0	0	0	863.781	0.01	0.331624	0.00910311	0.00122393	0.00122393	0	0.000339981	11	1.1268e-07	0.000000000000000E+000	75109.6	0.000000000000000E+000	0.000000000000000E+000	0.000339981	0.000339981	0.0000000E+000	0.000000000000000E+000	3.01881e-06
1	1	0	1	0	0	0	875.781	0.01	0.329624	0.00916674	0.00133419	0.00133419	0	0.000370609	11	1.22805e-07	0.000000000000000E+000	93334.5	0.000000000000000E+000	0.000000000000000E+000	0.000370609	0.000370609	0.0000000E+000	0.000000000000000E+000	3.02157e-06
1	1	0	1	0	0	0	887.781	0.01	0.327191	0.00935762	0.00144422	0.00144422	0	0.000401171	11	1.32838e-07	0.000000000000000E+000	121748	0.000000000000000E+000	0.000000000000000E+000	0.000401171	0.000401171	0.0000000E+000	0.000000000000000E+000	3.06173e-06
1	1	0	1	0	0	0	899.781	0.01	0.32434	0.00916674	0.00155397	0.00155397	0	0.000431659	11	1.42769e-07	0.000000000000000E+000	172445	0.000000000000000E+000	0.000000000000000E+000	0.000431659	0.000431659	0.0000000E+000	0.000000000000000E+000	2.97314e-06
1	1	0	1	0	0	0	910.833	0.01	0.32125	0.00865772	0.0016549	0.0016549	0	0.000459693	11	1.5182e-07	0.000000000000000E+000	279492	0.000000000000000E+000	0.000000000000000E+000	0.000459693	0.000459693	0.0000000E+000	0.000000000000000E+000	2.78129e-06
1	1	0	0	0	0	1	922.833	0.018	0.328052	0.0170566	0.000196999	0.0018519	0	0.000514415	11	1.69699e-07	0.000000000000000E+000	145553	0.000000000000000E+000	0.000000000000000E+000	0.000514415	0.000514415	0.0000000E+000	0.000000000000000E+000	5.59545e-06
1	1	0	0	0	0	1	934.833	0.018	0.328223	0.0171839	0.000394066	0.00204896	0	0.000569156	11	1.87668e-07	0.000000000000000E+000	158909	0.000000000000000E+000	0.000000000000000E+000	0.000569156	0.000569156	0.0000000E+000	0.000000000000000E+000	5.64013e-06
1	1	0	0	0	0	1	946.833	0.018	0.327146	0.0161658	0.000591145	0.00224604	0	0.0006239	11	2.05608e-07	0.000000000000000E+000	190061	0.000000000000000E+000	0.000000000000000E+000	0.0006239	0.0006239	0.0000000E+000	0.000000000000000E+000	5.28859e-06
1	1	0	0	0	0	1	958.833	0.018	0.325105	0.0165476	0.000788174	0.00244307	0	0.000678631	11	2.23455e-07	0.000000000000000E+000	249910	0.000000000000000E+000	0.000000000000000E+000	0.000678631	0.000678631	0.0000000E+000	0.000000000000000E+000	5.37969e-06
1	1	0	0	0	0	1	970.833	0.018	0.322709	0.0160386	0.000985173	0.00264007	0	0.000733353	11	2.41181e-07	0.000000000000000E+000	357725	0.000000000000000E+000	0.000000000000000E+000	0.000733353	0.000733353	0.0000000E+000	0.000000000000000E+000	5.17579e-06
1	1	0	0	0	0	1	982.833	0.018	0.320273	0.0159749	0.00118229	0.00283719	0	0.000788108	11	2.58777e-07	0.000000000000000E+000	573851	0.000000000000000E+000	0.000000000000000E+000	0.000788108	0.000788108	0.0000000E+000	0.000000000000000E+000	5.11634e-06
1	1	0	0	0	0	1	994.833	0.018	0.317269	0.0166112	0.00137983	0.00303473	0	0.000842981	11	2.76262e-07	0.000000000000000E+000	1.564e+06	0.000000000000000E+000	0.000000000000000E+000	0.000842981	0.000842981	0.0000000E+000	0.000000000000000E+000	5.27022e-06
1	1	0	0	0	0	1	1006.83	0.018	0.314315	0.0159113	0.00157742	0.00323231	0	0.000897865	11	2.9359e-07	0.000000000000000E+000	3.18696e+06	0.000000000000000E+000	0.000000000000000E+000	0.000897865	0.000897865	0.0000000E+000	0.000000000000000E+000	5.00115e-06
1	1	0	0	0	0	1	1018.83	0.018	0.311348	0.0164203	0.00177518	0.00343008	0	0.0009528	11	3.10769e-07	0.000000000000000E+000	861543	0.000000000000000E+000	0.000000000000000E+000	0.0009528	0.0009528	0.0000000E+000	0.000000000000000E+000	5.11243e-06
1	1	0	0	0	0	1	1030.83	0.018	0.308208	0.0159113	0.00197255	0.00362744	0	0.00100762	11	3.27746e-07	0.000000000000000E+000	509391	0.000000000000000E+000	0.000000000000000E+000	0.00100762	0.00100762	0.0000000E+000	0.000000000000000E+000	4.90398e-06
1	1	0	0	0	0	1	1042.83	0.018	0.305064	0.0158477	0.00216989	0.00382478	0	0.00106244	11	3.44549e-07	0.000000000000000E+000	372623	0.000000000000000E+000	0.000000000000000E+000	0.00106244	0.00106244	0.0000000E+000	0.000000000000000E+000	4.83456e-06
1	1	0	0	0	0	1	1054.83	0.018	0.301943	0.0161658	0.00236722	0.00402212	0	0.00111726	11	3.61181e-07	0.000000000000000E+000	300470	0.000000000000000E+000	0.000000000000000E+000	0.00111726	0.00111726	0.0000000E+000	0.000000000000000E+000	4.88115e-06
1	1	0	0	0	0	1	1066.83	0.018	0.29893	0.0166112	0.00256476	0.00421965	0	0.00117213	11	3.77656e-07	0.000000000000000E+000	257313	0.000000000000000E+000	0.000000000000000E+000	0.00117213	0.00117213	0.0000000E+000	0.000000000000000E+000	4.96559e-06
1	1	0	0	0	0	1	1078.83	0.018	0.29578	0.0161022	0.00276212	0.00441701	0	0.00122695	11	3.9395e-07	0.000000000000000E+000	225945	0.000000000000000E+000	0.000000000000000E+000	0.00122695	0.00122695	0.0000000E+000	0.000000000000000E+000	4.7627e-06
1	1	0	0	0	0	1	1090.83	0.018	0.292855	0.0165476	0.0029592	0.0046141	0	0.00128169	11	4.10059e-07	0.000000000000000E+000	205314	0.000000000000000E+000	0.000000000000000E+000	0.00128169	0.00128169	0.0000000E+000	0.000000000000000E+000	4.84605e-06
1	1	0	1	0	0	2	1101.83	0.032	0.307942	0.0296549	0.000336484	0.00495059	0	0.00137516	11	4.38546e-07	0.000000000000000E+000	670153	0.000000000000000E+000	0.000000000000000E+000	0.00137516	0.00137516	0.0000000E+000	0.000000000000000E+000	9.13198e-06
1	1	0	1	0	0	2	1113.83	0.032	0.310788	0.0304185	0.00070332	0.00531742	0	0.00147706	11	4.70101e-07	0.000000000000000E+000	1.17105e+06	0.000000000000000E+000	0.000000000000000E+000	0.00147706	0.00147706	0.0000000E+000	0.000000000000000E+000	9.4537e-06
1	1	0	1	0	0	2	1125.83	0.032	0.312011	0.0308002	0.00107029	0.00568439	0	0.001579	11	5.01848e-07	0.000000000000000E+000	1.71305e+06	0.000000000000000E+000	0.000000000000000E+000	0.001579	0.001579	0.0000000E+000	0.000000000000000E+000	9.61e-06
1	1	0	1	0	0	2	1137.83	0.032	0.312514	0.0304185	0.00143739	0.0060515	0	0.00168097	11	5.33693e-07	0.000000000000000E+000	2.14961e+06	0.000000000000000E+000	0.000000000000000E+000	0.00168097	0.00168097	0.0000000E+000	0.000000000000000E+000	9.50619e-06
1	1	0	1	0	0	2	1149.83	0.032	0.312655	0.0302276	0.00180445	0.00641855	0	0.00178293	11	5.65573e-07	0.000000000000000E+000	2.40045e+06	0.000000000000000E+000	0.000000000000000E+000	0.00178293	0.00178293	0.0000000E+000	0.000000000000000E+000	9.4508e-06
1	1	0	1	0	0	2	1161.83	0.032	0.312438	0.0302276	0.00217179	0.00678589	0	0.00188497	11	5.9747e-07	0.000000000000000E+000	2.34708e+06	0.000000000000000E+000	0.000000000000000E+000	0.00188497	0.00188497	0.0000000E+000	0.000000000000000E+000	9.44423e-06
1	1	0	1	0	0	2	1173.83	0.032	0.312116	0.030673	0.00253924	0.00715335	0	0.00198704	11	6.29339e-07	0.000000000000000E+000	2.22669e+06	0.000000000000000E+000	0.000000000000000E+000	0.00198704	0.00198704	0.0000000E+000	0.000000000000000E+000	9.57353e-06
1	1	0	1	0	0	2	1185.83	0.032	0.311529	0.0304821	0.00290682	0.00752093	0	0.00208915	11	6.61177e-07	0.000000000000000E+000	1.97934e+06	0.000000000000000E+000	0.000000000000000E+000	0.00208915	0.00208915	0.0000000E+000	0.000000000000000E+000	9.49606e-06
1	1	0	1	0	0	2	1197.83	0.032	0.310725	0.0301639	0.00327438	0.00788849	0	0.00219125	11	6.92938e-07	0.000000000000000E+000	1.71327e+06	0.000000000000000E+000	0.000000000000000E+000	0.00219125	0.00219125	0.0000000E+000	0.000000000000000E+000	9.37268e-06
1	1	0	1	0	0	2	1209.83	0.032	0.309873	0.0307366	0.00364181	0.00825591	0	0.00229331	11	7.24604e-07	0.000000000000000E+000	1.5133e+06	0.000000000000000E+000	0.000000000000000E+000	0.00229331	0.00229331	0.0000000E+000	0.000000000000000E+000	9.52445e-06
1	1	0	1	0	0	2	1221.83	0.032	0.30907	0.0301639	0.00400971	0.00862382	0	0.0023955	11	7.56231e-07	0.000000000000000E+000	1.37779e+06	0.000000000000000E+000	0.000000000000000E+000	0.0023955	0.0023955	0.0000000E+000	0.000000000000000E+000	9.32276e-06
1	1	0	1	0	0	2	1233.83	0.032	0.308161	0.0302912	0.00437707	0.00899117	0	0.00249755	11	7.87726e-07	0.000000000000000E+000	1.25434e+06	0.000000000000000E+000	0.000000000000000E+000	0.00249755	0.00249755	0.0000000E+000	0.000000000000000E+000	9.33456e-06
1	1	0	1	0	0	2	1245.83	0.032	0.307161	0.0301003	0.00474426	0.00935836	0	0.00259954	11	8.19103e-07	0.000000000000000E+000	1.14573e+06	0.000000000000000E+000	0.000000000000000E+000	0.00259954	0.00259954	0.0000000E+000	0.000000000000000E+000	9.24564e-06
1	1	0	1	0	0	2	1257.83	0.032	0.306197	0.0309911	0.0051115	0.0097256	0	0.00270156	11	8.50384e-07	0.000000000000000E+000	1.065e+06	0.000000000000000E+000	0.000000000000000E+000	0.00270156	0.00270156	0.0000000E+000	0.000000000000000E+000	9.48938e-06
1	1	0	1	0	0	2	1269.83	0.032	0.305235	0.0300367	0.0054788	0.0100929	0	0.00280358	11	8.81571e-07	0.000000000000000E+000	999863	0.000000000000000E+000	0.000000000000000E+000	0.00280358	0.00280358	0.0000000E+000	0.000000000000000E+000	9.16824e-06
1	1	0	0	0	0	3	1280.83	0.056	0.334572	0.0551697	0.000548847	0.0106724	0	0.00296455	11	9.34096e-07	0.000000000000000E+000	554615	0.000000000000000E+000	0.000000000000000E+000	0.00296455	0.00296455	0.0000000E+000	0.000000000000000E+000	1.84582e-05
1	1	0	0	0	0	3	1292.83	0.056	0.344353	0.0556787	0.00120756	0.0113311	0	0.00314752	11	9.96359e-07	0.000000000000000E+000	390402	0.000000000000000E+000	0.000000000000000E+000	0.00314752	0.00314752	0.0000000E+000	0.000000000000000E+000	1.91731e-05
1	1	0	0	0	0	3	1304.83	0.056	0.350939	0.0547879	0.00186604	0.0119896	0	0.00333043	11	1.06004e-06	0.000000000000000E+000	336693	0.000000000000000E+000	0.000000000000000E+000	0.00333043	0.00333043	0.0000000E+000	0.000000000000000E+000	1.92272e-05
1	1	0	0	0	0	3	1316.83	0.056	0.355528	0.0542789	0.00252449	0.012648	0	0.00351334	11	1.1247e-06	0.000000000000000E+000	314632	0.000000000000000E+000	0.000000000000000E+000	0.00351334	0.00351334	0.0000000E+000	0.000000000000000E+000	1.92977e-05
1	1	0	0	0	0	3	1328.83	0.056	0.359293	0.0542153	0.0031836	0.0133071	0	0.00369642	11	1.19018e-06	0.000000000000000E+000	302685	0.000000000000000E+000	0.000000000000000E+000	0.00369642	0.00369642	0.0000000E+000	0.000000000000000E+000	1.94791e-05
1	1	0	0	0	0	3	1340.83	0.056	0.362526	0.0551061	0.00384185	0.0139654	0	0.00387927	11	1.2562e-06	0.000000000000000E+000	295892	0.000000000000000E+000	0.000000000000000E+000	0.00387927	0.00387927	0.0000000E+000	0.000000000000000E+000	1.99774e-05
1	1	0	0	0	0	3	1352.83	0.056	0.365619	0.055806	0.00450034	0.0146239	0	0.00406218	11	1.32283e-06	0.000000000000000E+000	290792	0.000000000000000E+000	0.000000000000000E+000	0.00406218	0.00406218	0.0000000E+000	0.000000000000000E+000	2.04037e-05
1	1	0	0	0	0	3	1364.83	0.056	0.368547	0.0557424	0.00515909	0.0152826	0	0.00424517	11	1.39003e-06	0.000000000000000E+000	287168	0.000000000000000E+000	0.000000000000000E+000	0.00424517	0.00424517	0.0000000E+000	0.000000000000000E+000	2.05437e-05
1	1	0	0	0	0	3	1376.83	0.056	0.371018	0.0550425	0.00581779	0.0159413	0	0.00442814	11	1.45771e-06	0.000000000000000E+000	286256	0.000000000000000E+000	0.000000000000000E+000	0.00442814	0.00442814	0.0000000E+000	0.000000000000000E+000	2.04217e-05
1	1	0	0	0	0	3	1388.83	0.056	0.373538	0.0547243	0.00647657	0.0166001	0	0.00461114	11	1.52586e-06	0.000000000000000E+000	285180	0.000000000000000E+000	0.000000000000000E+000	0.00461114	0.00461114	0.0000000E+000	0.000000000000000E+000	2.04416e-05
1	1	0	0	0	0	3	1400.83	0.056	0.375885	0.0556151	0.00713534	0.0172589	0	0.00479413	11	1.59444e-06	0.000000000000000E+000	285005	0.000000000000000E+000	0.000000000000000E+000	0.00479413	0.00479413	0.0000000E+000	0.000000000000000E+000	2.09049e-05
1	1	0	0	0	0	3	1412.83	0.056	0.378255	0.0545334	0.00779399	0.0179175	0	0.00497709	11	1.66345e-06	0.000000000000000E+000	284737	0.000000000000000E+000	0.000000000000000E+000	0.00497709	0.00497709	0.0000000E+000	0.000000000000000E+000	2.06276e-05
1	1	0	0	0	0	3	1424.83	0.056	0.380321	0.0553606	0.00845274	0.0185763	0	0.00516007	11	1.73287e-06	0.000000000000000E+000	285822	0.000000000000000E+000	0.000000000000000E+000	0.00516007	0.00516007	0.0000000E+000	0.000000000000000E+000	2.10548e-05
1	1	0	0	0	0	3	1436.83	0.056	0.382321	0.0542789	0.00911158	0.0192351	0	0.00534308	11	1.80267e-06	0.000000000000000E+000	287124	0.000000000000000E+000	0.000000000000000E+000	0.00534308	0.00534308	0.0000000E+000	0.000000000000000E+000	2.0752e-05
1	1	0	0	0	0	3	1448.83	0.056	0.384171	0.0547879	0.00976993	0.0198934	0	0.00552596	11	1.87277e-06	0.000000000000000E+000	288971	0.000000000000000E+000	0.000000000000000E+000	0.00552596	0.00552596	0.0000000E+000	0.000000000000000E+000	2.10479e-05
1	1	0	1	0	0	4	1459.83	0.1	0.403696	0.099073	0.000886518	0.0208898	0	0.00580271	11	1.98294e-06	0.000000000000000E+000	236399	0.000000000000000E+000	0.000000000000000E+000	0.00580271	0.00580271	0.0000000E+000	0.000000000000000E+000	3.99953e-05
1	1	0	1	0	0	4	1471.83	0.1	0.412064	0.0984367	0.00206848	0.0220717	0	0.00613104	11	2.11703e-06	0.000000000000000E+000	228167	0.000000000000000E+000	0.000000000000000E+000	0.00613104	0.00613104	0.0000000E+000	0.000000000000000E+000	4.05622e-05
1	1	0	1	0	0	4	1483.83	0.1	0.418954	0.0972278	0.00325033	0.0232536	0	0.00645933	11	2.25355e-06	0.000000000000000E+000	224401	0.000000000000000E+000	0.000000000000000E+000	0.00645933	0.00645933	0.0000000E+000	0.000000000000000E+000	4.07339e-05
1	1	0	1	0	0	4	1495.83	0.1	0.425294	0.0986276	0.00443208	0.0244353	0	0.00678759	11	2.39223e-06	0.000000000000000E+000	222209	0.000000000000000E+000	0.000000000000000E+000	0.00678759	0.00678759	0.0000000E+000	0.000000000000000E+000	4.19457e-05
1	1	0	1	0	0	4	1507.83	0.1	0.431368	0.0980549	0.00561497	0.0256182	0	0.00711617	11	2.53304e-06	0.000000000000000E+000	220773	0.000000000000000E+000	0.000000000000000E+000	0.00711617	0.00711617	0.0000000E+000	0.000000000000000E+000	4.22977e-05
1	1	0	1	0	0	4	1519.83	0.1	0.436952	0.0981185	0.00679698	0.0268002	0	0.00744451	11	2.67568e-06	0.000000000000000E+000	220354	0.000000000000000E+000	0.000000000000000E+000	0.00744451	0.00744451	0.0000000E+000	0.000000000000000E+000	4.28731e-05
1	1	0	1	0	0	4	1531.83	0.1	0.442832	0.0992638	0.00797878	0.027982	0	0.00777278	11	2.82017e-06	0.000000000000000E+000	219462	0.000000000000000E+000	0.000000000000000E+000	0.00777278	0.00777278	0.0000000E+000	0.000000000000000E+000	4.39572e-05
1	1	0	1	0	0	4	1543.83	0.1	0.448629	0.097864	0.00916077	0.029164	0	0.00810112	11	2.96658e-06	0.000000000000000E+000	218785	0.000000000000000E+000	0.000000000000000E+000	0.00810112	0.00810112	0.0000000E+000	0.000000000000000E+000	4.39046e-05
1	1	0	1	0	0	4	1555.83	0.1	0.45451	0.0987548	0.0103422	0.0303454	0	0.00842928	11	3.11482e-06	0.000000000000000E+000	218029	0.000000000000000E+000	0.000000000000000E+000	0.00842928	0.00842928	0.0000000E+000	0.000000000000000E+000	4.4885e-05
1	1	0	1	0	0	4	1567.83	0.1	0.460505	0.0986912	0.0115235	0.0315268	0	0.00875743	11	3.26504e-06	0.000000000000000E+000	217162	0.000000000000000E+000	0.000000000000000E+000	0.00875743	0.00875743	0.0000000E+000	0.000000000000000E+000	4.54478e-05
1	1	0	1	0	0	4	1579.83	0.1	0.466785	0.0987548	0.012705	0.0327082	0	0.00908562	11	3.41731e-06	0.000000000000000E+000	215958	0.000000000000000E+000	0.000000000000000E+000	0.00908562	0.00908562	0.0000000E+000	0.000000000000000E+000	4.60973e-05
1	1	0	1	0	0	4	1591.83	0.1	0.473471	0.0990093	0.0138866	0.0338898	0	0.00941384	11	3.57172e-06	0.000000000000000E+000	214300	0.000000000000000E+000	0.000000000000000E+000	0.00941384	0.00941384	0.0000000E+000	0.000000000000000E+000	4.68781e-05
1	1	0	1	0	0	4	1603.83	0.1	0.479916	0.0982458	0.015068	0.0350713	0	0.00974202	11	3.72825e-06	0.000000000000000E+000	213086	0.000000000000000E+000	0.000000000000000E+000	0.00974202	0.00974202	0.0000000E+000	0.000000000000000E+000	4.71497e-05
1	1	0	1	0	0	4	1615.83	0.1	0.486826	0.0981185	0.0162494	0.0362526	0	0.0100702	11	3.88695e-06	0.000000000000000E+000	211389	0.000000000000000E+000	0.000000000000000E+000	0.0100702	0.0100702	0.0000000E+000	0.000000000000000E+000	4.77666e-05
1	1	0	1	0	0	4	1627.83	0.1	0.493658	0.0992002	0.0174306	0.0374339	0	0.0103983	11	4.04791e-06	0.000000000000000E+000	209915	0.000000000000000E+000	0.000000000000000E+000	0.0103983	0.0103983	0.0000000E+000	0.000000000000000E+000	4.8971e-05
1	1	0	0	0	0	5	1638.83	0.178	0.534345	0.177144	0.00141514	0.0391443	0	0.0108734	11	4.2939e-06	0.000000000000000E+000	178728	0.000000000000000E+000	0.000000000000000E+000	0.0108734	0.0108734	0.0000000E+000	0.000000000000000E+000	9.46563e-05
1	1	0	0	0	0	5	1650.83	0.178	0.555136	0.176508	0.0035376	0.0412667	0	0.011463	11	4.61634e-06	0.000000000000000E+000	172083	0.000000000000000E+000	0.000000000000000E+000	0.011463	0.011463	0.0000000E+000	0.000000000000000E+000	9.79859e-05
1	1	0	0	0	0	5	1662.83	0.178	0.56376	0.177017	0.00566009	0.0433892	0	0.0120526	11	4.94676e-06	0.000000000000000E+000	174653	0.000000000000000E+000	0.000000000000000E+000	0.0120526	0.0120526	0.0000000E+000	0.000000000000000E+000	9.97952e-05
1	1	0	0	0	0	5	1674.83	0.178	0.567665	0.176317	0.00778227	0.0455114	0	0.0126421	11	5.28052e-06	0.000000000000000E+000	180360	0.000000000000000E+000	0.000000000000000E+000	0.0126421	0.0126421	0.0000000E+000	0.000000000000000E+000	0.000100089
1	1	0	0	0	0	5	1686.83	0.178	0.569782	0.175872	0.00990438	0.0476335	0	0.0132315	11	5.61586e-06	0.000000000000000E+000	187200	0.000000000000000E+000	0.000000000000000E+000	0.0132315	0.0132315	0.0000000E+000	0.000000000000000E+000	0.000100209
1	1	0	0	0	0	5	1698.83	0.178	0.570969	0.177463	0.0120264	0.0497555	0	0.013821	11	5.95208e-06	0.000000000000000E+000	194631	0.000000000000000E+000	0.000000000000000E+000	0.013821	0.013821	0.0000000E+000	0.000000000000000E+000	0.000101326
1	1	0	0	0	0	5	1710.83	0.178	0.571733	0.177081	0.0141483	0.0518775	0	0.0144104	11	6.28889e-06	0.000000000000000E+000	202327	0.000000000000000E+000	0.000000000000000E+000	0.0144104	0.0144104	0.0000000E+000	0.000000000000000E+000	0.000101243
1	1	0	0	0	0	5	1722.83	0.178	0.572325	0.17759	0.0162705	0.0539996	0	0.0149999	11	6.62611e-06	0.000000000000000E+000	210118	0.000000000000000E+000	0.000000000000000E+000	0.0149999	0.0149999	0.0000000E+000	0.000000000000000E+000	0.000101639
1	1	0	0	0	0	5	1734.83	0.178	0.572771	0.177526	0.0183928	0.0561219	0	0.0155894	11	6.96366e-06	0.000000000000000E+000	217998	0.000000000000000E+000	0.000000000000000E+000	0.0155894	0.0155894	0.0000000E+000	0.000000000000000E+000	0.000101682
1	1	0	0	0	0	5	1746.83	0.178	0.573078	0.176953	0.0205149	0.058244	0	0.0161789	11	7.30137e-06	0.000000000000000E+000	225972	0.000000000000000E+000	0.000000000000000E+000	0.0161789	0.0161789	0.0000000E+000	0.000000000000000E+000	0.000101408
1	1	0	0	0	0	5	1758.83	0.178	0.573323	0.17689	0.022637	0.0603661	0	0.0167684	11	7.63929e-06	0.000000000000000E+000	233983	0.000000000000000E+000	0.000000000000000E+000	0.0167684	0.0167684	0.0000000E+000	0.000000000000000E+000	0.000101415
1	1	0	0	0	0	5	1770.83	0.178	0.57364	0.175999	0.0247594	0.0624885	0	0.0173579	11	7.97738e-06	0.000000000000000E+000	241911	0.000000000000000E+000	0.000000000000000E+000	0.0173579	0.0173579	0.0000000E+000	0.000000000000000E+000	0.00010096
1	1	0	0	0	0	5	1782.83	0.178	0.573914	0.176635	0.0268818	0.0646109	0	0.0179475	11	8.31562e-06	0.000000000000000E+000	249864	0.000000000000000E+000	0.000000000000000E+000	0.0179475	0.0179475	0.0000000E+000	0.000000000000000E+000	0.000101373
1	1	0	0	0	0	5	1794.83	0.178	0.573941	0.176826	0.0290042	0.0667333	0	0.018537	11	8.65395e-06	0.000000000000000E+000	258044	0.000000000000000E+000	0.000000000000000E+000	0.018537	0.018537	0.0000000E+000	0.000000000000000E+000	0.000101488
1	1	0	0	0	0	5	1806.83	0.178	0.574177	0.177463	0.0311264	0.0688555	0	0.0191265	11	8.99236e-06	0.000000000000000E+000	266008	0.000000000000000E+000	0.000000000000000E+000	0.0191265	0.0191265	0.0000000E+000	0.000000000000000E+000	0.000101895
1	1	0	1	0	0	6	1817.83	0.316	0.593988	0.314581	0.00220087	0.071764	0	0.0199344	11	9.46764e-06	0.000000000000000E+000	257533	0.000000000000000E+000	0.000000000000000E+000	0.0199344	0.0199344	0.0000000E+000	0.000000000000000E+000	0.000186857
1	1	0	1	0	0	6	1829.83	0.316	0.593949	0.314008	0.00597421	0.0755373	0	0.0209826	11	1.00902e-05	0.000000000000000E+000	271112	0.000000000000000E+000	0.000000000000000E+000	0.0209826	0.0209826	0.0000000E+000	0.000000000000000E+000	0.000186505
1	1	0	1	0	0	6	1841.83	0.316	0.593949	0.314644	0.00974751	0.0793106	0	0.0220307	11	1.07127e-05	0.000000000000000E+000	284655	0.000000000000000E+000	0.000000000000000E+000	0.0220307	0.0220307	0.0000000E+000	0.000000000000000E+000	0.000186883
1	1	0	1	0	0	6	1853.83	0.316	0.593968	0.315026	0.0135206	0.0830837	0	0.0230788	11	1.13352e-05	0.000000000000000E+000	298177	0.000000000000000E+000	0.000000000000000E+000	0.0230788	0.0230788	0.0000000E+000	0.000000000000000E+000	0.000187115
1	1	0	1	0	0	6	1865.83	0.316	0.593992	0.314008	0.0172937	0.0868568	0	0.0241269	11	1.19578e-05	0.000000000000000E+000	311691	0.000000000000000E+000	0.000000000000000E+000	0.0241269	0.0241269	0.0000000E+000	0.000000000000000E+000	0.000186518
1	1	0	1	0	0	6	1877.83	0.316	0.59408	0.314453	0.0210671	0.0906302	0	0.025175	11	1.25804e-05	0.000000000000000E+000	325130	0.000000000000000E+000	0.000000000000000E+000	0.025175	0.025175	0.0000000E+000	0.000000000000000E+000	0.00018681
1	1	0	1	0	0	6	1889.83	0.316	0.59419	0.314453	0.0248404	0.0944035	0	0.0262232	11	1.32032e-05	0.000000000000000E+000	338533	0.000000000000000E+000	0.000000000000000E+000	0.0262232	0.0262232	0.0000000E+000	0.000000000000000E+000	0.000186845
1	1	0	1	0	0	6	1901.83	0.316	0.594165	0.314326	0.0286138	0.098177	0	0.0272714	11	1.3826e-05	0.000000000000000E+000	352096	0.000000000000000E+000	0.000000000000000E+000	0.0272714	0.0272714	0.0000000E+000	0.000000000000000E+000	0.000186762
1	1	0	1	0	0	6	1913.83	0.316	0.594284	0.314199	0.0323877	0.101951	0	0.0283197	11	1.4449e-05	0.000000000000000E+000	365474	0.000000000000000E+000	0.000000000000000E+000	0.0283197	0.0283197	0.0000000E+000	0.000000000000000E+000	0.000186723
1	1	0	1	0	0	6	1925.83	0.316	0.594516	0.313626	0.0361614	0.105725	0	0.0293679	11	1.5072e-05	0.000000000000000E+000	378687	0.000000000000000E+000	0.000000000000000E+000	0.0293679	0.0293679	0.0000000E+000	0.000000000000000E+000	0.000186456
1	1	0	1	0	0	6	1937.83	0.316	0.594526	0.31509	0.0399354	0.109498	0	0.0304163	11	1.56952e-05	0.000000000000000E+000	392190	0.000000000000000E+000	0.000000000000000E+000	0.0304163	0.0304163	0.0000000E+000	0.000000000000000E+000	0.000187329
1	1	0	1	0	0	6	1949.83	0.316	0.594588	0.313944	0.0437094	0.113272	0	0.0314646	11	1.63185e-05	0.000000000000000E+000	405618	0.000000000000000E+000	0.000000000000000E+000	0.0314646	0.0314646	0.0000000E+000	0.000000000000000E+000	0.000186668
1	1	0	1	0	0	6	1961.83	0.316	0.594861	0.314899	0.0474832	0.117046	0	0.0325129	11	1.69419e-05	0.000000000000000E+000	418722	0.000000000000000E+000	0.000000000000000E+000	0.0325129	0.0325129	0.0000000E+000	0.000000000000000E+000	0.000187321
1	1	0	1	0	0	6	1973.83	0.316	0.594825	0.314199	0.0512568	0.12082	0	0.0335611	11	1.75654e-05	0.000000000000000E+000	432277	0.000000000000000E+000	0.000000000000000E+000	0.0335611	0.0335611	0.0000000E+000	0.000000000000000E+000	0.000186893
1	1	0	1	0	0	6	1985.83	0.316	0.59491	0.314899	0.0550305	0.124594	0	0.0346093	11	1.81889e-05	0.000000000000000E+000	445644	0.000000000000000E+000	0.000000000000000E+000	0.0346093	0.0346093	0.0000000E+000	0.000000000000000E+000	0.000187336
1	1	0	0	0	0	7	1996.83	0.562	0.616711	0.561139	0.00336335	0.129529	0	0.0359804	11	1.90245e-05	0.000000000000000E+000	429785	0.000000000000000E+000	0.000000000000000E+000	0.0359804	0.0359804	0.0000000E+000	0.000000000000000E+000	0.00034606
1	1	0	0	0	0	7	2008.83	0.562	0.616467	0.560948	0.0100899	0.136256	0	0.0378488	11	2.01764e-05	0.000000000000000E+000	452470	0.000000000000000E+000	0.000000000000000E+000	0.0378488	0.0378488	0.0000000E+000	0.000000000000000E+000	0.000345806
1	1	0	0	0	0	7	2020.83	0.562	0.616575	0.560693	0.0168162	0.142982	0	0.0397173	11	2.13281e-05	0.000000000000000E+000	474636	0.000000000000000E+000	0.000000000000000E+000	0.0397173	0.0397173	0.0000000E+000	0.000000000000000E+000	0.00034571
1	1	0	0	0	0	7	2032.83	0.562	0.616525	0.560566	0.0235424	0.149708	0	0.0415857	11	2.24798e-05	0.000000000000000E+000	497046	0.000000000000000E+000	0.000000000000000E+000	0.0415857	0.0415857	0.0000000E+000	0.000000000000000E+000	0.000345603
1	1	0	0	0	0	7	2044.83	0.562	0.616592	0.55993	0.0302688	0.156435	0	0.0434541	11	2.36316e-05	0.000000000000000E+000	519263	0.000000000000000E+000	0.000000000000000E+000	0.0434541	0.0434541	0.0000000E+000	0.000000000000000E+000	0.000345248
1	1	0	0	0	0	7	2056.83	0.562	0.616722	0.560884	0.036995	0.163161	0	0.0453225	11	2.47836e-05	0.000000000000000E+000	541356	0.000000000000000E+000	0.000000000000000E+000	0.0453225	0.0453225	0.0000000E+000	0.000000000000000E+000	0.000345909
1	1	0	0	0	0	7	2068.83	0.562	0.616722	0.560248	0.0437213	0.169887	0	0.0471909	11	2.59358e-05	0.000000000000000E+000	563673	0.000000000000000E+000	0.000000000000000E+000	0.0471909	0.0471909	0.0000000E+000	0.000000000000000E+000	0.000345517
1	1	0	0	0	0	7	2080.83	0.562	0.616878	0.561202	0.0504476	0.176614	0	0.0490593	11	2.70881e-05	0.000000000000000E+000	585687	0.000000000000000E+000	0.000000000000000E+000	0.0490593	0.0490593	0.0000000E+000	0.000000000000000E+000	0.000346193
1	1	0	0	0	0	7	2092.83	0.562	0.616986	0.560502	0.057174	0.18334	0	0.0509278	11	2.82407e-05	0.000000000000000E+000	607776	0.000000000000000E+000	0.000000000000000E+000	0.0509278	0.0509278	0.0000000E+000	0.000000000000000E+000	0.000345822
1	1	0	0	0	0	7	2104.83	0.562	0.617018	0.560312	0.0639002	0.190066	0	0.0527961	11	2.93934e-05	0.000000000000000E+000	630008	0.000000000000000E+000	0.000000000000000E+000	0.0527961	0.0527961	0.0000000E+000	0.000000000000000E+000	0.000345722
1	1	0	0	0	0	7	2116.83	0.562	0.617088	0.560884	0.0706261	0.196792	0	0.0546645	11	3.05463e-05	0.000000000000000E+000	652149	0.000000000000000E+000	0.000000000000000E+000	0.0546645	0.0546645	0.0000000E+000	0.000000000000000E+000	0.000346115
1	1	0	0	0	0	7	2128.83	0.562	0.617214	0.560693	0.0773523	0.203518	0	0.0565329	11	3.16995e-05	0.000000000000000E+000	674157	0.000000000000000E+000	0.000000000000000E+000	0.0565329	0.0565329	0.0000000E+000	0.000000000000000E+000	0.000346068
1	1	0	0	0	0	7	2140.83	0.562	0.617286	0.559803	0.0840784	0.210244	0	0.0584012	11	3.28529e-05	0.000000000000000E+000	696273	0.000000000000000E+000	0.000000000000000E+000	0.0584012	0.0584012	0.0000000E+000	0.000000000000000E+000	0.000345558
1	1	0	0	0	0	7	2152.83	0.562	0.61746	0.561011	0.0908044	0.21697	0	0.0602695	11	3.40065e-05	0.000000000000000E+000	718133	0.000000000000000E+000	0.000000000000000E+000	0.0602695	0.0602695	0.0000000E+000	0.000000000000000E+000	0.000346402
1	1	0	0	0	0	7	2164.83	0.562	0.617695	0.560312	0.09753	0.223696	0	0.0621378	11	3.51603e-05	0.000000000000000E+000	739819	0.000000000000000E+000	0.000000000000000E+000	0.0621378	0.0621378	0.0000000E+000	0.000000000000000E+000	0.000346101
1	1	0	1	0	0	8	2175.83	1	0.643427	0.998771	0.0049937	0.232053	0	0.0644591	11	3.66298e-05	0.000000000000000E+000	707267	0.000000000000000E+000	0.000000000000000E+000	0.0644591	0.0644591	0.0000000E+000	0.000000000000000E+000	0.000642636
1	1	0	1	0	0	8	2187.83	1	0.643146	0.99909	0.0169792	0.244038	0	0.0677884	11	3.87712e-05	0.000000000000000E+000	744434	0.000000000000000E+000	0.000000000000000E+000	0.0677884	0.0677884	0.0000000E+000	0.000000000000000E+000	0.000642561
1	1	0	1	0	0	8	2199.83	1	0.643174	0.998962	0.0289649	0.256024	0	0.0711177	11	4.09126e-05	0.000000000000000E+000	780930	0.000000000000000E+000	0.000000000000000E+000	0.0711177	0.0711177	0.0000000E+000	0.000000000000000E+000	0.000642506
1	1	0	1	0	0	8	2211.83	1	0.643237	0.998962	0.0409509	0.26801	0	0.0744472	11	4.3054e-05	0.000000000000000E+000	817331	0.000000000000000E+000	0.000000000000000E+000	0.0744472	0.0744472	0.0000000E+000	0.000000000000000E+000	0.00064257
1	1	0	1	0	0	8	2223.83	1	0.643362	0.998771	0.0529368	0.279996	0	0.0777766	11	4.51957e-05	0.000000000000000E+000	853560	0.000000000000000E+000	0.000000000000000E+000	0.0777766	0.0777766	0.0000000E+000	0.000000000000000E+000	0.000642571
1	1	0	1	0	0	8	2235.83	1	0.643457	0.998581	0.0649233	0.291982	0	0.0811062	11	4.73378e-05	0.000000000000000E+000	889842	0.000000000000000E+000	0.000000000000000E+000	0.0811062	0.0811062	0.0000000E+000	0.000000000000000E+000	0.000642544
1	1	0	1	0	0	8	2247.83	1	0.643536	0.998899	0.0769095	0.303968	0	0.0844357	11	4.94803e-05	0.000000000000000E+000	926147	0.000000000000000E+000	0.000000000000000E+000	0.0844357	0.0844357	0.0000000E+000	0.000000000000000E+000	0.000642828
1	1	0	1	0	0	8	2259.83	1	0.643659	0.997881	0.0888954	0.315954	0	0.0877651	11	5.16231e-05	0.000000000000000E+000	962308	0.000000000000000E+000	0.000000000000000E+000	0.0877651	0.0877651	0.0000000E+000	0.000000000000000E+000	0.000642294
1	1	0	1	0	0	8	2271.83	1	0.643761	0.999408	0.100881	0.32794	0	0.0910946	11	5.37666e-05	0.000000000000000E+000	998502	0.000000000000000E+000	0.000000000000000E+000	0.0910946	0.0910946	0.0000000E+000	0.000000000000000E+000	0.00064338
1	1	0	1	0	0	8	2283.83	1	0.643909	0.998771	0.112868	0.339927	0	0.094424	11	5.59104e-05	0.000000000000000E+000	1.03453e+06	0.000000000000000E+000	0.000000000000000E+000	0.094424	0.094424	0.0000000E+000	0.000000000000000E+000	0.000643118
1	1	0	1	0	0	8	2295.83	1	0.644226	0.998962	0.124854	0.351913	0	0.0977535	11	5.80549e-05	0.000000000000000E+000	1.06998e+06	0.000000000000000E+000	0.000000000000000E+000	0.0977535	0.0977535	0.0000000E+000	0.000000000000000E+000	0.000643558
1	1	0	1	0	0	8	2307.83	1	0.644476	0.99839	0.13684	0.363899	0	0.101083	11	6.01999e-05	0.000000000000000E+000	1.10558e+06	0.000000000000000E+000	0.000000000000000E+000	0.101083	0.101083	0.0000000E+000	0.000000000000000E+000	0.000643438
1	1	0	1	0	0	8	2319.83	1	0.644546	0.998708	0.148826	0.375885	0	0.104413	11	6.23455e-05	0.000000000000000E+000	1.14175e+06	0.000000000000000E+000	0.000000000000000E+000	0.104413	0.104413	0.0000000E+000	0.000000000000000E+000	0.000643713
1	1	0	1	0	0	8	2331.83	1	0.644647	0.998899	0.160812	0.387871	0	0.107742	11	6.44917e-05	0.000000000000000E+000	1.1778e+06	0.000000000000000E+000	0.000000000000000E+000	0.107742	0.107742	0.0000000E+000	0.000000000000000E+000	0.000643937
1	1	0	1	0	0	8	2343.83	1	0.644751	0.998708	0.172798	0.399857	0	0.111071	11	6.66384e-05	0.000000000000000E+000	1.21381e+06	0.000000000000000E+000	0.000000000000000E+000	0.111071	0.111071	0.0000000E+000	0.000000000000000E+000	0.000643918
1	1	0	0	0	0	9	2354.83	1.778	0.675847	1.7765	0.00710514	0.413955	0	0.114987	11	6.92249e-05	0.000000000000000E+000	1.14822e+06	0.000000000000000E+000	0.000000000000000E+000	0.114987	0.114987	0.0000000E+000	0.000000000000000E+000	0.00120064
1	1	0	0	0	0	9	2366.83	1.778	0.675419	1.77624	0.028421	0.43527	0	0.120908	11	7.32242e-05	0.000000000000000E+000	1.20878e+06	0.000000000000000E+000	0.000000000000000E+000	0.120908	0.120908	0.0000000E+000	0.000000000000000E+000	0.00119971
1	1	0	0	0	0	9	2378.83	1.778	0.675225	1.77573	0.0497372	0.456587	0	0.12683	11	7.72226e-05	0.000000000000000E+000	1.26866e+06	0.000000000000000E+000	0.000000000000000E+000	0.12683	0.12683	0.0000000E+000	0.000000000000000E+000	0.00119902
1	1	0	0	0	0	9	2390.83	1.778	0.675221	1.7758	0.0710533	0.477903	0	0.132751	11	8.12212e-05	0.000000000000000E+000	1.32791e+06	0.000000000000000E+000	0.000000000000000E+000	0.132751	0.132751	0.0000000E+000	0.000000000000000E+000	0.00119905
1	1	0	0	0	0	9	2402.83	1.778	0.675363	1.77618	0.0923695	0.499219	0	0.138672	11	8.52202e-05	0.000000000000000E+000	1.38659e+06	0.000000000000000E+000	0.000000000000000E+000	0.138672	0.138672	0.0000000E+000	0.000000000000000E+000	0.00119956
1	1	0	0	0	0	9	2414.83	1.778	0.67555	1.77643	0.113686	0.520535	0	0.144593	11	8.92198e-05	0.000000000000000E+000	1.44504e+06	0.000000000000000E+000	0.000000000000000E+000	0.144593	0.144593	0.0000000E+000	0.000000000000000E+000	0.00120007
1	1	0	0	0	0	9	2426.83	1.778	0.675742	1.7756	0.135002	0.541852	0	0.150514	11	9.32201e-05	0.000000000000000E+000	1.50342e+06	0.000000000000000E+000	0.000000000000000E+000	0.150514	0.150514	0.0000000E+000	0.000000000000000E+000	0.00119985
1	1	0	0	0	0	9	2438.83	1.778	0.67587	1.77548	0.156318	0.563168	0	0.156435	11	9.72213e-05	0.000000000000000E+000	1.56201e+06	0.000000000000000E+000	0.000000000000000E+000	0.156435	0.156435	0.0000000E+000	0.000000000000000E+000	0.00119999
1	1	0	0	0	0	9	2450.83	1.778	0.675919	1.7765	0.177634	0.584484	0	0.162357	11	0.000101223	0.000000000000000E+000	1.62091e+06	0.000000000000000E+000	0.000000000000000E+000	0.162357	0.162357	0.0000000E+000	0.000000000000000E+000	0.00120077
1	1	0	0	0	0	9	2462.83	1.778	0.676042	1.77656	0.19895	0.6058	0	0.168278	11	0.000105226	0.000000000000000E+000	1.67945e+06	0.000000000000000E+000	0.000000000000000E+000	0.168278	0.168278	0.0000000E+000	0.000000000000000E+000	0.00120103
1	1	0	0	0	0	9	2474.83	1.778	0.676324	1.77656	0.220266	0.627115	0	0.174199	11	0.000109231	0.000000000000000E+000	1.73718e+06	0.000000000000000E+000	0.000000000000000E+000	0.174199	0.174199	0.0000000E+000	0.000000000000000E+000	0.00120153
1	1	0	0	0	0	9	2486.83	1.778	0.676634	1.7756	0.241582	0.648432	0	0.18012	11	0.000113236	0.000000000000000E+000	1.79469e+06	0.000000000000000E+000	0.000000000000000E+000	0.18012	0.18012	0.0000000E+000	0.000000000000000E+000	0.00120143
1	1	0	0	0	0	9	2498.83	1.778	0.676766	1.77669	0.262898	0.669747	0	0.186041	11	0.000117242	0.000000000000000E+000	1.85301e+06	0.000000000000000E+000	0.000000000000000E+000	0.186041	0.186041	0.0000000E+000	0.000000000000000E+000	0.0012024
1	1	0	0	0	0	9	2510.83	1.778	0.676802	1.77669	0.284214	0.691064	0	0.191962	11	0.00012125	0.000000000000000E+000	1.9118e+06	0.000000000000000E+000	0.000000000000000E+000	0.191962	0.191962	0.0000000E+000	0.000000000000000E+000	0.00120246
1	1	0	0	0	0	9	2522.83	1.778	0.677088	1.77694	0.30553	0.71238	0	0.197883	11	0.000125259	0.000000000000000E+000	1.96921e+06	0.000000000000000E+000	0.000000000000000E+000	0.197883	0.197883	0.0000000E+000	0.000000000000000E+000	0.00120314
1	1	0	1	0	0	10	2533.83	3.162	0.712738	3.16148	0.00948063	0.736072	0	0.204464	11	0.000129809	0.000000000000000E+000	1.85217e+06	0.000000000000000E+000	0.000000000000000E+000	0.204464	0.204464	0.0000000E+000	0.000000000000000E+000	0.00225331
1	1	0	1	0	0	10	2545.83	3.162	0.711932	3.15957	0.047404	0.773995	0	0.214999	11	0.000137312	0.000000000000000E+000	1.95156e+06	0.000000000000000E+000	0.000000000000000E+000	0.214999	0.214999	0.0000000E+000	0.000000000000000E+000	0.0022494
1	1	0	1	0	0	10	2557.83	3.162	0.711998	3.16002	0.0853271	0.811918	0	0.225533	11	0.000144813	0.000000000000000E+000	2.04684e+06	0.000000000000000E+000	0.000000000000000E+000	0.225533	0.225533	0.0000000E+000	0.000000000000000E+000	0.00224993
1	1	0	1	0	0	10	2569.83	3.162	0.711965	3.15957	0.12325	0.849841	0	0.236067	11	0.000152312	0.000000000000000E+000	2.14262e+06	0.000000000000000E+000	0.000000000000000E+000	0.236067	0.236067	0.0000000E+000	0.000000000000000E+000	0.00224951
1	1	0	1	0	0	10	2581.83	3.162	0.712001	3.16034	0.161173	0.887764	0	0.246601	11	0.000159812	0.000000000000000E+000	2.23803e+06	0.000000000000000E+000	0.000000000000000E+000	0.246601	0.246601	0.0000000E+000	0.000000000000000E+000	0.00225016
1	1	0	1	0	0	10	2593.83	3.162	0.712101	3.15945	0.199095	0.925686	0	0.257135	11	0.000167314	0.000000000000000E+000	2.33304e+06	0.000000000000000E+000	0.000000000000000E+000	0.257135	0.257135	0.0000000E+000	0.000000000000000E+000	0.00224985
1	1	0	1	0	0	10	2605.83	3.162	0.712299	3.16072	0.237017	0.963608	0	0.267669	11	0.000174816	0.000000000000000E+000	2.42741e+06	0.000000000000000E+000	0.000000000000000E+000	0.267669	0.267669	0.0000000E+000	0.000000000000000E+000	0.00225138
1	1	0	1	0	0	10	2617.83	3.162	0.712579	3.16059	0.27494	1.00153	0	0.278203	11	0.000182321	0.000000000000000E+000	2.52116e+06	0.000000000000000E+000	0.000000000000000E+000	0.278203	0.278203	0.0000000E+000	0.000000000000000E+000	0.00225217
1	1	0	1	0	0	10	2629.83	3.162	0.712642	3.16066	0.312863	1.03945	0	0.288737	11	0.000189827	0.000000000000000E+000	2.61621e+06	0.000000000000000E+000	0.000000000000000E+000	0.288737	0.288737	0.0000000E+000	0.000000000000000E+000	0.00225242
1	1	0	1	0	0	10	2641.83	3.162	0.71275	3.16059	0.350786	1.07738	0	0.299271	11	0.000197336	0.000000000000000E+000	2.71092e+06	0.000000000000000E+000	0.000000000000000E+000	0.299271	0.299271	0.0000000E+000	0.000000000000000E+000	0.00225271
1	1	0	1	0	0	10	2653.83	3.162	0.713071	3.1604	0.388708	1.1153	0	0.309805	11	0.000204846	0.000000000000000E+000	2.80408e+06	0.000000000000000E+000	0.000000000000000E+000	0.309805	0.309805	0.0000000E+000	0.000000000000000E+000	0.00225359
1	1	0	1	0	0	10	2665.83	3.162	0.713341	3.16059	0.426631	1.15322	0	0.320339	11	0.000212359	0.000000000000000E+000	2.89746e+06	0.000000000000000E+000	0.000000000000000E+000	0.320339	0.320339	0.0000000E+000	0.000000000000000E+000	0.00225458
1	1	0	1	0	0	10	2677.83	3.162	0.713359	3.16059	0.464554	1.19115	0	0.330874	11	0.000219873	0.000000000000000E+000	2.9926e+06	0.000000000000000E+000	0.000000000000000E+000	0.330874	0.330874	0.0000000E+000	0.000000000000000E+000	0.00225464
1	1	0	1	0	0	10	2689.83	3.162	0.713659	3.15907	0.502477	1.22907	0	0.341408	11	0.00022739	0.000000000000000E+000	3.08555e+06	0.000000000000000E+000	0.000000000000000E+000	0.341408	0.341408	0.0000000E+000	0.000000000000000E+000	0.0022545
1	1	0	1	0	0	10	2701.83	3.162	0.713992	3.16008	0.5404	1.26699	0	0.351942	11	0.000234909	0.000000000000000E+000	3.1781e+06	0.000000000000000E+000	0.000000000000000E+000	0.351942	0.351942	0.0000000E+000	0.000000000000000E+000	0.00225627
1	1	0	0	0	0	11	2712.83	5.623	0.752866	5.62089	0.0112406	1.30667	0	0.362965	11	0.000242901	0.000000000000000E+000	2.98643e+06	0.000000000000000E+000	0.000000000000000E+000	0.362965	0.362965	0.0000000E+000	0.000000000000000E+000	0.00423178
1	1	0	0	0	0	11	2724.83	5.623	0.752916	5.61994	0.0786866	1.37412	0	0.3817	11	0.000257004	0.000000000000000E+000	3.14022e+06	0.000000000000000E+000	0.000000000000000E+000	0.3817	0.3817	0.0000000E+000	0.000000000000000E+000	0.00423134
1	1	0	0	0	0	11	2736.83	5.623	0.752613	5.62064	0.146133	1.44157	0	0.400435	11	0.000271108	0.000000000000000E+000	3.29664e+06	0.000000000000000E+000	0.000000000000000E+000	0.400435	0.400435	0.0000000E+000	0.000000000000000E+000	0.00423016
1	1	0	0	0	0	11	2748.83	5.623	0.75294	5.62064	0.213579	1.50901	0	0.41917	11	0.000285212	0.000000000000000E+000	3.4483e+06	0.000000000000000E+000	0.000000000000000E+000	0.41917	0.41917	0.0000000E+000	0.000000000000000E+000	0.004232
1	1	0	0	0	0	11	2760.83	5.623	0.753367	5.62	0.281024	1.57646	0	0.437905	11	0.000299323	0.000000000000000E+000	3.5989e+06	0.000000000000000E+000	0.000000000000000E+000	0.437905	0.437905	0.0000000E+000	0.000000000000000E+000	0.00423393
1	1	0	0	0	0	11	2772.83	5.623	0.75347	5.62083	0.34847	1.6439	0	0.45664	11	0.000313439	0.000000000000000E+000	3.752e+06	0.000000000000000E+000	0.000000000000000E+000	0.45664	0.45664	0.0000000E+000	0.000000000000000E+000	0.00423513
1	1	0	0	0	0	11	2784.83	5.623	0.75377	5.62038	0.415916	1.71135	0	0.475375	11	0.000327559	0.000000000000000E+000	3.90326e+06	0.000000000000000E+000	0.000000000000000E+000	0.475375	0.475375	0.0000000E+000	0.000000000000000E+000	0.00423647
1	1	0	0	0	0	11	2796.83	5.623	0.754142	5.62007	0.483361	1.7788	0	0.49411	11	0.000341685	0.000000000000000E+000	4.05365e+06	0.000000000000000E+000	0.000000000000000E+000	0.49411	0.49411	0.0000000E+000	0.000000000000000E+000	0.00423833
1	1	0	0	0	0	11	2808.83	5.623	0.754468	5.62007	0.550808	1.84624	0	0.512845	11	0.000355817	0.000000000000000E+000	4.20423e+06	0.000000000000000E+000	0.000000000000000E+000	0.512845	0.512845	0.0000000E+000	0.000000000000000E+000	0.00424016
1	1	0	0	0	0	11	2820.83	5.623	0.754816	5.62045	0.618254	1.91369	0	0.53158	11	0.000369957	0.000000000000000E+000	4.35436e+06	0.000000000000000E+000	0.000000000000000E+000	0.53158	0.53158	0.0000000E+000	0.000000000000000E+000	0.00424241
1	1	0	0	0	0	11	2832.83	5.623	0.755023	5.62051	0.685699	1.98113	0	0.550315	11	0.000384098	0.000000000000000E+000	4.50571e+06	0.000000000000000E+000	0.000000000000000E+000	0.550315	0.550315	0.0000000E+000	0.000000000000000E+000	0.00424361
1	1	0	0	0	0	11	2844.83	5.623	0.75538	5.62032	0.753146	2.04858	0	0.56905	11	0.000398246	0.000000000000000E+000	4.65532e+06	0.000000000000000E+000	0.000000000000000E+000	0.56905	0.56905	0.0000000E+000	0.000000000000000E+000	0.00424548
1	1	0	0	0	0	11	2856.83	5.623	0.755626	5.62057	0.820592	2.11603	0	0.587785	11	0.000412402	0.000000000000000E+000	4.8059e+06	0.000000000000000E+000	0.000000000000000E+000	0.587785	0.587785	0.0000000E+000	0.000000000000000E+000	0.00424705
1	1	0	0	0	0	11	2868.83	5.623	0.755871	5.62019	0.888038	2.18347	0	0.60652	11	0.000426559	0.000000000000000E+000	4.95633e+06	0.000000000000000E+000	0.000000000000000E+000	0.60652	0.60652	0.0000000E+000	0.000000000000000E+000	0.00424814
1	1	0	0	0	0	11	2880.83	5.623	0.756167	5.62038	0.955484	2.25092	0	0.625255	11	0.000440724	0.000000000000000E+000	5.10599e+06	0.000000000000000E+000	0.000000000000000E+000	0.625255	0.625255	0.0000000E+000	0.000000000000000E+000	0.00424995
1	1	0	1	1	0	12	2891.84	10	0.800461	9.99887	0.00999723	2.31712	0	0.643645	11	0.000454755	0.000000000000000E+000	4.77627e+06	0.000000000000000E+000	0.000000000000000E+000	0.643645	0.643645	0.0000000E+000	0.000000000000000E+000	0.00800371
1	1	0	1	0	0	12	2903.84	10	0.801408	9.99817	0.129974	2.4371	0	0.676972	11	0.00048145	0.000000000000000E+000	5.01379e+06	0.000000000000000E+000	0.000000000000000E+000	0.676972	0.676972	0.0000000E+000	0.000000000000000E+000	0.00801262
1	1	0	1	0	0	12	2915.84	10	0.801324	9.99856	0.249952	2.55708	0	0.710299	11	0.000508154	0.000000000000000E+000	5.26152e+06	0.000000000000000E+000	0.000000000000000E+000	0.710299	0.710299	0.0000000E+000	0.000000000000000E+000	0.00801209
1	1	0	1	0	0	12	2927.84	10	0.80205	9.99805	0.369929	2.67705	0	0.743626	11	0.000534879	0.000000000000000E+000	5.50018e+06	0.000000000000000E+000	0.000000000000000E+000	0.743626	0.743626	0.0000000E+000	0.000000000000000E+000	0.00801894
1	1	0	1	0	0	12	2939.84	10	0.802883	9.99805	0.489906	2.79703	0	0.776953	11	0.000561626	0.000000000000000E+000	5.73687e+06	0.000000000000000E+000	0.000000000000000E+000	0.776953	0.776953	0.0000000E+000	0.000000000000000E+000	0.00802726
1	1	0	1	0	0	12	2951.84	10	0.803641	9.99735	0.609883	2.91701	0	0.81028	11	0.000588395	0.000000000000000E+000	5.97366e+06	0.000000000000000E+000	0.000000000000000E+000	0.81028	0.81028	0.0000000E+000	0.000000000000000E+000	0.00803427
1	1	0	1	0	0	12	2963.84	10	0.804102	9.99913	0.729861	3.03699	0	0.843607	11	0.000615184	0.000000000000000E+000	6.21349e+06	0.000000000000000E+000	0.000000000000000E+000	0.843607	0.843607	0.0000000E+000	0.000000000000000E+000	0.00804032
1	1	0	1	0	0	12	2975.84	10	0.804798	9.99798	0.849838	3.15696	0	0.876934	11	0.000641997	0.000000000000000E+000	6.44977e+06	0.000000000000000E+000	0.000000000000000E+000	0.876934	0.876934	0.0000000E+000	0.000000000000000E+000	0.00804636
1	1	0	1	0	0	12	2987.84	10	0.805347	9.99735	0.969815	3.27694	0	0.910261	11	0.000668821	0.000000000000000E+000	6.68739e+06	0.000000000000000E+000	0.000000000000000E+000	0.910261	0.910261	0.0000000E+000	0.000000000000000E+000	0.00805133
1	1	0	1	0	0	12	2999.84	10	0.805619	9.99817	1.08979	3.39692	0	0.943588	11	0.000695666	0.000000000000000E+000	6.92839e+06	0.000000000000000E+000	0.000000000000000E+000	0.943588	0.943588	0.0000000E+000	0.000000000000000E+000	0.00805472
1	1	0	1	0	0	12	3011.84	10	0.806343	9.99868	1.20977	3.5169	0	0.976915	11	0.00072253	0.000000000000000E+000	7.16252e+06	0.000000000000000E+000	0.000000000000000E+000	0.976915	0.976915	0.0000000E+000	0.000000000000000E+000	0.00806237
1	1	0	1	0	0	12	3023.84	10	0.80675	9.99754	1.32975	3.63687	0	1.01024	11	0.000749413	0.000000000000000E+000	7.40072e+06	0.000000000000000E+000	0.000000000000000E+000	1.01024	1.01024	0.0000000E+000	0.000000000000000E+000	0.00806551
1	1	0	1	0	0	12	3035.84	10	0.807423	9.99836	1.44972	3.75685	0	1.04357	11	0.000776312	0.000000000000000E+000	7.6344e+06	0.000000000000000E+000	0.000000000000000E+000	1.04357	1.04357	0.0000000E+000	0.000000000000000E+000	0.00807291
1	1	0	1	0	0	12	3047.84	10	0.807941	9.99792	1.5697	3.87683	0	1.0769	11	0.000803231	0.000000000000000E+000	7.86994e+06	0.000000000000000E+000	0.000000000000000E+000	1.0769	1.0769	0.0000000E+000	0.000000000000000E+000	0.00807773
1	1	0	1	0	0	12	3059.84	10	0.80873	9.99786	1.68968	3.9968	0	1.11022	11	0.000830173	0.000000000000000E+000	8.10051e+06	0.000000000000000E+000	0.000000000000000E+000	1.11022	1.11022	0.0000000E+000	0.000000000000000E+000	0.00808557
1	1	0	1	0	0	12	3070.84	10	0.808099	9.99836	1.79966	4.10678	0	1.14077	11	0.000854879	0.000000000000000E+000	8.33408e+06	0.000000000000000E+000	0.000000000000000E+000	1.14077	1.14077	0.0000000E+000	0.000000000000000E+000	0.00807966