File: Data_1mg/2023_01_31 NiNx 1 mg 307ref set2_04_CA_C01.mpt
EC-Lab ASCII FILE
Nb header lines : 61

Chronoamperometry / Chronocoulometry

Run on channel : 1 (SN 21648)
User :
CE vs. WE compliance from -10 V to 10 V
Electrode connection : standard
Potential control : Ewe
Ewe ctrl range : min = -2.50 V, max = 2.50 V
Safety Limits :
	Do not start on E overload
Acquisition started on : 01/31/2023 10:44:48.640
Loaded Setting File :  C:\Users\grupogalan\Documents\EC-Lab\Data\Scott\_cyclic_pause_tafel.mps
Saved on :
	File : 2023_01_31 NiNx 1 mg 307ref set2_04_CA_C01.mpr
	Directory : C:\Users\grupogalan\Documents\EC-Lab\Data\Scott\
	Host : 169.254.104.159
Device : VSP (SN 1176)
Address : USB
EC-Lab for windows v11.46 (software)
Internet server v11.40 (firmware)
Command interpretor v11.40 (firmware)
Electrode material :
Initial state :
Electrolyte :
Comments :
Electrode surface area : 0.001 cm²
Characteristic mass : 0.001 g
Equivalent Weight : 0.000 g/eq.
Density : 0.000 g/cm3
Volume (V) : 0.001 cm³
Cycle Definition : Charge/Discharge alternance
Ei (V)              0.707
vs.                 Ref
ti (h:m:s)          0:00:10.0000
Imax                pass
unit Imax           mA
Imin                pass
unit Imin           mA
dQM                 0.000
unit dQM            mA.h
record              <I>
dI                  5.000
unit dI             µA
dQ                  0.000
unit dQ             mA.h
dt (s)              0.1000
dta (s)             0.1000
E range min (V)     -2.500
E range max (V)     2.500
I Range             Auto
I Range min         Unset
I Range max         Unset
I Range init        Unset
Bandwidth           5
goto Ns'            0
nc cycles           0

mode	ox/red	error	control changes	Ns changes	counter inc.	Ns	time/s	control/V	Ewe/V	<I>/mA	dQ/C	(Q-Qo)/C	I Range	Q charge/discharge/mA.h	half cycle	Energy charge/W.h	Energy discharge/W.h	Capacitance charge/µF	Capacitance discharge/µF	Q discharge/mA.h	Q charge/mA.h	Capacity/mA.h	Efficiency/%	cycle number	P/W
2	1	0	1	0	0	0	2994.66	0.707013	0.706526	0.132958	1.84541e-05	1.84541e-05	11	5.12615e-06	0	3.62175e-09	0.000000000000000E+000	0.000000000000000E+000	0.000000000000000E+000	0.000000000000000E+000	5.12615e-06	5.12615e-06	0.0000000E+000	0.000000000000000E+000	9.39384e-05
2	1	0	1	0	0	0	2994.79	0.707013	0.706927	0.13929	3.7646e-05	3.7646e-05	12	1.04572e-05	0	7.39045e-09	0.000000000000000E+000	93889.7	0.000000000000000E+000	0.000000000000000E+000	1.04572e-05	1.04572e-05	0.0000000E+000	0.000000000000000E+000	9.84681e-05
2	1	0	1	0	0	0	2994.89	0.707013	0.707118	0.148766	5.25226e-05	5.25226e-05	12	1.45896e-05	0	1.03125e-08	0.000000000000000E+000	88730.6	0.000000000000000E+000	0.000000000000000E+000	1.45896e-05	1.45896e-05	0.0000000E+000	0.000000000000000E+000	0.000105195
2	1	0	1	0	0	0	2994.99	0.707013	0.70708	0.148615	6.73841e-05	6.73841e-05	12	1.87178e-05	0	1.32315e-08	0.000000000000000E+000	121692	0.000000000000000E+000	0.000000000000000E+000	1.87178e-05	1.87178e-05	0.0000000E+000	0.000000000000000E+000	0.000105083
2	1	0	1	0	0	0	2995.09	0.707013	0.707691	0.148102	8.21943e-05	8.21943e-05	12	2.28318e-05	0	1.61429e-08	0.000000000000000E+000	70572.8	0.000000000000000E+000	0.000000000000000E+000	2.28318e-05	2.28318e-05	0.0000000E+000	0.000000000000000E+000	0.000104811
2	1	0	1	0	0	0	2995.19	0.707013	0.707156	0.147836	9.69779e-05	9.69779e-05	12	2.69383e-05	0	1.90469e-08	0.000000000000000E+000	153913	0.000000000000000E+000	0.000000000000000E+000	2.69383e-05	2.69383e-05	0.0000000E+000	0.000000000000000E+000	0.000104543
2	1	0	1	0	0	0	2995.29	0.707013	0.707137	0.147287	0.000111707	0.000111707	12	3.10296e-05	0	2.194e-08	0.000000000000000E+000	182824	0.000000000000000E+000	0.000000000000000E+000	3.10296e-05	3.10296e-05	0.0000000E+000	0.000000000000000E+000	0.000104152
2	1	0	1	0	0	0	2995.39	0.707013	0.706946	0.146534	0.00012636	0.00012636	12	3.51e-05	0	2.48175e-08	0.000000000000000E+000	300790	0.000000000000000E+000	0.000000000000000E+000	3.51e-05	3.51e-05	0.0000000E+000	0.000000000000000E+000	0.000103592
2	1	0	1	0	0	0	2995.49	0.707013	0.707213	0.145734	0.000140933	0.000140933	12	3.91482e-05	0	2.76804e-08	0.000000000000000E+000	205036	0.000000000000000E+000	0.000000000000000E+000	3.91482e-05	3.91482e-05	0.0000000E+000	0.000000000000000E+000	0.000103065
2	1	0	1	0	0	0	2995.59	0.707013	0.707786	0.144932	0.000155427	0.000155427	12	4.31741e-05	0	3.05299e-08	0.000000000000000E+000	123339	0.000000000000000E+000	0.000000000000000E+000	4.31741e-05	4.31741e-05	0.0000000E+000	0.000000000000000E+000	0.000102581
2	1	0	1	0	0	0	2995.69	0.707013	0.70729	0.144556	0.000169882	0.000169882	12	4.71895e-05	0	3.337e-08	0.000000000000000E+000	222425	0.000000000000000E+000	0.000000000000000E+000	4.71895e-05	4.71895e-05	0.0000000E+000	0.000000000000000E+000	0.000102243
2	1	0	1	0	0	0	2995.79	0.707013	0.707328	0.143984	0.000184281	0.000184281	12	5.1189e-05	0	3.6199e-08	0.000000000000000E+000	229799	0.000000000000000E+000	0.000000000000000E+000	5.1189e-05	5.1189e-05	0.0000000E+000	0.000000000000000E+000	0.000101844
2	1	0	1	0	0	0	2995.89	0.707013	0.707748	0.14323	0.000198604	0.000198604	12	5.51677e-05	0	3.90148e-08	0.000000000000000E+000	162529	0.000000000000000E+000	0.000000000000000E+000	5.51677e-05	5.51677e-05	0.0000000E+000	0.000000000000000E+000	0.000101371
2	1	0	1	0	0	0	2995.99	0.707013	0.706717	0.142405	0.000212844	0.000212844	12	5.91233e-05	0	4.18104e-08	0.000000000000000E+000	1.11452e+06	0.000000000000000E+000	0.000000000000000E+000	5.91233e-05	5.91233e-05	0.0000000E+000	0.000000000000000E+000	0.00010064
2	1	0	1	0	0	0	2996.09	0.707013	0.70687	0.141865	0.000227031	0.000227031	12	6.3064e-05	0	4.45959e-08	0.000000000000000E+000	660586	0.000000000000000E+000	0.000000000000000E+000	6.3064e-05	6.3064e-05	0.0000000E+000	0.000000000000000E+000	0.00010028
2	1	0	1	0	0	0	2996.19	0.707013	0.706812	0.141492	0.00024118	0.00024118	12	6.69944e-05	0	4.7374e-08	0.000000000000000E+000	842107	0.000000000000000E+000	0.000000000000000E+000	6.69944e-05	6.69944e-05	0.0000000E+000	0.000000000000000E+000	0.000100008
2	1	0	1	0	0	0	2996.29	0.707013	0.707118	0.140988	0.000255279	0.000255279	12	7.09107e-05	0	5.01433e-08	0.000000000000000E+000	431262	0.000000000000000E+000	0.000000000000000E+000	7.09107e-05	7.09107e-05	0.0000000E+000	0.000000000000000E+000	9.96953e-05
2	1	0	1	0	0	0	2996.39	0.707013	0.707538	0.140302	0.000269309	0.000269309	12	7.4808e-05	0	5.29007e-08	0.000000000000000E+000	266124	0.000000000000000E+000	0.000000000000000E+000	7.4808e-05	7.4808e-05	0.0000000E+000	0.000000000000000E+000	9.92687e-05
2	1	0	1	0	0	0	2996.49	0.707013	0.706793	0.139672	0.000283276	0.000283276	12	7.86878e-05	0	5.56429e-08	0.000000000000000E+000	1.05966e+06	0.000000000000000E+000	0.000000000000000E+000	7.86878e-05	7.86878e-05	0.0000000E+000	0.000000000000000E+000	9.87192e-05
2	1	0	1	0	0	0	2996.59	0.707013	0.707442	0.139277	0.000297204	0.000297204	12	8.25566e-05	0	5.83799e-08	0.000000000000000E+000	324288	0.000000000000000E+000	0.000000000000000E+000	8.25566e-05	8.25566e-05	0.0000000E+000	0.000000000000000E+000	9.85303e-05
2	1	0	1	0	0	0	2996.69	0.707013	0.707232	0.138948	0.000311098	0.000311098	12	8.64162e-05	0	6.11096e-08	0.000000000000000E+000	440341	0.000000000000000E+000	0.000000000000000E+000	8.64162e-05	8.64162e-05	0.0000000E+000	0.000000000000000E+000	9.82684e-05
2	1	0	1	0	0	0	2996.79	0.707013	0.706965	0.138577	0.000324956	0.000324956	12	9.02656e-05	0	6.38309e-08	0.000000000000000E+000	739937	0.000000000000000E+000	0.000000000000000E+000	9.02656e-05	9.02656e-05	0.0000000E+000	0.000000000000000E+000	9.79692e-05
2	1	0	1	0	0	0	2996.89	0.707013	0.706851	0.13787	0.000338743	0.000338743	12	9.40953e-05	0	6.6538e-08	0.000000000000000E+000	1.04355e+06	0.000000000000000E+000	0.000000000000000E+000	9.40953e-05	9.40953e-05	0.0000000E+000	0.000000000000000E+000	9.74534e-05
2	1	0	1	0	0	0	2996.99	0.707013	0.706946	0.137445	0.000352488	0.000352488	12	9.79132e-05	0	6.9237e-08	0.000000000000000E+000	839069	0.000000000000000E+000	0.000000000000000E+000	9.79132e-05	9.79132e-05	0.0000000E+000	0.000000000000000E+000	9.7166e-05
2	1	0	1	0	0	0	2997.09	0.707013	0.706908	0.137192	0.000366207	0.000366207	12	0.000101724	0	7.1931e-08	0.000000000000000E+000	958940	0.000000000000000E+000	0.000000000000000E+000	0.000101724	0.000101724	0.0000000E+000	0.000000000000000E+000	9.69822e-05
2	1	0	1	0	0	0	2997.19	0.707013	0.707423	0.136901	0.000379897	0.000379897	12	0.000105527	0	7.46212e-08	0.000000000000000E+000	423327	0.000000000000000E+000	0.000000000000000E+000	0.000105527	0.000105527	0.0000000E+000	0.000000000000000E+000	9.68473e-05
2	1	0	1	0	0	0	2997.29	0.707013	0.707252	0.13624	0.000393521	0.000393521	12	0.000109311	0	7.72977e-08	0.000000000000000E+000	542363	0.000000000000000E+000	0.000000000000000E+000	0.000109311	0.000109311	0.0000000E+000	0.000000000000000E+000	9.63559e-05
2	1	0	1	0	0	0	2997.39	0.707013	0.706717	0.135811	0.000407102	0.000407102	12	0.000113084	0	7.99638e-08	0.000000000000000E+000	2.13172e+06	0.000000000000000E+000	0.000000000000000E+000	0.000113084	0.000113084	0.0000000E+000	0.000000000000000E+000	9.59801e-05
2	1	0	1	0	0	0	2997.49	0.707013	0.707156	0.135641	0.000420666	0.000420666	12	0.000116852	0	8.26283e-08	0.000000000000000E+000	667638	0.000000000000000E+000	0.000000000000000E+000	0.000116852	0.000116852	0.0000000E+000	0.000000000000000E+000	9.59191e-05
2	1	0	1	0	0	0	2997.59	0.707013	0.707805	0.135407	0.000434207	0.000434207	12	0.000120613	0	8.52905e-08	0.000000000000000E+000	339427	0.000000000000000E+000	0.000000000000000E+000	0.000120613	0.000120613	0.0000000E+000	0.000000000000000E+000	9.5842e-05
2	1	0	1	0	0	0	2997.69	0.707013	0.706927	0.135004	0.000447707	0.000447707	12	0.000124363	0	8.79416e-08	0.000000000000000E+000	1.11659e+06	0.000000000000000E+000	0.000000000000000E+000	0.000124363	0.000124363	0.0000000E+000	0.000000000000000E+000	9.54377e-05
2	1	0	1	0	0	0	2997.79	0.707013	0.707194	0.134479	0.000461155	0.000461155	12	0.000128099	0	9.05833e-08	0.000000000000000E+000	690055	0.000000000000000E+000	0.000000000000000E+000	0.000128099	0.000128099	0.0000000E+000	0.000000000000000E+000	9.51029e-05
2	1	0	1	0	0	0	2997.89	0.707013	0.707614	0.134223	0.000474577	0.000474577	12	0.000131827	0	9.32216e-08	0.000000000000000E+000	436064	0.000000000000000E+000	0.000000000000000E+000	0.000131827	0.000131827	0.0000000E+000	0.000000000000000E+000	9.4978e-05
2	1	0	1	0	0	0	2997.99	0.707013	0.706984	0.134145	0.000487992	0.000487992	12	0.000135553	0	9.5856e-08	0.000000000000000E+000	1.06493e+06	0.000000000000000E+000	0.000000000000000E+000	0.000135553	0.000135553	0.0000000E+000	0.000000000000000E+000	9.48385e-05
2	1	0	1	0	0	0	2998.09	0.707013	0.707481	0.133715	0.000501363	0.000501363	12	0.000139268	0	9.84838e-08	0.000000000000000E+000	525160	0.000000000000000E+000	0.000000000000000E+000	0.000139268	0.000139268	0.0000000E+000	0.000000000000000E+000	9.46009e-05
2	1	0	1	0	0	0	2998.19	0.707013	0.707862	0.133274	0.000514691	0.000514691	12	0.00014297	0	1.01104e-07	0.000000000000000E+000	385099	0.000000000000000E+000	0.000000000000000E+000	0.00014297	0.00014297	0.0000000E+000	0.000000000000000E+000	9.43395e-05
2	1	0	1	0	0	0	2998.29	0.707013	0.707061	0.132995	0.00052799	0.00052799	12	0.000146664	0	1.03716e-07	0.000000000000000E+000	987537	0.000000000000000E+000	0.000000000000000E+000	0.000146664	0.000146664	0.0000000E+000	0.000000000000000E+000	9.40355e-05
2	1	0	1	0	0	0	2998.39	0.707013	0.707175	0.132937	0.000541284	0.000541284	12	0.000150357	0	1.06328e-07	0.000000000000000E+000	833753	0.000000000000000E+000	0.000000000000000E+000	0.000150357	0.000150357	0.0000000E+000	0.000000000000000E+000	9.40096e-05
2	1	0	1	0	0	0	2998.49	0.707013	0.707271	0.132726	0.000554557	0.000554557	12	0.000154043	0	1.08935e-07	0.000000000000000E+000	744730	0.000000000000000E+000	0.000000000000000E+000	0.000154043	0.000154043	0.0000000E+000	0.000000000000000E+000	9.38729e-05
2	1	0	1	0	0	0	2998.59	0.707013	0.707404	0.132253	0.000567782	0.000567782	12	0.000157717	0	1.11534e-07	0.000000000000000E+000	646474	0.000000000000000E+000	0.000000000000000E+000	0.000157717	0.000157717	0.0000000E+000	0.000000000000000E+000	9.35567e-05
2	1	0	1	0	0	0	2998.69	0.707013	0.7075	0.13193	0.000580975	0.000580975	12	0.000161382	0	1.14127e-07	0.000000000000000E+000	596630	0.000000000000000E+000	0.000000000000000E+000	0.000161382	0.000161382	0.0000000E+000	0.000000000000000E+000	9.33404e-05
2	1	0	1	0	0	0	2998.79	0.707013	0.706946	0.131714	0.000594146	0.000594146	12	0.000165041	0	1.16714e-07	0.000000000000000E+000	1.41432e+06	0.000000000000000E+000	0.000000000000000E+000	0.000165041	0.000165041	0.0000000E+000	0.000000000000000E+000	9.31146e-05
2	1	0	1	0	0	0	2998.89	0.707013	0.706774	0.131605	0.000607307	0.000607307	12	0.000168696	0	1.19297e-07	0.000000000000000E+000	2.44632e+06	0.000000000000000E+000	0.000000000000000E+000	0.000168696	0.000168696	0.0000000E+000	0.000000000000000E+000	9.30148e-05
2	1	0	1	0	0	0	2998.99	0.707013	0.707232	0.131452	0.000620452	0.000620452	12	0.000172348	0	1.2188e-07	0.000000000000000E+000	878213	0.000000000000000E+000	0.000000000000000E+000	0.000172348	0.000172348	0.0000000E+000	0.000000000000000E+000	9.2967e-05
2	1	0	1	0	0	0	2999.09	0.707013	0.707462	0.130991	0.000633551	0.000633551	12	0.000175986	0	1.24454e-07	0.000000000000000E+000	677193	0.000000000000000E+000	0.000000000000000E+000	0.000175986	0.000175986	0.0000000E+000	0.000000000000000E+000	9.26712e-05
2	1	0	1	0	0	0	2999.19	0.707013	0.707595	0.130739	0.000646625	0.000646625	12	0.000179618	0	1.27024e-07	0.000000000000000E+000	604748	0.000000000000000E+000	0.000000000000000E+000	0.000179618	0.000179618	0.0000000E+000	0.000000000000000E+000	9.25103e-05
2	1	0	1	0	0	0	2999.29	0.707013	0.707442	0.130584	0.000659683	0.000659683	12	0.000183245	0	1.2959e-07	0.000000000000000E+000	719800	0.000000000000000E+000	0.000000000000000E+000	0.000183245	0.000183245	0.0000000E+000	0.000000000000000E+000	9.23807e-05
2	1	0	1	0	0	0	2999.39	0.707013	0.706736	0.130506	0.000672734	0.000672734	12	0.000186871	0	1.32152e-07	0.000000000000000E+000	3.20278e+06	0.000000000000000E+000	0.000000000000000E+000	0.000186871	0.000186871	0.0000000E+000	0.000000000000000E+000	9.22336e-05
2	1	0	1	0	0	0	2999.49	0.707013	0.707538	0.130141	0.000685748	0.000685748	12	0.000190486	0	1.3471e-07	0.000000000000000E+000	677638	0.000000000000000E+000	0.000000000000000E+000	0.000190486	0.000190486	0.0000000E+000	0.000000000000000E+000	9.20793e-05
2	1	0	1	0	0	0	2999.59	0.707013	0.707137	0.129801	0.000698728	0.000698728	12	0.000194091	0	1.37259e-07	0.000000000000000E+000	1.14357e+06	0.000000000000000E+000	0.000000000000000E+000	0.000194091	0.000194091	0.0000000E+000	0.000000000000000E+000	9.17873e-05
2	1	0	1	0	0	0	2999.69	0.707013	0.706736	0.129543	0.000711682	0.000711682	12	0.00019769	0	1.39802e-07	0.000000000000000E+000	3.38821e+06	0.000000000000000E+000	0.000000000000000E+000	0.00019769	0.00019769	0.0000000E+000	0.000000000000000E+000	9.15528e-05
2	1	0	1	0	0	0	2999.79	0.707013	0.707748	0.129575	0.00072464	0.00072464	12	0.000201289	0	1.4235e-07	0.000000000000000E+000	593017	0.000000000000000E+000	0.000000000000000E+000	0.000201289	0.000201289	0.0000000E+000	0.000000000000000E+000	9.17065e-05
2	1	0	1	0	0	0	2999.89	0.707013	0.70666	0.129478	0.000737588	0.000737588	12	0.000204885	0	1.44891e-07	0.000000000000000E+000	5.51702e+06	0.000000000000000E+000	0.000000000000000E+000	0.000204885	0.000204885	0.0000000E+000	0.000000000000000E+000	9.14966e-05
2	1	0	1	0	0	0	2999.99	0.707013	0.707328	0.129204	0.000750508	0.000750508	12	0.000208474	0	1.4743e-07	0.000000000000000E+000	935888	0.000000000000000E+000	0.000000000000000E+000	0.000208474	0.000208474	0.0000000E+000	0.000000000000000E+000	9.13893e-05
2	1	0	1	0	0	0	3000.09	0.707013	0.70708	0.128928	0.000763401	0.000763401	12	0.000212056	0	1.49962e-07	0.000000000000000E+000	1.37866e+06	0.000000000000000E+000	0.000000000000000E+000	0.000212056	0.000212056	0.0000000E+000	0.000000000000000E+000	9.11622e-05
2	1	0	1	0	0	0	3000.19	0.707013	0.707519	0.12872	0.000776273	0.000776273	12	0.000215631	0	1.52492e-07	0.000000000000000E+000	781875	0.000000000000000E+000	0.000000000000000E+000	0.000215631	0.000215631	0.0000000E+000	0.000000000000000E+000	9.10719e-05
2	1	0	1	0	0	0	3000.29	0.707013	0.707538	0.128753	0.000789148	0.000789148	12	0.000219208	0	1.55022e-07	0.000000000000000E+000	779816	0.000000000000000E+000	0.000000000000000E+000	0.000219208	0.000219208	0.0000000E+000	0.000000000000000E+000	9.10979e-05
2	1	0	1	0	0	0	3000.39	0.707013	0.707252	0.128531	0.000802001	0.000802001	12	0.000222778	0	1.57548e-07	0.000000000000000E+000	1.10534e+06	0.000000000000000E+000	0.000000000000000E+000	0.000222778	0.000222778	0.0000000E+000	0.000000000000000E+000	9.09041e-05
2	1	0	1	0	0	0	3000.49	0.707013	0.707213	0.128217	0.000814823	0.000814823	12	0.00022634	0	1.60066e-07	0.000000000000000E+000	1.18544e+06	0.000000000000000E+000	0.000000000000000E+000	0.00022634	0.00022634	0.0000000E+000	0.000000000000000E+000	9.06764e-05
2	1	0	1	0	0	0	3000.59	0.707013	0.706851	0.127942	0.000827617	0.000827617	12	0.000229894	0	1.62578e-07	0.000000000000000E+000	2.5496e+06	0.000000000000000E+000	0.000000000000000E+000	0.000229894	0.000229894	0.0000000E+000	0.000000000000000E+000	9.04362e-05
2	1	0	1	0	0	0	3000.69	0.707013	0.707156	0.127914	0.000840409	0.000840409	12	0.000233447	0	1.65091e-07	0.000000000000000E+000	1.33381e+06	0.000000000000000E+000	0.000000000000000E+000	0.000233447	0.000233447	0.0000000E+000	0.000000000000000E+000	9.04554e-05
2	1	0	1	0	0	0	3000.79	0.707013	0.707862	0.127795	0.000853188	0.000853188	12	0.000236997	0	1.67604e-07	0.000000000000000E+000	638368	0.000000000000000E+000	0.000000000000000E+000	0.000236997	0.000236997	0.0000000E+000	0.000000000000000E+000	9.04614e-05
2	1	0	1	0	0	0	3000.89	0.707013	0.707022	0.127542	0.000865942	0.000865942	12	0.00024054	0	1.70109e-07	0.000000000000000E+000	1.74428e+06	0.000000000000000E+000	0.000000000000000E+000	0.00024054	0.00024054	0.0000000E+000	0.000000000000000E+000	9.01747e-05
2	1	0	1	0	0	0	3000.99	0.707013	0.707462	0.127202	0.000878663	0.000878663	12	0.000244073	0	1.72609e-07	0.000000000000000E+000	939189	0.000000000000000E+000	0.000000000000000E+000	0.000244073	0.000244073	0.0000000E+000	0.000000000000000E+000	8.99907e-05
2	1	0	1	0	0	0	3001.09	0.707013	0.707462	0.127146	0.000891377	0.000891377	12	0.000247605	0	1.75107e-07	0.000000000000000E+000	952780	0.000000000000000E+000	0.000000000000000E+000	0.000247605	0.000247605	0.0000000E+000	0.000000000000000E+000	8.99508e-05
2	1	0	1	0	0	0	3001.19	0.707013	0.706564	0.127154	0.000904093	0.000904093	12	0.000251137	0	1.77603e-07	0.000000000000000E+000	2.36633e+07	0.000000000000000E+000	0.000000000000000E+000	0.000251137	0.000251137	0.0000000E+000	0.000000000000000E+000	8.98424e-05
2	1	0	1	0	0	0	3001.29	0.707013	0.707041	0.127002	0.000916793	0.000916793	12	0.000254665	0	1.80097e-07	0.000000000000000E+000	1.77838e+06	0.000000000000000E+000	0.000000000000000E+000	0.000254665	0.000254665	0.0000000E+000	0.000000000000000E+000	8.97954e-05
2	1	0	1	0	0	0	3001.39	0.707013	0.707022	0.126658	0.000929458	0.000929458	12	0.000258183	0	1.82585e-07	0.000000000000000E+000	1.87222e+06	0.000000000000000E+000	0.000000000000000E+000	0.000258183	0.000258183	0.0000000E+000	0.000000000000000E+000	8.95498e-05
2	1	0	1	0	0	0	3001.49	0.707013	0.707232	0.1265	0.000942108	0.000942108	12	0.000261697	0	1.8507e-07	0.000000000000000E+000	1.3335e+06	0.000000000000000E+000	0.000000000000000E+000	0.000261697	0.000261697	0.0000000E+000	0.000000000000000E+000	8.94648e-05
2	1	0	1	0	0	0	3001.59	0.707013	0.707805	0.12648	0.000954756	0.000954756	12	0.00026521	0	1.87556e-07	0.000000000000000E+000	746350	0.000000000000000E+000	0.000000000000000E+000	0.00026521	0.00026521	0.0000000E+000	0.000000000000000E+000	8.95232e-05
2	1	0	1	0	0	0	3001.69	0.707013	0.707385	0.126357	0.000967392	0.000967392	12	0.00026872	0	1.90039e-07	0.000000000000000E+000	1.12592e+06	0.000000000000000E+000	0.000000000000000E+000	0.00026872	0.00026872	0.0000000E+000	0.000000000000000E+000	8.93833e-05
2	1	0	1	0	0	0	3001.79	0.707013	0.706602	0.1261	0.000980002	0.000980002	12	0.000272223	0	1.92514e-07	0.000000000000000E+000	1.2825e+07	0.000000000000000E+000	0.000000000000000E+000	0.000272223	0.000272223	0.0000000E+000	0.000000000000000E+000	8.91023e-05
2	1	0	1	0	0	0	3001.89	0.707013	0.707194	0.125844	0.000992586	0.000992586	12	0.000275718	0	1.94987e-07	0.000000000000000E+000	1.48527e+06	0.000000000000000E+000	0.000000000000000E+000	0.000275718	0.000275718	0.0000000E+000	0.000000000000000E+000	8.89959e-05
2	1	0	1	0	0	0	3001.99	0.707013	0.706793	0.12571	0.00100516	0.00100516	12	0.00027921	0	1.97455e-07	0.000000000000000E+000	3.76003e+06	0.000000000000000E+000	0.000000000000000E+000	0.00027921	0.00027921	0.0000000E+000	0.000000000000000E+000	8.88512e-05
2	1	0	1	0	0	0	3002.09	0.707013	0.707653	0.125813	0.00101774	0.00101774	12	0.000282705	0	1.99928e-07	0.000000000000000E+000	903430	0.000000000000000E+000	0.000000000000000E+000	0.000282705	0.000282705	0.0000000E+000	0.000000000000000E+000	8.90322e-05
2	1	0	1	0	0	0	3002.19	0.707013	0.707366	0.125776	0.00103032	0.00103032	12	0.000286199	0	2.02399e-07	0.000000000000000E+000	1.22638e+06	0.000000000000000E+000	0.000000000000000E+000	0.000286199	0.000286199	0.0000000E+000	0.000000000000000E+000	8.89698e-05
2	1	0	1	0	0	0	3002.29	0.707013	0.707939	0.125404	0.00104286	0.00104286	12	0.000289682	0	2.04865e-07	0.000000000000000E+000	738082	0.000000000000000E+000	0.000000000000000E+000	0.000289682	0.000289682	0.0000000E+000	0.000000000000000E+000	8.87784e-05
2	1	0	1	0	0	0	3002.39	0.707013	0.706469	0.125209	0.00105538	0.00105538	12	0.000293161	0	2.07322e-07	0.000000000000000E+000	1.84249e+07	0.000000000000000E+000	0.000000000000000E+000	0.000293161	0.000293161	0.0000000E+000	0.000000000000000E+000	8.84563e-05
2	1	0	1	0	0	0	3002.49	0.707013	0.70708	0.12524	0.0010679	0.0010679	12	0.000296639	0	2.09782e-07	0.000000000000000E+000	1.92857e+06	0.000000000000000E+000	0.000000000000000E+000	0.000296639	0.000296639	0.0000000E+000	0.000000000000000E+000	8.85549e-05
2	1	0	1	0	0	0	3002.59	0.707013	0.70708	0.125232	0.00108043	0.00108043	12	0.000300118	0	2.12242e-07	0.000000000000000E+000	1.95119e+06	0.000000000000000E+000	0.000000000000000E+000	0.000300118	0.000300118	0.0000000E+000	0.000000000000000E+000	8.85489e-05
2	1	0	1	0	0	0	3002.69	0.707013	0.707099	0.125041	0.00109293	0.00109293	12	0.000303591	0	2.14698e-07	0.000000000000000E+000	1.90804e+06	0.000000000000000E+000	0.000000000000000E+000	0.000303591	0.000303591	0.0000000E+000	0.000000000000000E+000	8.84164e-05
2	1	0	1	0	0	0	3002.79	0.707013	0.706774	0.124748	0.0011054	0.0011054	12	0.000307057	0	2.17147e-07	0.000000000000000E+000	4.45273e+06	0.000000000000000E+000	0.000000000000000E+000	0.000307057	0.000307057	0.0000000E+000	0.000000000000000E+000	8.81689e-05
2	1	0	1	0	0	0	3002.89	0.707013	0.707519	0.124627	0.00111787	0.00111787	12	0.000310519	0	2.19596e-07	0.000000000000000E+000	1.12593e+06	0.000000000000000E+000	0.000000000000000E+000	0.000310519	0.000310519	0.0000000E+000	0.000000000000000E+000	8.81758e-05
2	1	0	1	0	0	0	3002.99	0.707013	0.707977	0.124634	0.00113033	0.00113033	12	0.000313981	0	2.22047e-07	0.000000000000000E+000	778960	0.000000000000000E+000	0.000000000000000E+000	0.000313981	0.000313981	0.0000000E+000	0.000000000000000E+000	8.82381e-05
2	1	0	1	0	0	0	3003.09	0.707013	0.707653	0.124619	0.00114279	0.00114279	12	0.000317442	0	2.24497e-07	0.000000000000000E+000	1.01444e+06	0.000000000000000E+000	0.000000000000000E+000	0.000317442	0.000317442	0.0000000E+000	0.000000000000000E+000	8.81868e-05
2	1	0	1	0	0	0	3003.19	0.707013	0.706392	0.124444	0.00115524	0.00115524	12	0.000320899	0	2.26939e-07	0.000000000000000E+000	8.6448e+06	0.000000000000000E+000	0.000000000000000E+000	0.000320899	0.000320899	0.0000000E+000	0.000000000000000E+000	8.79061e-05
2	1	0	1	0	0	0	3003.29	0.707013	0.707232	0.124247	0.00116766	0.00116766	12	0.00032435	0	2.2938e-07	0.000000000000000E+000	1.65275e+06	0.000000000000000E+000	0.000000000000000E+000	0.00032435	0.00032435	0.0000000E+000	0.000000000000000E+000	8.78716e-05
2	1	0	1	0	0	0	3003.39	0.707013	0.707194	0.124055	0.00118007	0.00118007	12	0.000327796	0	2.31817e-07	0.000000000000000E+000	1.76581e+06	0.000000000000000E+000	0.000000000000000E+000	0.000327796	0.000327796	0.0000000E+000	0.000000000000000E+000	8.77311e-05
2	1	0	1	0	0	0	3003.49	0.707013	0.70687	0.124076	0.00119247	0.00119247	12	0.000331243	0	2.34253e-07	0.000000000000000E+000	3.46972e+06	0.000000000000000E+000	0.000000000000000E+000	0.000331243	0.000331243	0.0000000E+000	0.000000000000000E+000	8.77057e-05
2	1	0	1	0	0	0	3003.59	0.707013	0.707328	0.124075	0.00120488	0.00120488	12	0.000334689	0	2.36691e-07	0.000000000000000E+000	1.50249e+06	0.000000000000000E+000	0.000000000000000E+000	0.000334689	0.000334689	0.0000000E+000	0.000000000000000E+000	8.77618e-05
2	1	0	1	0	0	0	3003.69	0.707013	0.707576	0.123813	0.00121726	0.00121726	12	0.000338129	0	2.39124e-07	0.000000000000000E+000	1.15917e+06	0.000000000000000E+000	0.000000000000000E+000	0.000338129	0.000338129	0.0000000E+000	0.000000000000000E+000	8.76071e-05
2	1	0	1	0	0	0	3003.79	0.707013	0.707404	0.123611	0.00122962	0.00122962	12	0.000341562	0	2.41553e-07	0.000000000000000E+000	1.40005e+06	0.000000000000000E+000	0.000000000000000E+000	0.000341562	0.000341562	0.0000000E+000	0.000000000000000E+000	8.74429e-05
2	1	0	1	0	0	0	3003.89	0.707013	0.707385	0.123483	0.00124197	0.00124197	12	0.000344992	0	2.4398e-07	0.000000000000000E+000	1.4455e+06	0.000000000000000E+000	0.000000000000000E+000	0.000344992	0.000344992	0.0000000E+000	0.000000000000000E+000	8.73497e-05
2	1	0	1	0	0	0	3003.99	0.707013	0.706373	0.123549	0.00125433	0.00125433	12	0.000348424	0	2.46404e-07	0.000000000000000E+000	8.21394e+06	0.000000000000000E+000	0.000000000000000E+000	0.000348424	0.000348424	0.0000000E+000	0.000000000000000E+000	8.72716e-05
2	1	0	1	0	0	0	3004.09	0.707013	0.707271	0.123498	0.00126668	0.00126668	12	0.000351855	0	2.4883e-07	0.000000000000000E+000	1.70106e+06	0.000000000000000E+000	0.000000000000000E+000	0.000351855	0.000351855	0.0000000E+000	0.000000000000000E+000	8.73467e-05
2	1	0	1	0	0	0	3004.19	0.707013	0.707347	0.123216	0.001279	0.001279	12	0.000355277	0	2.51251e-07	0.000000000000000E+000	1.55775e+06	0.000000000000000E+000	0.000000000000000E+000	0.000355277	0.000355277	0.0000000E+000	0.000000000000000E+000	8.71567e-05
2	1	0	1	0	0	0	3004.29	0.707013	0.706889	0.122943	0.00129129	0.00129129	12	0.000358693	0	2.53665e-07	0.000000000000000E+000	3.55911e+06	0.000000000000000E+000	0.000000000000000E+000	0.000358693	0.000358693	0.0000000E+000	0.000000000000000E+000	8.69072e-05
2	1	0	1	0	0	0	3004.39	0.707013	0.707576	0.12306	0.0013036	0.0013036	12	0.000362111	0	2.56084e-07	0.000000000000000E+000	1.24139e+06	0.000000000000000E+000	0.000000000000000E+000	0.000362111	0.000362111	0.0000000E+000	0.000000000000000E+000	8.70741e-05
2	1	0	1	0	0	0	3004.49	0.707013	0.707271	0.123141	0.00131591	0.00131591	12	0.000365531	0	2.58503e-07	0.000000000000000E+000	1.76718e+06	0.000000000000000E+000	0.000000000000000E+000	0.000365531	0.000365531	0.0000000E+000	0.000000000000000E+000	8.70939e-05
2	1	0	1	0	0	0	3004.49	0.707013	0.707442	0.122695	0.00131702	0.00131702	12	0.000365838	0	2.5872e-07	0.000000000000000E+000	1.43704e+06	0.000000000000000E+000	0.000000000000000E+000	0.000365838	0.000365838	0.0000000E+000	0.000000000000000E+000	8.67994e-05