File: Data_Lola/CoNiFeNx_400ºC_24h_13102022/Electrodes_19012023/2023_01_20_CoNiFeNx_400ºC_24h_electrode3_19012023_01_PEIS_C05.mpt
EC-Lab ASCII FILE
Nb header lines : 64

Potentio Electrochemical Impedance Spectroscopy

Run on channel : 5 (SN 30436)
User :
CE vs. WE compliance from -10 V to 10 V
Electrode connection : standard
Potential control : Ewe
Ewe ctrl range : min = -2.50 V, max = 2.50 V
Safety Limits :
	Do not start on E overload
Acquisition started on : 01/20/2023 10:11:15.490
Loaded Setting File :  C:\Users\grupogalan\Documents\EC-Lab\Data\ilario\20230118-ec\20230118_DJF1-IGB3-KOH_1M.mps
Saved on :
	File : 2023_01_20_CoNiFeNx_400ºC_24h_electrode3_19012023_01_PEIS_C05.mpr
	Directory : C:\Users\grupogalan\Documents\EC-Lab\Data\Lole Jurado\
	Host : 169.254.104.159
Device : VSP (SN 1176)
Address : USB
EC-Lab for windows v11.46 (software)
Internet server v11.40 (firmware)
Command interpretor v11.40 (firmware)
Electrode material :
Initial state :
Electrolyte :
Comments :
Electrode surface area : 0.001 cm²
Characteristic mass : 0.001 g
Equivalent Weight : 0.000 g/eq.
Density : 0.000 g/cm3
Volume (V) : 0.001 cm³
Record Ece
Cycle Definition : Charge/Discharge alternance
Mode                Single sine
E (V)               0.0000
vs.                 Eoc
tE (h:m:s)          0:00:0.0000
record              0
dI                  0.000
unit dI             mA
dt (s)              0.000
fi                  200.000
unit fi             kHz
ff                  100.000
unit ff             mHz
Nd                  6
Points              per decade
spacing             Logarithmic
Va (mV)             10.0
pw                  0.10
Na                  2
corr                0
E range min (V)     -2.500
E range max (V)     2.500
I Range             Auto
Bandwidth           5
nc cycles           0
goto Ns'            0
nr cycles           0
inc. cycle          0

freq/Hz	Re(Z)/Ohm	-Im(Z)/Ohm	|Z|/Ohm	Phase(Z)/deg	time/s	<Ewe>/V	<I>/mA	Cs/µF	Cp/µF	cycle number	I Range	|Ewe|/V	|I|/A	Ns	(Q-Qo)/mA.h	<Ece>/V	|Ece|/V	Phase(Zce)/deg	|Zce|/Ohm	Re(Zce)/Ohm	-Im(Zce)/Ohm	Phase(Zwe-ce)/deg	|Zwe-ce|/Ohm	Re(Zwe-ce)/Ohm	-Im(Zwe-ce)/Ohm	Re(Y)/Ohm-1	Im(Y)/Ohm-1	|Y|/Ohm-1	Phase(Y)/deg	dq/mA.h
199998	1.13997	-1.20609	1.65958	46.6144	2.51052	-0.621744	-0.128139	-0.659802	-0.348482	1	9	0.00571293	0.0034424	0	-2.36523e-05	0.306549	0.00232682	-14.5023	0.67593	0.654393	0.169266	30.0203	2.07238	1.79436	-1.03683	0.413904	-0.437911	0.602563	-46.6144	-2.36523e-05
135123	0.860148	-0.536932	1.01398	31.9737	2.76556	-0.621552	-0.12963	-2.19367	-0.615112	1	9	0.00968359	0.0095501	0	-2.67526e-05	0.302882	0.00936118	8.02313	0.980218	0.970623	-0.136812	20.2042	1.95081	1.83077	-0.673744	0.836597	-0.522231	0.986215	-31.9737	-3.10036e-06
91291.2	0.802526	-0.23125	0.83518	16.0745	3.26455	-0.621676	-0.14409	-7.53893	-0.57798	1	9	0.0100617	0.0120473	0	-0.000114662	0.305976	0.0123238	11.6163	1.02295	1.002	-0.205977	13.62	1.85674	1.80453	-0.437227	1.15053	-0.331529	1.19735	-16.0745	-8.79098e-05
61674.2	0.816048	-0.111164	0.823585	7.75724	3.76352	-0.621808	-0.146066	-23.2141	-0.422927	1	9	0.0104478	0.0126857	0	-9.04089e-05	0.29952	0.0133679	7.30558	1.05378	1.04522	-0.133999	7.50372	1.87735	1.86127	-0.245164	1.20309	-0.163888	1.2142	-7.75724	2.42535e-05
41669.8	0.801796	-0.0205197	0.802058	1.46601	4.14052	-0.621762	-0.149532	-186.135	-0.121831	1	9	0.00945165	0.0117842	0	-0.00010178	0.32036	0.0123967	5.53926	1.05197	1.04706	-0.101545	3.77728	1.85288	1.84885	-0.122064	1.24638	-0.0318977	1.24679	-1.46601	-1.13714e-05
28151	0.810265	0.0544804	0.812095	-3.84665	4.51755	-0.621736	-0.152141	103.773	0.46704	1	9	0.0106874	0.0131603	0	-0.000117229	0.304906	0.0135284	3.27564	1.02797	1.02629	-0.0587375	0.132809	1.83656	1.83655	-0.00425705	1.22861	0.082609	1.23138	3.84665	-1.54486e-05
19020.9	0.836125	0.106435	0.842872	-7.25446	4.89456	-0.621692	-0.00857807	78.615	1.25357	1	9	0.0111833	0.013268	0	-0.000237011	0.299195	0.0137028	2.08379	1.03277	1.03208	-0.0375524	-2.11158	1.86948	1.86821	0.0688823	1.17692	0.149816	1.18642	7.25446	-0.000119782
12850.7	0.806774	0.217593	0.835602	-15.094	5.39354	-0.621976	-0.139395	56.9177	3.85956	1	9	0.00938372	0.0112299	0	-0.000268004	0.319366	0.0117001	0.935475	1.04187	1.04173	-0.01701	-6.19298	1.85936	1.84851	0.200583	1.15545	0.311635	1.19674	15.094	-3.09933e-05
8684.68	0.85924	0.307364	0.91256	-19.6829	5.64854	-0.621713	-0.145209	59.623	6.76389	1	9	0.0107021	0.0117276	0	-0.000269961	0.312375	0.012085	-2.25825	1.03048	1.02968	0.0406046	-10.4378	1.9207	1.88892	0.347968	1.03179	0.369088	1.09582	19.6829	-1.95715e-06
5864.01	0.930436	0.444726	1.03126	-25.5467	5.90355	-0.621686	-0.156576	61.0286	11.3497	1	9	0.0111573	0.0108191	0	-0.000272414	0.314877	0.0114185	-2.81487	1.0554	1.05413	0.0518295	-14.0475	2.04574	1.98456	0.496555	0.874888	0.418175	0.96969	25.5467	-2.45219e-06
3960.08	0.936647	0.61904	1.12273	-33.4611	6.20384	-0.621632	-0.215052	64.9229	19.7372	1	9	0.0105025	0.00935448	0	-0.000282443	0.311229	0.0101638	-4.40261	1.08651	1.08331	0.0834058	-19.1753	2.13861	2.01996	0.702446	0.743065	0.4911	0.890688	33.4611	-1.00296e-05
2678.72	0.988264	0.860674	1.31051	-41.0524	6.63309	-0.621984	-0.199212	69.0326	29.7751	1	9	0.0101271	0.00772759	0	-0.000300226	0.320856	0.00850209	-6.8561	1.10023	1.09236	0.131341	-25.4912	2.30501	2.08062	0.992015	0.575433	0.501142	0.763064	41.0524	-1.77827e-05
1808.26	1.04594	1.27774	1.65124	-50.6966	7.07903	-0.621807	-0.192616	68.8837	41.2456	1	9	0.0100956	0.00611391	0	-0.00031765	0.314763	0.00725359	-9.7595	1.18641	1.16924	0.201111	-33.727	2.66346	2.21518	1.47885	0.383605	0.468618	0.605604	50.6966	-1.74238e-05
1221.96	1.18405	1.73079	2.09705	-55.6236	7.52354	-0.621802	-0.206294	75.2524	51.2616	1	9	0.00982749	0.00468634	0	-0.0003452	0.317781	0.00570948	-12.1285	1.21832	1.19113	0.255976	-39.9115	3.09657	2.37518	1.98677	0.269249	0.393575	0.476861	55.6236	-2.75507e-05
825.264	1.31515	2.45819	2.78789	-61.8529	7.96876	-0.621947	-0.205511	78.4534	60.9947	1	9	0.00962163	0.00345122	0	-0.00036942	0.309605	0.00421121	-15.7725	1.22021	1.17427	0.331674	-48.2572	3.73906	2.48942	2.78987	0.169209	0.316275	0.358694	61.8529	-2.42193e-05
558.036	1.44439	3.38768	3.68275	-66.9083	8.6596	-0.621686	-0.0498053	84.1891	71.2388	1	10	0.00955394	0.00259424	0	-0.000390575	0.319653	0.00329647	-19.2405	1.27069	1.19971	0.418735	-55.2145	4.63466	2.6441	3.80642	0.106498	0.24978	0.271536	66.9083	-2.11553e-05
377.051	1.6967	4.85945	5.14714	-70.7531	9.10378	-0.621653	-0.0485265	86.8625	77.4239	1	10	0.00950336	0.00184634	0	-0.000395566	0.328764	0.00222675	-28.0753	1.20603	1.06412	0.567599	-63.0369	6.08893	2.76082	5.42705	0.0640432	0.183424	0.194283	70.7531	-4.99076e-06
254.755	2.13509	6.94998	7.27055	-72.9226	9.55011	-0.621811	-0.051002	89.8903	82.1383	1	10	0.00952429	0.00130998	0	-0.0004001	0.32737	0.00190129	-29.6352	1.45138	1.26153	0.717674	-66.1076	8.3863	3.39663	7.66766	0.0403908	0.131477	0.137541	72.9226	-4.53422e-06
172.037	2.66701	10.0683	10.4155	-75.1636	9.99055	-0.621733	-0.0493356	91.8846	85.86	1	10	0.00966634	0.000928069	0	-0.000407572	0.32907	0.0018304	-41.0207	1.97227	1.48802	1.29446	-69.914	12.0986	4.15503	11.3628	0.0245845	0.0928095	0.0960104	75.1636	-7.47193e-06
116.227	4.00678	13.8278	14.3966	-73.8404	10.4308	-0.62203	-0.0508343	99.0284	91.3578	1	10	0.0094649	0.000657441	0	-0.000413365	0.327695	0.00162425	-40.9363	2.47056	1.86636	1.61876	-69.182	16.5254	5.87313	15.4465	0.019332	0.0667166	0.069461	73.8404	-5.79278e-06
78.5176	5.29286	19.8609	20.5541	-75.0777	10.8846	-0.622101	-0.057463	102.059	95.2918	1	10	0.00959439	0.000466787	0	-0.000420602	0.332088	0.00116579	-46.596	2.49747	1.71611	1.81448	-72.0809	22.7805	7.00897	21.6754	0.0125283	0.0470113	0.0486521	75.0777	-7.23737e-06
53.0478	7.68161	27.3284	28.3875	-74.3001	11.5952	-0.621739	-0.0307416	109.784	101.745	1	11	0.00950569	0.000334855	0	-0.000427945	0.333864	0.000984114	-50.8003	2.93892	1.85748	2.27751	-72.141	31.1047	9.53909	29.6059	0.00953233	0.0339126	0.0352268	74.3001	-7.34346e-06
35.8372	11.468	38.9377	40.5914	-73.5892	12.0312	-0.621925	-0.0312312	114.056	104.952	1	11	0.00960348	0.000236589	0	-0.000431449	0.334953	0.00134502	-67.9838	5.68502	2.13114	5.27046	-72.9013	46.2525	13.5991	44.2082	0.00696017	0.0236321	0.0246358	73.5892	-3.50321e-06
24.2323	14.9878	52.6989	54.7888	-74.124	12.4902	-0.621846	-0.0324891	124.63	115.304	1	11	0.00928449	0.00016946	0	-0.000435349	0.335431	0.00111255	-70.6894	6.56528	2.17107	6.19592	-73.7567	61.3435	17.1588	58.8949	0.00499291	0.0175557	0.0182519	74.124	-3.90052e-06
16.367	24.06	73.3863	77.2298	-71.848	12.9002	-0.621756	-0.0325144	132.506	119.646	1	11	0.0093744	0.000121383	0	-0.000439284	0.337666	0.00124659	-60.728	10.2698	5.0215	8.95846	-70.5484	87.3292	29.0815	82.3448	0.00403391	0.012304	0.0129484	71.848	-3.93505e-06
11.0502	33.6094	101.416	106.84	-71.6647	13.3059	-0.621852	-0.0320801	142.018	127.964	1	11	0.00921509	8.62514e-05	0	-0.000442925	0.338601	0.000948223	-71.9962	10.9937	3.39794	10.4554	-71.6957	117.833	37.0073	111.871	0.00294438	0.00888462	0.0093598	71.6647	-3.64089e-06
7.46893	53.4228	140.449	150.267	-69.1747	13.7917	-0.621821	-0.0311047	151.72	132.543	1	12	0.00945254	6.29052e-05	0	-0.000446886	0.339881	0.000978332	-76.1607	15.5525	3.72014	15.101	-69.8287	165.714	57.1429	155.55	0.00236593	0.00622007	0.00665484	69.1747	-3.96072e-06
5.04683	84.474	183.438	201.954	-65.2738	14.234	-0.6216	-0.0294863	171.914	141.836	1	12	0.00939356	4.65134e-05	0	-0.000450451	0.342384	0.00107396	-91.4856	23.0893	-0.598617	23.0816	-67.8961	222.902	83.8754	206.52	0.00207118	0.00449764	0.00495162	65.2738	-3.56507e-06
3.4086	127.892	251.174	281.859	-63.0158	14.8754	-0.62179	-0.0311715	185.896	147.623	1	12	0.00933496	3.31192e-05	0	-0.00045639	0.357283	0.000799038	-54.3533	24.1261	14.0603	19.6055	-62.3348	305.732	141.952	270.779	0.00160983	0.00316162	0.00354787	63.0158	-5.93872e-06
2.30321	195.447	314.369	370.172	-58.1303	15.8124	-0.621822	-0.0321399	219.809	158.532	1	12	0.00945174	2.55334e-05	0	-0.000465046	0.34693	0.00101129	-44.1823	39.6064	28.4028	27.6034	-56.7919	408.722	223.85	341.972	0.00142634	0.0022942	0.00270144	58.1303	-8.65634e-06
1.55627	294.062	383.402	483.186	-52.5125	17.185	-0.621734	-0.0337881	266.735	167.942	1	12	0.00958461	1.98363e-05	0	-0.000477771	0.354055	0.00170748	-45.6116	86.0786	60.2135	61.513	-51.4705	568.735	354.275	444.915	0.00125953	0.00164219	0.00206959	52.5125	-1.27247e-05
1.05233	416.931	443.196	608.485	-46.749	19.2049	-0.621801	-0.0350795	341.25	181.035	1	12	0.00947236	1.55671e-05	0	-0.000497016	0.360874	0.00225739	-55.6739	145.01	81.7715	119.755	-48.4631	752.076	498.703	562.951	0.00112607	0.001197	0.00164343	46.749	-1.92451e-05
0.710357	587.628	514.743	781.196	-41.2173	23.6387	-0.621944	-0.0372484	435.265	188.979	1	13	0.00951631	1.21817e-05	0	-0.000541082	0.375028	0.00270025	-87.1798	221.664	10.9063	221.395	-50.8863	948.759	598.535	736.138	0.000962903	0.000843471	0.00128009	41.2173	-4.40666e-05
0.480355	757.526	577.219	952.379	-37.3066	28.0368	-0.621819	-0.0390611	574.007	210.852	1	13	0.00951868	9.99464e-06	0	-0.000587592	0.379135	0.0030625	-109.791	306.414	-103.75	288.316	-52.9346	1084.7	653.776	865.534	0.000835175	0.000636386	0.00105	37.3066	-4.65094e-05
0.324439	969.234	623.362	1152.39	-32.7471	34.5387	-0.62184	-0.040716	786.948	230.266	1	13	0.00945625	8.20579e-06	0	-0.000659932	0.407081	0.00271209	-141.677	330.509	-259.293	204.947	-49.4002	1090.92	709.941	828.309	0.000729848	0.000469401	0.000867764	32.7471	-7.23406e-05
0.218838	1191.69	703.717	1383.96	-30.5627	44.1678	-0.621785	-0.0423699	1033.48	267.207	1	13	0.00949023	6.8573e-06	0	-0.000772202	0.430155	0.00220544	175.005	321.619	-320.398	-28.0005	-37.7947	1102.61	871.295	675.717	0.00062218	0.000367409	0.000722563	30.5627	-0.00011227
0.147897	1451.78	759.688	1638.54	-27.6221	58.4066	-0.621799	-0.0435294	1416.53	304.498	1	13	0.00947785	5.78434e-06	0	-0.000943686	0.452275	0.00165785	110.338	286.611	-99.6129	-268.743	-19.9549	1438.54	1352.17	490.944	0.000540742	0.000282958	0.000610301	27.6221	-0.000171484
0.0999041	1773.99	796.732	1944.69	-24.1857	79.48	-0.621784	-0.0442342	1999.51	335.62	1	13	0.00949289	4.88144e-06	0	-0.00120249	0.476916	0.00222308	42.0867	455.414	337.977	-305.244	-13.1005	2168.4	2111.97	491.488	0.000469083	0.000210674	0.00051422	24.1857	-0.000258805