File: Data_Lola/CoNiFeNx_400ºC_24h_13102022/Electrodes_19012023/2023_01_20_CoNiFeNx_400ºC_24h_electrode1_19012023_1_03_CP_C01.mpt
EC-Lab ASCII FILE
Nb header lines : 52

Chronopotentiometry

Run on channel : 1 (SN 21648)
User :
CE vs. WE compliance from -10 V to 10 V
Electrode connection : standard
Potential control : Ewe
Ewe ctrl range : min = -2.50 V, max = 2.50 V
Safety Limits :
	Do not start on E overload
Acquisition started on : 01/20/2023 16:29:26.125
Loaded Setting File :  C:\Users\grupogalan\Documents\EC-Lab\Data\Lole Jurado\2023_01_20_CoNiFeNx_400ºC_24h_electrode2_19012023_1.mps
Saved on :
	File : 2023_01_20_CoNiFeNx_400ºC_24h_electrode1_19012023_1_03_CP_C01.mpr
	Directory : C:\Users\grupogalan\Documents\EC-Lab\Data\Lole Jurado\
	Host : 169.254.104.159
Device : VSP (SN 1176)
Address : USB
EC-Lab for windows v11.46 (software)
Internet server v11.40 (firmware)
Command interpretor v11.40 (firmware)
Electrode material :
Initial state :
Electrolyte :
Comments :
Electrode surface area : 0.000 cm²
Characteristic mass : 0.001 g
Equivalent Weight : 0.000 g/eq.
Density : 0.000 g/cm3
Volume (V) : 0.001 cm³
Cycle Definition : Charge/Discharge alternance
Is                  10.000
unit Is             mA
vs.                 <None>
ts (h:m:s)          2:00:0.0000
EM (V)              pass
dQM                 20.000
unit dQM            mA.h
record              <Ewe>
dEs (mV)            0.00
dts (s)             1.0000
E range min (V)     -2.500
E range max (V)     2.500
I Range             10 mA
Bandwidth           5
goto Ns'            0
nc cycles           0

mode	ox/red	error	control changes	Ns changes	counter inc.	Ns	time/s	control/mA	<Ewe>/V	I/mA	dQ/C	(Q-Qo)/C	half cycle	Q charge/discharge/mA.h	I Range	Energy charge/W.h	Energy discharge/W.h	Capacitance charge/µF	Capacitance discharge/µF	Q discharge/mA.h	Q charge/mA.h	Capacity/mA.h	Efficiency/%	cycle number	P/W
1	1	0	1	0	0	0	714.855	10	0.711109	9.99999	0.00947613	0.00947613	0	0.00263226	11	1.87182e-06	0.000000000000000E+000	0.000000000000000E+000	0.000000000000000E+000	0.000000000000000E+000	0.00263226	0.00263226	0.0000000E+000	0.000000000000000E+000	0.00711108
1	1	0	1	0	0	0	747.855	10	0.70784	10.0007	0.339481	0.339481	0	0.0943004	11	6.69252e-05	0.000000000000000E+000	1.03842e+08	0.000000000000000E+000	0.000000000000000E+000	0.0943004	0.0943004	0.0000000E+000	0.000000000000000E+000	0.00707893
1	1	0	1	0	0	0	780.855	10	0.707302	10.0001	0.669485	0.669485	0	0.185968	11	0.000131778	0.000000000000000E+000	1.75856e+08	0.000000000000000E+000	0.000000000000000E+000	0.185968	0.185968	0.0000000E+000	0.000000000000000E+000	0.0070731
1	1	0	1	0	0	0	813.855	10	0.707359	9.99992	0.999489	0.999489	0	0.277636	11	0.000196611	0.000000000000000E+000	2.66512e+08	0.000000000000000E+000	0.000000000000000E+000	0.277636	0.277636	0.0000000E+000	0.000000000000000E+000	0.00707354
1	1	0	1	0	0	0	846.855	10	0.707568	10.0002	1.32949	1.32949	0	0.369304	11	0.000261455	0.000000000000000E+000	3.75388e+08	0.000000000000000E+000	0.000000000000000E+000	0.369304	0.369304	0.0000000E+000	0.000000000000000E+000	0.0070758
1	1	0	1	0	0	0	879.855	10	0.707728	10.0002	1.6595	1.6595	0	0.460971	11	0.000326322	0.000000000000000E+000	4.90733e+08	0.000000000000000E+000	0.000000000000000E+000	0.460971	0.460971	0.0000000E+000	0.000000000000000E+000	0.0070774
1	1	0	1	0	0	0	912.855	10	0.708075	10	1.9895	1.9895	0	0.552639	11	0.000391218	0.000000000000000E+000	6.5571e+08	0.000000000000000E+000	0.000000000000000E+000	0.552639	0.552639	0.0000000E+000	0.000000000000000E+000	0.00708079
1	1	0	1	0	0	0	945.855	10	0.708484	9.99999	2.3195	2.3195	0	0.644306	11	0.000456148	0.000000000000000E+000	8.83504e+08	0.000000000000000E+000	0.000000000000000E+000	0.644306	0.644306	0.0000000E+000	0.000000000000000E+000	0.00708483
1	1	0	1	0	0	0	978.855	10	0.708916	10.0003	2.64951	2.64951	0	0.735974	11	0.000521112	0.000000000000000E+000	1.20798e+09	0.000000000000000E+000	0.000000000000000E+000	0.735974	0.735974	0.0000000E+000	0.000000000000000E+000	0.00708937
1	1	0	1	0	0	0	1011.86	10	0.709236	10.0007	2.97951	2.97951	0	0.827642	11	0.000586108	0.000000000000000E+000	1.59086e+09	0.000000000000000E+000	0.000000000000000E+000	0.827642	0.827642	0.0000000E+000	0.000000000000000E+000	0.00709289
1	1	0	1	0	0	0	1044.86	10	0.709812	10.0005	3.30951	3.30951	0	0.91931	11	0.000651148	0.000000000000000E+000	2.55074e+09	0.000000000000000E+000	0.000000000000000E+000	0.91931	0.91931	0.0000000E+000	0.000000000000000E+000	0.00709847
1	1	0	1	0	0	0	1077.86	10	0.710071	9.99942	3.63952	3.63952	0	1.01098	11	0.000716226	0.000000000000000E+000	3.50683e+09	0.000000000000000E+000	0.000000000000000E+000	1.01098	1.01098	0.0000000E+000	0.000000000000000E+000	0.0071003
1	1	0	1	0	0	0	1110.86	10	0.710521	10.0006	3.96952	3.96952	0	1.10265	11	0.000781341	0.000000000000000E+000	6.75295e+09	0.000000000000000E+000	0.000000000000000E+000	1.10265	1.10265	0.0000000E+000	0.000000000000000E+000	0.00710561
1	1	0	1	0	0	0	1143.86	10	0.711053	9.99992	4.29953	4.29953	0	1.19431	11	0.000846499	0.000000000000000E+000	7.64132e+10	0.000000000000000E+000	0.000000000000000E+000	1.19431	1.19431	0.0000000E+000	0.000000000000000E+000	0.00711048
1	1	0	1	0	0	0	1176.86	10	0.711451	10	4.62953	4.62953	0	1.28598	11	0.000911694	0.000000000000000E+000	1.35504e+10	0.000000000000000E+000	0.000000000000000E+000	1.28598	1.28598	0.0000000E+000	0.000000000000000E+000	0.00711454
1	1	0	1	0	0	0	1209.86	10	0.71189	10.0002	4.95954	4.95954	0	1.37765	11	0.000976929	0.000000000000000E+000	6.35461e+09	0.000000000000000E+000	0.000000000000000E+000	1.37765	1.37765	0.0000000E+000	0.000000000000000E+000	0.00711902
1	1	0	1	0	0	0	1242.86	10	0.7123	10.0008	5.28954	5.28954	0	1.46932	11	0.00104221	0.000000000000000E+000	4.44341e+09	0.000000000000000E+000	0.000000000000000E+000	1.46932	1.46932	0.0000000E+000	0.000000000000000E+000	0.00712357
1	1	0	1	0	0	0	1275.86	10	0.712923	10.0001	5.61955	5.61955	0	1.56098	11	0.00110754	0.000000000000000E+000	3.09908e+09	0.000000000000000E+000	0.000000000000000E+000	1.56098	1.56098	0.0000000E+000	0.000000000000000E+000	0.00712931
1	1	0	1	0	0	0	1308.86	10	0.713487	10.0002	5.94955	5.94955	0	1.65265	11	0.00117291	0.000000000000000E+000	2.50243e+09	0.000000000000000E+000	0.000000000000000E+000	1.65265	1.65265	0.0000000E+000	0.000000000000000E+000	0.00713499
1	1	0	1	0	0	0	1341.86	10	0.713794	9.99986	6.27956	6.27956	0	1.74432	11	0.00123833	0.000000000000000E+000	2.33854e+09	0.000000000000000E+000	0.000000000000000E+000	1.74432	1.74432	0.0000000E+000	0.000000000000000E+000	0.00713784
1	1	0	1	0	0	0	1374.86	10	0.71428	10	6.60956	6.60956	0	1.83599	11	0.00130379	0.000000000000000E+000	2.08432e+09	0.000000000000000E+000	0.000000000000000E+000	1.83599	1.83599	0.0000000E+000	0.000000000000000E+000	0.00714284
1	1	0	1	0	0	0	1407.86	10	0.714868	9.99967	6.93956	6.93956	0	1.92766	11	0.0013693	0.000000000000000E+000	1.84646e+09	0.000000000000000E+000	0.000000000000000E+000	1.92766	1.92766	0.0000000E+000	0.000000000000000E+000	0.00714844
1	1	0	1	0	0	0	1440.86	10	0.715501	9.99986	7.26957	7.26957	0	2.01932	11	0.00143486	0.000000000000000E+000	1.65526e+09	0.000000000000000E+000	0.000000000000000E+000	2.01932	2.01932	0.0000000E+000	0.000000000000000E+000	0.00715491
1	1	0	1	0	0	0	1473.86	10	0.716018	10.0005	7.59957	7.59957	0	2.11099	11	0.00150047	0.000000000000000E+000	1.54821e+09	0.000000000000000E+000	0.000000000000000E+000	2.11099	2.11099	0.0000000E+000	0.000000000000000E+000	0.00716053
1	1	0	1	0	0	0	1506.86	10	0.716473	10.0006	7.92957	7.92957	0	2.20266	11	0.00156612	0.000000000000000E+000	1.47849e+09	0.000000000000000E+000	0.000000000000000E+000	2.20266	2.20266	0.0000000E+000	0.000000000000000E+000	0.00716512
1	1	0	1	0	0	0	1539.86	10	0.717069	9.99954	8.25958	8.25958	0	2.29433	11	0.00163182	0.000000000000000E+000	1.38589e+09	0.000000000000000E+000	0.000000000000000E+000	2.29433	2.29433	0.0000000E+000	0.000000000000000E+000	0.00717036
1	1	0	1	0	0	0	1572.86	10	0.717561	10.0007	8.58958	8.58958	0	2.386	11	0.00169758	0.000000000000000E+000	1.33125e+09	0.000000000000000E+000	0.000000000000000E+000	2.386	2.386	0.0000000E+000	0.000000000000000E+000	0.00717611
1	1	0	1	0	0	0	1605.86	10	0.718149	9.9998	8.91959	8.91959	0	2.47766	11	0.00176338	0.000000000000000E+000	1.26708e+09	0.000000000000000E+000	0.000000000000000E+000	2.47766	2.47766	0.0000000E+000	0.000000000000000E+000	0.00718134
1	1	0	1	0	0	0	1638.86	10	0.718724	9.9998	9.24959	9.24959	0	2.56933	11	0.00182924	0.000000000000000E+000	1.21462e+09	0.000000000000000E+000	0.000000000000000E+000	2.56933	2.56933	0.0000000E+000	0.000000000000000E+000	0.0071871
1	1	0	1	0	0	0	1671.86	10	0.719284	9.99986	9.57959	9.57959	0	2.661	11	0.00189514	0.000000000000000E+000	1.17186e+09	0.000000000000000E+000	0.000000000000000E+000	2.661	2.661	0.0000000E+000	0.000000000000000E+000	0.00719274
1	1	0	1	0	0	0	1704.86	10	0.719728	9.99967	9.9096	9.9096	0	2.75267	11	0.0019611	0.000000000000000E+000	1.14971e+09	0.000000000000000E+000	0.000000000000000E+000	2.75267	2.75267	0.0000000E+000	0.000000000000000E+000	0.00719705
1	1	0	1	0	0	0	1737.86	10	0.720418	9.9998	10.2396	10.2396	0	2.84433	11	0.00202711	0.000000000000000E+000	1.09996e+09	0.000000000000000E+000	0.000000000000000E+000	2.84433	2.84433	0.0000000E+000	0.000000000000000E+000	0.00720404
1	1	0	1	0	0	0	1770.86	10	0.720834	10.0002	10.5696	10.5696	0	2.936	11	0.00209317	0.000000000000000E+000	1.08688e+09	0.000000000000000E+000	0.000000000000000E+000	2.936	2.936	0.0000000E+000	0.000000000000000E+000	0.00720851
1	1	0	1	0	0	0	1803.86	10	0.721386	10.0004	10.8996	10.8996	0	3.02767	11	0.00215927	0.000000000000000E+000	1.0606e+09	0.000000000000000E+000	0.000000000000000E+000	3.02767	3.02767	0.0000000E+000	0.000000000000000E+000	0.00721413
1	1	0	1	0	0	0	1836.86	10	0.721968	9.99992	11.2296	11.2296	0	3.11934	11	0.00222543	0.000000000000000E+000	1.03414e+09	0.000000000000000E+000	0.000000000000000E+000	3.11934	3.11934	0.0000000E+000	0.000000000000000E+000	0.00721963
1	1	0	1	0	0	0	1869.86	10	0.722662	10.0001	11.5596	11.5596	0	3.211	11	0.00229164	0.000000000000000E+000	1.00056e+09	0.000000000000000E+000	0.000000000000000E+000	3.211	3.211	0.0000000E+000	0.000000000000000E+000	0.00722671
1	1	0	1	0	0	0	1902.86	10	0.723076	10.0006	11.8896	11.8896	0	3.30267	11	0.0023579	0.000000000000000E+000	9.93588e+08	0.000000000000000E+000	0.000000000000000E+000	3.30267	3.30267	0.0000000E+000	0.000000000000000E+000	0.00723116
1	1	0	1	0	0	0	1935.86	10	0.723541	10.0011	12.2196	12.2196	0	3.39434	11	0.00242421	0.000000000000000E+000	9.82909e+08	0.000000000000000E+000	0.000000000000000E+000	3.39434	3.39434	0.0000000E+000	0.000000000000000E+000	0.00723623
1	1	0	1	0	0	0	1968.86	10	0.724244	9.99986	12.5496	12.5496	0	3.48601	11	0.00249058	0.000000000000000E+000	9.55424e+08	0.000000000000000E+000	0.000000000000000E+000	3.48601	3.48601	0.0000000E+000	0.000000000000000E+000	0.00724234
1	1	0	1	0	0	0	2001.86	10	0.724747	9.99999	12.8796	12.8796	0	3.57767	11	0.00255699	0.000000000000000E+000	9.44404e+08	0.000000000000000E+000	0.000000000000000E+000	3.57767	3.57767	0.0000000E+000	0.000000000000000E+000	0.00724746
1	1	0	1	0	0	0	2034.86	10	0.725338	10.0003	13.2096	13.2096	0	3.66934	11	0.00262345	0.000000000000000E+000	9.28348e+08	0.000000000000000E+000	0.000000000000000E+000	3.66934	3.66934	0.0000000E+000	0.000000000000000E+000	0.0072536
1	1	0	1	0	0	0	2067.86	10	0.725871	10.0002	13.5396	13.5396	0	3.76101	11	0.00268997	0.000000000000000E+000	9.17196e+08	0.000000000000000E+000	0.000000000000000E+000	3.76101	3.76101	0.0000000E+000	0.000000000000000E+000	0.00725889
1	1	0	1	0	0	0	2100.86	10	0.726402	9.99929	13.8696	13.8696	0	3.85268	11	0.00275654	0.000000000000000E+000	9.06945e+08	0.000000000000000E+000	0.000000000000000E+000	3.85268	3.85268	0.0000000E+000	0.000000000000000E+000	0.0072635
1	1	0	1	0	0	0	2133.86	10	0.726985	9.99986	14.1996	14.1996	0	3.94434	11	0.00282317	0.000000000000000E+000	8.94433e+08	0.000000000000000E+000	0.000000000000000E+000	3.94434	3.94434	0.0000000E+000	0.000000000000000E+000	0.00726975
1	1	0	1	0	0	0	2166.86	10	0.727565	10	14.5296	14.5296	0	4.03601	11	0.00288983	0.000000000000000E+000	8.82967e+08	0.000000000000000E+000	0.000000000000000E+000	4.03601	4.03601	0.0000000E+000	0.000000000000000E+000	0.00727568
1	1	0	1	0	0	0	2199.86	10	0.727954	10.0002	14.8596	14.8596	0	4.12768	11	0.00295655	0.000000000000000E+000	8.82137e+08	0.000000000000000E+000	0.000000000000000E+000	4.12768	4.12768	0.0000000E+000	0.000000000000000E+000	0.00727967
1	1	0	1	0	0	0	2232.86	10	0.728564	9.99973	15.1896	15.1896	0	4.21935	11	0.00302332	0.000000000000000E+000	8.70227e+08	0.000000000000000E+000	0.000000000000000E+000	4.21935	4.21935	0.0000000E+000	0.000000000000000E+000	0.00728545
1	1	0	1	0	0	0	2265.86	10	0.728953	9.99903	15.5197	15.5197	0	4.31101	11	0.00309013	0.000000000000000E+000	8.69734e+08	0.000000000000000E+000	0.000000000000000E+000	4.31101	4.31101	0.0000000E+000	0.000000000000000E+000	0.00728883
1	1	0	1	0	0	0	2298.86	10	0.72947	10	15.8497	15.8497	0	4.40268	11	0.00315698	0.000000000000000E+000	8.63214e+08	0.000000000000000E+000	0.000000000000000E+000	4.40268	4.40268	0.0000000E+000	0.000000000000000E+000	0.00729474
1	1	0	1	0	0	0	2331.86	10	0.73005	9.99999	16.1797	16.1797	0	4.49435	11	0.00322388	0.000000000000000E+000	8.54206e+08	0.000000000000000E+000	0.000000000000000E+000	4.49435	4.49435	0.0000000E+000	0.000000000000000E+000	0.00730049
1	1	0	1	0	0	0	2364.86	10	0.730708	9.99935	16.5097	16.5097	0	4.58602	11	0.00329083	0.000000000000000E+000	8.42387e+08	0.000000000000000E+000	0.000000000000000E+000	4.58602	4.58602	0.0000000E+000	0.000000000000000E+000	0.00730661
1	1	0	1	0	0	0	2397.86	10	0.730959	10.0005	16.8397	16.8397	0	4.67768	11	0.00335782	0.000000000000000E+000	8.48358e+08	0.000000000000000E+000	0.000000000000000E+000	4.67768	4.67768	0.0000000E+000	0.000000000000000E+000	0.00730995
1	1	0	1	0	0	0	2430.86	10	0.731445	9.99967	17.1697	17.1697	0	4.76935	11	0.00342485	0.000000000000000E+000	8.443e+08	0.000000000000000E+000	0.000000000000000E+000	4.76935	4.76935	0.0000000E+000	0.000000000000000E+000	0.00731421
1	1	0	1	0	0	0	2463.86	10	0.73212	10.0004	17.4997	17.4997	0	4.86102	11	0.00349194	0.000000000000000E+000	8.32879e+08	0.000000000000000E+000	0.000000000000000E+000	4.86102	4.86102	0.0000000E+000	0.000000000000000E+000	0.00732152
1	1	0	1	0	0	0	2496.86	10	0.732604	10.0006	17.8297	17.8297	0	4.95269	11	0.00355907	0.000000000000000E+000	8.2948e+08	0.000000000000000E+000	0.000000000000000E+000	4.95269	4.95269	0.0000000E+000	0.000000000000000E+000	0.00732645
1	1	0	1	0	0	0	2529.86	10	0.733079	10.0007	18.1597	18.1597	0	5.04435	11	0.00362626	0.000000000000000E+000	8.26557e+08	0.000000000000000E+000	0.000000000000000E+000	5.04435	5.04435	0.0000000E+000	0.000000000000000E+000	0.0073313
1	1	0	1	0	0	0	2562.86	10	0.733625	10.0001	18.4897	18.4897	0	5.13602	11	0.00369349	0.000000000000000E+000	8.21179e+08	0.000000000000000E+000	0.000000000000000E+000	5.13602	5.13602	0.0000000E+000	0.000000000000000E+000	0.00733634
1	1	0	1	0	0	0	2595.86	10	0.734049	10.0002	18.8197	18.8197	0	5.22769	11	0.00376076	0.000000000000000E+000	8.20396e+08	0.000000000000000E+000	0.000000000000000E+000	5.22769	5.22769	0.0000000E+000	0.000000000000000E+000	0.00734067
1	1	0	1	0	0	0	2628.86	10	0.734701	9.99973	19.1497	19.1497	0	5.31936	11	0.00382808	0.000000000000000E+000	8.11711e+08	0.000000000000000E+000	0.000000000000000E+000	5.31936	5.31936	0.0000000E+000	0.000000000000000E+000	0.00734681
1	1	0	1	0	0	0	2661.86	10	0.734986	10.0004	19.4797	19.4797	0	5.41102	11	0.00389545	0.000000000000000E+000	8.15836e+08	0.000000000000000E+000	0.000000000000000E+000	5.41102	5.41102	0.0000000E+000	0.000000000000000E+000	0.00735018
1	1	0	1	0	0	0	2694.86	10	0.735555	9.99992	19.8097	19.8097	0	5.50269	11	0.00396286	0.000000000000000E+000	8.10352e+08	0.000000000000000E+000	0.000000000000000E+000	5.50269	5.50269	0.0000000E+000	0.000000000000000E+000	0.00735549
1	1	0	1	0	0	0	2727.86	10	0.736078	10.0006	20.1397	20.1397	0	5.59436	11	0.00403032	0.000000000000000E+000	8.06579e+08	0.000000000000000E+000	0.000000000000000E+000	5.59436	5.59436	0.0000000E+000	0.000000000000000E+000	0.0073612
1	1	0	1	0	0	0	2760.86	10	0.736755	10.0006	20.4697	20.4697	0	5.68603	11	0.00409782	0.000000000000000E+000	7.98162e+08	0.000000000000000E+000	0.000000000000000E+000	5.68603	5.68603	0.0000000E+000	0.000000000000000E+000	0.00736796
1	1	0	1	0	0	0	2793.86	10	0.737103	10	20.7997	20.7997	0	5.77769	11	0.00416537	0.000000000000000E+000	8.00184e+08	0.000000000000000E+000	0.000000000000000E+000	5.77769	5.77769	0.0000000E+000	0.000000000000000E+000	0.00737107
1	1	0	1	0	0	0	2826.86	10	0.737666	10.0003	21.1297	21.1297	0	5.86936	11	0.00423296	0.000000000000000E+000	7.95653e+08	0.000000000000000E+000	0.000000000000000E+000	5.86936	5.86936	0.0000000E+000	0.000000000000000E+000	0.00737688
1	1	0	1	0	0	0	2859.86	10	0.738117	9.99999	21.4597	21.4597	0	5.96103	11	0.0043006	0.000000000000000E+000	7.94579e+08	0.000000000000000E+000	0.000000000000000E+000	5.96103	5.96103	0.0000000E+000	0.000000000000000E+000	0.00738116
1	1	0	1	0	0	0	2892.86	10	0.738524	9.99986	21.7897	21.7897	0	6.0527	11	0.00436828	0.000000000000000E+000	7.94826e+08	0.000000000000000E+000	0.000000000000000E+000	6.0527	6.0527	0.0000000E+000	0.000000000000000E+000	0.00738513
1	1	0	1	0	0	0	2925.86	10	0.738962	10.0002	22.1197	22.1197	0	6.14436	11	0.004436	0.000000000000000E+000	7.94176e+08	0.000000000000000E+000	0.000000000000000E+000	6.14436	6.14436	0.0000000E+000	0.000000000000000E+000	0.00738979
1	1	0	1	0	0	0	2958.86	10	0.739499	10.0003	22.4497	22.4497	0	6.23603	11	0.00450376	0.000000000000000E+000	7.90771e+08	0.000000000000000E+000	0.000000000000000E+000	6.23603	6.23603	0.0000000E+000	0.000000000000000E+000	0.00739521
1	1	0	1	0	0	0	2991.86	10	0.739748	10.0004	22.7797	22.7797	0	6.3277	11	0.00457156	0.000000000000000E+000	7.9541e+08	0.000000000000000E+000	0.000000000000000E+000	6.3277	6.3277	0.0000000E+000	0.000000000000000E+000	0.0073978
1	1	0	1	0	0	0	3024.86	10	0.740279	10.0001	23.1097	23.1097	0	6.41937	11	0.00463941	0.000000000000000E+000	7.92247e+08	0.000000000000000E+000	0.000000000000000E+000	6.41937	6.41937	0.0000000E+000	0.000000000000000E+000	0.00740287
1	1	0	1	0	0	0	3057.86	10	0.740761	9.9998	23.4397	23.4397	0	6.51103	11	0.00470729	0.000000000000000E+000	7.905e+08	0.000000000000000E+000	0.000000000000000E+000	6.51103	6.51103	0.0000000E+000	0.000000000000000E+000	0.00740746
1	1	0	1	0	0	0	3090.86	10	0.74142	9.99954	23.7697	23.7697	0	6.6027	11	0.00477523	0.000000000000000E+000	7.84201e+08	0.000000000000000E+000	0.000000000000000E+000	6.6027	6.6027	0.0000000E+000	0.000000000000000E+000	0.00741386
1	1	0	1	0	0	0	3123.86	10	0.741752	9.9998	24.0997	24.0997	0	6.69437	11	0.00484321	0.000000000000000E+000	7.8647e+08	0.000000000000000E+000	0.000000000000000E+000	6.69437	6.69437	0.0000000E+000	0.000000000000000E+000	0.00741737
1	1	0	1	0	0	0	3156.86	10	0.742251	10.0004	24.4297	24.4297	0	6.78604	11	0.00491123	0.000000000000000E+000	7.84464e+08	0.000000000000000E+000	0.000000000000000E+000	6.78604	6.78604	0.0000000E+000	0.000000000000000E+000	0.00742283
1	1	0	1	0	0	0	3189.86	10	0.74282	9.99973	24.7597	24.7597	0	6.87771	11	0.0049793	0.000000000000000E+000	7.80795e+08	0.000000000000000E+000	0.000000000000000E+000	6.87771	6.87771	0.0000000E+000	0.000000000000000E+000	0.007428
1	1	0	1	0	0	0	3222.86	10	0.743188	10.0003	25.0897	25.0897	0	6.96937	11	0.0050474	0.000000000000000E+000	7.82125e+08	0.000000000000000E+000	0.000000000000000E+000	6.96937	6.96937	0.0000000E+000	0.000000000000000E+000	0.00743211
1	1	0	1	0	0	0	3255.86	10	0.743567	10.0004	25.4197	25.4197	0	7.06104	11	0.00511555	0.000000000000000E+000	7.83161e+08	0.000000000000000E+000	0.000000000000000E+000	7.06104	7.06104	0.0000000E+000	0.000000000000000E+000	0.00743594
1	1	0	1	0	0	0	3288.86	10	0.744092	10.0008	25.7497	25.7497	0	7.15271	11	0.00518373	0.000000000000000E+000	7.80706e+08	0.000000000000000E+000	0.000000000000000E+000	7.15271	7.15271	0.0000000E+000	0.000000000000000E+000	0.00744152
1	1	0	1	0	0	0	3321.86	10	0.744443	10.0002	26.0798	26.0798	0	7.24438	11	0.00525196	0.000000000000000E+000	7.82377e+08	0.000000000000000E+000	0.000000000000000E+000	7.24438	7.24438	0.0000000E+000	0.000000000000000E+000	0.00744461
1	1	0	1	0	0	0	3354.86	10	0.744871	10.0003	26.4098	26.4098	0	7.33604	11	0.00532023	0.000000000000000E+000	7.82242e+08	0.000000000000000E+000	0.000000000000000E+000	7.33604	7.33604	0.0000000E+000	0.000000000000000E+000	0.00744893
1	1	0	1	0	0	0	3387.86	10	0.745495	10.0004	26.7398	26.7398	0	7.42771	11	0.00538855	0.000000000000000E+000	7.77629e+08	0.000000000000000E+000	0.000000000000000E+000	7.42771	7.42771	0.0000000E+000	0.000000000000000E+000	0.00745528
1	1	0	1	0	0	0	3420.86	10	0.745741	9.99992	27.0698	27.0698	0	7.51938	11	0.0054569	0.000000000000000E+000	7.81653e+08	0.000000000000000E+000	0.000000000000000E+000	7.51938	7.51938	0.0000000E+000	0.000000000000000E+000	0.00745735
1	1	0	1	0	0	0	3453.86	10	0.746186	10.0006	27.3998	27.3998	0	7.61105	11	0.00552529	0.000000000000000E+000	7.81142e+08	0.000000000000000E+000	0.000000000000000E+000	7.61105	7.61105	0.0000000E+000	0.000000000000000E+000	0.00746227
1	1	0	1	0	0	0	3486.86	10	0.746684	9.9991	27.7298	27.7298	0	7.70271	11	0.00559371	0.000000000000000E+000	7.79483e+08	0.000000000000000E+000	0.000000000000000E+000	7.70271	7.70271	0.0000000E+000	0.000000000000000E+000	0.00746616
1	1	0	1	0	0	0	3519.86	10	0.747138	10.0003	28.0598	28.0598	0	7.79438	11	0.00566218	0.000000000000000E+000	7.78816e+08	0.000000000000000E+000	0.000000000000000E+000	7.79438	7.79438	0.0000000E+000	0.000000000000000E+000	0.00747161
1	1	0	1	0	0	0	3552.86	10	0.747628	10.0009	28.3898	28.3898	0	7.88605	11	0.00573069	0.000000000000000E+000	7.77393e+08	0.000000000000000E+000	0.000000000000000E+000	7.88605	7.88605	0.0000000E+000	0.000000000000000E+000	0.00747694
1	1	0	1	0	0	0	3585.86	10	0.748118	10.0007	28.7198	28.7198	0	7.97772	11	0.00579924	0.000000000000000E+000	7.76027e+08	0.000000000000000E+000	0.000000000000000E+000	7.97772	7.97772	0.0000000E+000	0.000000000000000E+000	0.00748174
1	1	0	1	0	0	0	3618.86	10	0.748469	10.0003	29.0498	29.0498	0	8.06939	11	0.00586783	0.000000000000000E+000	7.77566e+08	0.000000000000000E+000	0.000000000000000E+000	8.06939	8.06939	0.0000000E+000	0.000000000000000E+000	0.00748492
1	1	0	1	0	0	0	3651.86	10	0.749003	10.0005	29.3798	29.3798	0	8.16105	11	0.00593646	0.000000000000000E+000	7.75328e+08	0.000000000000000E+000	0.000000000000000E+000	8.16105	8.16105	0.0000000E+000	0.000000000000000E+000	0.0074904
1	1	0	1	0	0	0	3684.86	10	0.749537	10.0003	29.7098	29.7098	0	8.25272	11	0.00600514	0.000000000000000E+000	7.73142e+08	0.000000000000000E+000	0.000000000000000E+000	8.25272	8.25272	0.0000000E+000	0.000000000000000E+000	0.00749559
1	1	0	1	0	0	0	3717.86	10	0.749795	10	30.0398	30.0398	0	8.34439	11	0.00607386	0.000000000000000E+000	7.76505e+08	0.000000000000000E+000	0.000000000000000E+000	8.34439	8.34439	0.0000000E+000	0.000000000000000E+000	0.00749799
1	1	0	1	0	0	0	3750.86	10	0.750444	9.99986	30.3698	30.3698	0	8.43606	11	0.00614262	0.000000000000000E+000	7.72079e+08	0.000000000000000E+000	0.000000000000000E+000	8.43606	8.43606	0.0000000E+000	0.000000000000000E+000	0.00750434
1	1	0	1	0	0	0	3783.86	10	0.750753	10.0006	30.6998	30.6998	0	8.52772	11	0.00621142	0.000000000000000E+000	7.74385e+08	0.000000000000000E+000	0.000000000000000E+000	8.52772	8.52772	0.0000000E+000	0.000000000000000E+000	0.007508
1	1	0	1	0	0	0	3816.86	10	0.751288	9.9998	31.0298	31.0298	0	8.61939	11	0.00628027	0.000000000000000E+000	7.72288e+08	0.000000000000000E+000	0.000000000000000E+000	8.61939	8.61939	0.0000000E+000	0.000000000000000E+000	0.00751273
1	1	0	1	0	0	0	3849.86	10	0.751823	10.0006	31.3598	31.3598	0	8.71106	11	0.00634915	0.000000000000000E+000	7.70253e+08	0.000000000000000E+000	0.000000000000000E+000	8.71106	8.71106	0.0000000E+000	0.000000000000000E+000	0.0075187
1	1	0	1	0	0	0	3882.86	10	0.752275	10.0004	31.6898	31.6898	0	8.80273	11	0.00641809	0.000000000000000E+000	7.69811e+08	0.000000000000000E+000	0.000000000000000E+000	8.80273	8.80273	0.0000000E+000	0.000000000000000E+000	0.00752307
1	1	0	1	0	0	0	3915.86	10	0.752708	10	32.0198	32.0198	0	8.89439	11	0.00648706	0.000000000000000E+000	7.69726e+08	0.000000000000000E+000	0.000000000000000E+000	8.89439	8.89439	0.0000000E+000	0.000000000000000E+000	0.00752712
1	1	0	1	0	0	0	3948.86	10	0.753105	10.0006	32.3498	32.3498	0	8.98606	11	0.00655608	0.000000000000000E+000	7.70307e+08	0.000000000000000E+000	0.000000000000000E+000	8.98606	8.98606	0.0000000E+000	0.000000000000000E+000	0.00753152
1	1	0	1	0	0	0	3981.86	10	0.753618	10	32.6798	32.6798	0	9.07773	11	0.00662514	0.000000000000000E+000	7.68772e+08	0.000000000000000E+000	0.000000000000000E+000	9.07773	9.07773	0.0000000E+000	0.000000000000000E+000	0.00753622
1	1	0	1	0	0	0	4014.86	10	0.754044	10.0008	33.0098	33.0098	0	9.1694	11	0.00669424	0.000000000000000E+000	7.6884e+08	0.000000000000000E+000	0.000000000000000E+000	9.1694	9.1694	0.0000000E+000	0.000000000000000E+000	0.00754105
1	1	0	1	0	0	0	4047.86	10	0.754465	10.0001	33.3398	33.3398	0	9.26107	11	0.00676337	0.000000000000000E+000	7.68977e+08	0.000000000000000E+000	0.000000000000000E+000	9.26107	9.26107	0.0000000E+000	0.000000000000000E+000	0.00754474
1	1	0	1	0	0	0	4080.86	10	0.754825	10.0006	33.6698	33.6698	0	9.35273	11	0.00683255	0.000000000000000E+000	7.70206e+08	0.000000000000000E+000	0.000000000000000E+000	9.35273	9.35273	0.0000000E+000	0.000000000000000E+000	0.00754867
1	1	0	1	0	0	0	4113.86	10	0.755329	9.9998	33.9998	33.9998	0	9.4444	11	0.00690176	0.000000000000000E+000	7.68882e+08	0.000000000000000E+000	0.000000000000000E+000	9.4444	9.4444	0.0000000E+000	0.000000000000000E+000	0.00755314
1	1	0	1	0	0	0	4146.86	10	0.755747	10.0006	34.3298	34.3298	0	9.53607	11	0.00697102	0.000000000000000E+000	7.69082e+08	0.000000000000000E+000	0.000000000000000E+000	9.53607	9.53607	0.0000000E+000	0.000000000000000E+000	0.00755789
1	1	0	1	0	0	0	4179.86	10	0.756308	10.0004	34.6599	34.6599	0	9.62774	11	0.00704031	0.000000000000000E+000	7.66827e+08	0.000000000000000E+000	0.000000000000000E+000	9.62774	9.62774	0.0000000E+000	0.000000000000000E+000	0.00756336
1	1	0	1	0	0	0	4212.86	10	0.756624	9.99992	34.9899	34.9899	0	9.7194	11	0.00710965	0.000000000000000E+000	7.68764e+08	0.000000000000000E+000	0.000000000000000E+000	9.7194	9.7194	0.0000000E+000	0.000000000000000E+000	0.00756618
1	1	0	1	0	0	0	4245.86	10	0.757137	10.0006	35.3199	35.3199	0	9.81107	11	0.00717902	0.000000000000000E+000	7.67359e+08	0.000000000000000E+000	0.000000000000000E+000	9.81107	9.81107	0.0000000E+000	0.000000000000000E+000	0.00757179
1	1	0	1	0	0	0	4278.86	10	0.75749	10.0001	35.6499	35.6499	0	9.90274	11	0.00724844	0.000000000000000E+000	7.68641e+08	0.000000000000000E+000	0.000000000000000E+000	9.90274	9.90274	0.0000000E+000	0.000000000000000E+000	0.00757498
1	1	0	1	0	0	0	4311.86	10	0.757955	10.0011	35.9799	35.9799	0	9.99441	11	0.00731789	0.000000000000000E+000	7.68044e+08	0.000000000000000E+000	0.000000000000000E+000	9.99441	9.99441	0.0000000E+000	0.000000000000000E+000	0.00758036
1	1	0	1	0	0	0	4344.86	10	0.758264	9.99954	36.3099	36.3099	0	10.0861	11	0.00738738	0.000000000000000E+000	7.70016e+08	0.000000000000000E+000	0.000000000000000E+000	10.0861	10.0861	0.0000000E+000	0.000000000000000E+000	0.00758229
1	1	0	1	0	0	0	4377.86	10	0.758817	10.0002	36.6399	36.6399	0	10.1777	11	0.00745692	0.000000000000000E+000	7.68013e+08	0.000000000000000E+000	0.000000000000000E+000	10.1777	10.1777	0.0000000E+000	0.000000000000000E+000	0.0075883
1	1	0	1	0	0	0	4410.86	10	0.759031	9.99967	36.9699	36.9699	0	10.2694	11	0.00752649	0.000000000000000E+000	7.71469e+08	0.000000000000000E+000	0.000000000000000E+000	10.2694	10.2694	0.0000000E+000	0.000000000000000E+000	0.00759006
1	1	0	1	0	0	0	4443.86	10	0.759619	9.99973	37.2999	37.2999	0	10.3611	11	0.0075961	0.000000000000000E+000	7.68912e+08	0.000000000000000E+000	0.000000000000000E+000	10.3611	10.3611	0.0000000E+000	0.000000000000000E+000	0.00759599
1	1	0	1	0	0	0	4476.86	10	0.759909	10.0002	37.6299	37.6299	0	10.4527	11	0.00766574	0.000000000000000E+000	7.71105e+08	0.000000000000000E+000	0.000000000000000E+000	10.4527	10.4527	0.0000000E+000	0.000000000000000E+000	0.00759923
1	1	0	1	0	0	0	4509.86	10	0.760445	9.99973	37.9599	37.9599	0	10.5444	11	0.00773542	0.000000000000000E+000	7.69422e+08	0.000000000000000E+000	0.000000000000000E+000	10.5444	10.5444	0.0000000E+000	0.000000000000000E+000	0.00760425
1	1	0	1	0	0	0	4542.86	10	0.760708	9.9998	38.2899	38.2899	0	10.6361	11	0.00780515	0.000000000000000E+000	7.71993e+08	0.000000000000000E+000	0.000000000000000E+000	10.6361	10.6361	0.0000000E+000	0.000000000000000E+000	0.00760693
1	1	0	1	0	0	0	4575.86	10	0.76121	9.99929	38.6199	38.6199	0	10.7277	11	0.00787491	0.000000000000000E+000	7.70848e+08	0.000000000000000E+000	0.000000000000000E+000	10.7277	10.7277	0.0000000E+000	0.000000000000000E+000	0.00761156
1	1	0	1	0	0	0	4608.86	10	0.761598	10	38.9499	38.9499	0	10.8194	11	0.00794471	0.000000000000000E+000	7.71449e+08	0.000000000000000E+000	0.000000000000000E+000	10.8194	10.8194	0.0000000E+000	0.000000000000000E+000	0.00761602
1	1	0	1	0	0	0	4641.86	10	0.762016	9.99922	39.2799	39.2799	0	10.9111	11	0.00801454	0.000000000000000E+000	7.71597e+08	0.000000000000000E+000	0.000000000000000E+000	10.9111	10.9111	0.0000000E+000	0.000000000000000E+000	0.00761957
1	1	0	1	0	0	0	4674.86	10	0.762485	10.0002	39.6099	39.6099	0	11.0028	11	0.00808442	0.000000000000000E+000	7.70985e+08	0.000000000000000E+000	0.000000000000000E+000	11.0028	11.0028	0.0000000E+000	0.000000000000000E+000	0.00762503
1	1	0	1	0	0	0	4707.86	10	0.762868	10.0007	39.9399	39.9399	0	11.0944	11	0.00815434	0.000000000000000E+000	7.71653e+08	0.000000000000000E+000	0.000000000000000E+000	11.0944	11.0944	0.0000000E+000	0.000000000000000E+000	0.00762925
1	1	0	1	0	0	0	4740.86	10	0.763374	9.99973	40.2699	40.2699	0	11.1861	11	0.0082243	0.000000000000000E+000	7.70502e+08	0.000000000000000E+000	0.000000000000000E+000	11.1861	11.1861	0.0000000E+000	0.000000000000000E+000	0.00763353
1	1	0	1	0	0	0	4773.86	10	0.763764	10	40.5999	40.5999	0	11.2778	11	0.00829429	0.000000000000000E+000	7.71053e+08	0.000000000000000E+000	0.000000000000000E+000	11.2778	11.2778	0.0000000E+000	0.000000000000000E+000	0.00763768
1	1	0	1	0	0	0	4806.86	10	0.764265	10.0002	40.9299	40.9299	0	11.3694	11	0.00836432	0.000000000000000E+000	7.69999e+08	0.000000000000000E+000	0.000000000000000E+000	11.3694	11.3694	0.0000000E+000	0.000000000000000E+000	0.00764278
1	1	0	1	0	0	0	4839.86	10	0.764626	10.0007	41.2599	41.2599	0	11.4611	11	0.0084344	0.000000000000000E+000	7.7097e+08	0.000000000000000E+000	0.000000000000000E+000	11.4611	11.4611	0.0000000E+000	0.000000000000000E+000	0.00764678
1	1	0	1	0	0	0	4872.86	10	0.76508	9.99935	41.5899	41.5899	0	11.5528	11	0.00850451	0.000000000000000E+000	7.70607e+08	0.000000000000000E+000	0.000000000000000E+000	11.5528	11.5528	0.0000000E+000	0.000000000000000E+000	0.0076503
1	1	0	1	0	0	0	4905.86	10	0.765451	10.0002	41.9199	41.9199	0	11.6444	11	0.00857466	0.000000000000000E+000	7.71417e+08	0.000000000000000E+000	0.000000000000000E+000	11.6444	11.6444	0.0000000E+000	0.000000000000000E+000	0.00765464
1	1	0	1	0	0	0	4938.86	10	0.765879	10	42.2499	42.2499	0	11.7361	11	0.00864484	0.000000000000000E+000	7.71408e+08	0.000000000000000E+000	0.000000000000000E+000	11.7361	11.7361	0.0000000E+000	0.000000000000000E+000	0.00765883
1	1	0	1	0	0	0	4971.86	10	0.766184	9.99961	42.5799	42.5799	0	11.8278	11	0.00871506	0.000000000000000E+000	7.73125e+08	0.000000000000000E+000	0.000000000000000E+000	11.8278	11.8278	0.0000000E+000	0.000000000000000E+000	0.00766154
1	1	0	1	0	0	0	5004.86	10	0.76661	10.0001	42.9099	42.9099	0	11.9194	11	0.00878532	0.000000000000000E+000	7.73145e+08	0.000000000000000E+000	0.000000000000000E+000	11.9194	11.9194	0.0000000E+000	0.000000000000000E+000	0.00766618
1	1	0	1	0	0	0	5037.86	10	0.767187	10.0004	43.2399	43.2399	0	12.0111	11	0.00885561	0.000000000000000E+000	7.71068e+08	0.000000000000000E+000	0.000000000000000E+000	12.0111	12.0111	0.0000000E+000	0.000000000000000E+000	0.00767215
1	1	0	1	0	0	0	5070.86	10	0.767356	10.0004	43.5699	43.5699	0	12.1028	11	0.00892594	0.000000000000000E+000	7.74622e+08	0.000000000000000E+000	0.000000000000000E+000	12.1028	12.1028	0.0000000E+000	0.000000000000000E+000	0.00767384
1	1	0	1	0	0	0	5103.86	10	0.767857	10.0002	43.8999	43.8999	0	12.1944	11	0.00899632	0.000000000000000E+000	7.73601e+08	0.000000000000000E+000	0.000000000000000E+000	12.1944	12.1944	0.0000000E+000	0.000000000000000E+000	0.00767875
1	1	0	1	0	0	0	5136.86	10	0.768288	10.0004	44.23	44.23	0	12.2861	11	0.00906672	0.000000000000000E+000	7.73534e+08	0.000000000000000E+000	0.000000000000000E+000	12.2861	12.2861	0.0000000E+000	0.000000000000000E+000	0.00768316
1	1	0	1	0	0	0	5169.86	10	0.768574	9.99967	44.56	44.56	0	12.3778	11	0.00913717	0.000000000000000E+000	7.75435e+08	0.000000000000000E+000	0.000000000000000E+000	12.3778	12.3778	0.0000000E+000	0.000000000000000E+000	0.00768548
1	1	0	1	0	0	0	5202.86	10	0.769147	10	44.89	44.89	0	12.4694	11	0.00920765	0.000000000000000E+000	7.73467e+08	0.000000000000000E+000	0.000000000000000E+000	12.4694	12.4694	0.0000000E+000	0.000000000000000E+000	0.0076915
1	1	0	1	0	0	0	5235.86	10	0.769563	9.99929	45.22	45.22	0	12.5611	11	0.00927817	0.000000000000000E+000	7.73599e+08	0.000000000000000E+000	0.000000000000000E+000	12.5611	12.5611	0.0000000E+000	0.000000000000000E+000	0.00769508
1	1	0	1	0	0	0	5268.86	10	0.769944	10.0009	45.55	45.55	0	12.6528	11	0.00934873	0.000000000000000E+000	7.74198e+08	0.000000000000000E+000	0.000000000000000E+000	12.6528	12.6528	0.0000000E+000	0.000000000000000E+000	0.00770012
1	1	0	1	0	0	0	5301.86	10	0.770236	10.0007	45.88	45.88	0	12.7444	11	0.00941932	0.000000000000000E+000	7.75957e+08	0.000000000000000E+000	0.000000000000000E+000	12.7444	12.7444	0.0000000E+000	0.000000000000000E+000	0.00770294
1	1	0	1	0	0	0	5334.86	10	0.770707	9.99948	46.21	46.21	0	12.8361	11	0.00948995	0.000000000000000E+000	7.7536e+08	0.000000000000000E+000	0.000000000000000E+000	12.8361	12.8361	0.0000000E+000	0.000000000000000E+000	0.00770667
1	1	0	1	0	0	0	5367.86	10	0.77111	10.0002	46.54	46.54	0	12.9278	11	0.00956062	0.000000000000000E+000	7.75657e+08	0.000000000000000E+000	0.000000000000000E+000	12.9278	12.9278	0.0000000E+000	0.000000000000000E+000	0.00771128
1	1	0	1	0	0	0	5400.86	10	0.771547	10	46.87	46.87	0	13.0194	11	0.00963133	0.000000000000000E+000	7.75511e+08	0.000000000000000E+000	0.000000000000000E+000	13.0194	13.0194	0.0000000E+000	0.000000000000000E+000	0.00771551
1	1	0	1	0	0	0	5433.86	10	0.771868	9.99986	47.2	47.2	0	13.1111	11	0.00970208	0.000000000000000E+000	7.76847e+08	0.000000000000000E+000	0.000000000000000E+000	13.1111	13.1111	0.0000000E+000	0.000000000000000E+000	0.00771857
1	1	0	1	0	0	0	5466.86	10	0.772299	9.99961	47.53	47.53	0	13.2028	11	0.00977286	0.000000000000000E+000	7.76767e+08	0.000000000000000E+000	0.000000000000000E+000	13.2028	13.2028	0.0000000E+000	0.000000000000000E+000	0.00772268
1	1	0	1	0	0	0	5499.86	10	0.772774	9.99986	47.86	47.86	0	13.2944	11	0.00984368	0.000000000000000E+000	7.76134e+08	0.000000000000000E+000	0.000000000000000E+000	13.2944	13.2944	0.0000000E+000	0.000000000000000E+000	0.00772763
1	1	0	1	0	0	0	5532.86	10	0.773239	9.9998	48.19	48.19	0	13.3861	11	0.00991454	0.000000000000000E+000	7.75636e+08	0.000000000000000E+000	0.000000000000000E+000	13.3861	13.3861	0.0000000E+000	0.000000000000000E+000	0.00773223
1	1	0	1	0	0	0	5565.86	10	0.773669	10.0003	48.52	48.52	0	13.4778	11	0.00998544	0.000000000000000E+000	7.75583e+08	0.000000000000000E+000	0.000000000000000E+000	13.4778	13.4778	0.0000000E+000	0.000000000000000E+000	0.00773692
1	1	0	1	0	0	0	5598.86	10	0.774025	10.0006	48.85	48.85	0	13.5694	11	0.0100564	0.000000000000000E+000	7.76437e+08	0.000000000000000E+000	0.000000000000000E+000	13.5694	13.5694	0.0000000E+000	0.000000000000000E+000	0.00774068
1	1	0	1	0	0	0	5631.86	10	0.774473	10.0002	49.18	49.18	0	13.6611	11	0.0101273	0.000000000000000E+000	7.76156e+08	0.000000000000000E+000	0.000000000000000E+000	13.6611	13.6611	0.0000000E+000	0.000000000000000E+000	0.00774491
1	1	0	1	0	0	0	5664.86	10	0.774711	10.0002	49.51	49.51	0	13.7528	11	0.0101983	0.000000000000000E+000	7.78431e+08	0.000000000000000E+000	0.000000000000000E+000	13.7528	13.7528	0.0000000E+000	0.000000000000000E+000	0.00774725
1	1	0	1	0	0	0	5697.86	10	0.775051	10.0002	49.84	49.84	0	13.8444	11	0.0102694	0.000000000000000E+000	7.79459e+08	0.000000000000000E+000	0.000000000000000E+000	13.8444	13.8444	0.0000000E+000	0.000000000000000E+000	0.00775065
1	1	0	1	0	0	0	5730.86	10	0.775596	9.99967	50.17	50.17	0	13.9361	11	0.0103405	0.000000000000000E+000	7.77987e+08	0.000000000000000E+000	0.000000000000000E+000	13.9361	13.9361	0.0000000E+000	0.000000000000000E+000	0.0077557
1	1	0	1	0	0	0	5763.86	10	0.775992	9.99973	50.5	50.5	0	14.0278	11	0.0104116	0.000000000000000E+000	7.78328e+08	0.000000000000000E+000	0.000000000000000E+000	14.0278	14.0278	0.0000000E+000	0.000000000000000E+000	0.00775971
1	1	0	1	0	0	0	5796.86	10	0.776432	10.0004	50.83	50.83	0	14.1194	11	0.0104827	0.000000000000000E+000	7.78133e+08	0.000000000000000E+000	0.000000000000000E+000	14.1194	14.1194	0.0000000E+000	0.000000000000000E+000	0.00776466
1	1	0	1	0	0	0	5829.86	10	0.776813	9.99948	51.16	51.16	0	14.2111	11	0.0105539	0.000000000000000E+000	7.7865e+08	0.000000000000000E+000	0.000000000000000E+000	14.2111	14.2111	0.0000000E+000	0.000000000000000E+000	0.00776772
1	1	0	1	0	0	0	5862.86	10	0.777199	10.0004	51.49	51.49	0	14.3028	11	0.0106251	0.000000000000000E+000	7.79087e+08	0.000000000000000E+000	0.000000000000000E+000	14.3028	14.3028	0.0000000E+000	0.000000000000000E+000	0.00777233
1	1	0	1	0	0	0	5895.86	10	0.777698	10.0004	51.82	51.82	0	14.3945	11	0.0106964	0.000000000000000E+000	7.78208e+08	0.000000000000000E+000	0.000000000000000E+000	14.3945	14.3945	0.0000000E+000	0.000000000000000E+000	0.00777732
1	1	0	1	0	0	0	5928.86	10	0.778007	10.0008	52.15	52.15	0	14.4861	11	0.0107677	0.000000000000000E+000	7.79543e+08	0.000000000000000E+000	0.000000000000000E+000	14.4861	14.4861	0.0000000E+000	0.000000000000000E+000	0.00778071
1	1	0	1	0	0	0	5961.86	10	0.778255	10.0007	52.48	52.48	0	14.5778	11	0.010839	0.000000000000000E+000	7.81583e+08	0.000000000000000E+000	0.000000000000000E+000	14.5778	14.5778	0.0000000E+000	0.000000000000000E+000	0.00778308
1	1	0	1	0	0	0	5994.86	10	0.778707	9.99961	52.81	52.81	0	14.6695	11	0.0109104	0.000000000000000E+000	7.81234e+08	0.000000000000000E+000	0.000000000000000E+000	14.6695	14.6695	0.0000000E+000	0.000000000000000E+000	0.00778677
1	1	0	1	0	0	0	6027.86	10	0.779312	9.99986	53.14	53.14	0	14.7611	11	0.0109818	0.000000000000000E+000	7.79147e+08	0.000000000000000E+000	0.000000000000000E+000	14.7611	14.7611	0.0000000E+000	0.000000000000000E+000	0.00779301
1	1	0	1	0	0	0	6060.86	10	0.779659	10.0002	53.47	53.47	0	14.8528	11	0.0110533	0.000000000000000E+000	7.80015e+08	0.000000000000000E+000	0.000000000000000E+000	14.8528	14.8528	0.0000000E+000	0.000000000000000E+000	0.00779678
1	1	0	1	0	0	0	6093.86	10	0.780121	9.99999	53.8	53.8	0	14.9445	11	0.0111247	0.000000000000000E+000	7.79578e+08	0.000000000000000E+000	0.000000000000000E+000	14.9445	14.9445	0.0000000E+000	0.000000000000000E+000	0.0078012
1	1	0	1	0	0	0	6126.86	10	0.780388	10	54.13	54.13	0	15.0361	11	0.0111963	0.000000000000000E+000	7.81342e+08	0.000000000000000E+000	0.000000000000000E+000	15.0361	15.0361	0.0000000E+000	0.000000000000000E+000	0.00780391
1	1	0	1	0	0	0	6159.86	10	0.78078	9.99986	54.46	54.46	0	15.1278	11	0.0112678	0.000000000000000E+000	7.81675e+08	0.000000000000000E+000	0.000000000000000E+000	15.1278	15.1278	0.0000000E+000	0.000000000000000E+000	0.00780769
1	1	0	1	0	0	0	6192.86	10	0.781308	10	54.7901	54.7901	0	15.2195	11	0.0113394	0.000000000000000E+000	7.80494e+08	0.000000000000000E+000	0.000000000000000E+000	15.2195	15.2195	0.0000000E+000	0.000000000000000E+000	0.00781312
1	1	0	1	0	0	0	6225.86	10	0.78174	10.0002	55.1201	55.1201	0	15.3111	11	0.0114111	0.000000000000000E+000	7.80398e+08	0.000000000000000E+000	0.000000000000000E+000	15.3111	15.3111	0.0000000E+000	0.000000000000000E+000	0.00781759
1	1	0	1	0	0	0	6258.86	10	0.781996	9.99973	55.4501	55.4501	0	15.4028	11	0.0114827	0.000000000000000E+000	7.82237e+08	0.000000000000000E+000	0.000000000000000E+000	15.4028	15.4028	0.0000000E+000	0.000000000000000E+000	0.00781975
1	1	0	1	0	0	0	6291.86	10	0.782414	10.0004	55.7801	55.7801	0	15.4945	11	0.0115544	0.000000000000000E+000	7.82273e+08	0.000000000000000E+000	0.000000000000000E+000	15.4945	15.4945	0.0000000E+000	0.000000000000000E+000	0.00782443
1	1	0	1	0	0	0	6324.86	10	0.782713	10.0005	56.1101	56.1101	0	15.5861	11	0.0116262	0.000000000000000E+000	7.83618e+08	0.000000000000000E+000	0.000000000000000E+000	15.5861	15.5861	0.0000000E+000	0.000000000000000E+000	0.00782752
1	1	0	1	0	0	0	6357.86	10	0.783154	10	56.4401	56.4401	0	15.6778	11	0.011698	0.000000000000000E+000	7.83405e+08	0.000000000000000E+000	0.000000000000000E+000	15.6778	15.6778	0.0000000E+000	0.000000000000000E+000	0.00783158
1	1	0	1	0	0	0	6390.86	10	0.783521	10.0002	56.7701	56.7701	0	15.7695	11	0.0117698	0.000000000000000E+000	7.83991e+08	0.000000000000000E+000	0.000000000000000E+000	15.7695	15.7695	0.0000000E+000	0.000000000000000E+000	0.0078354
1	1	0	1	0	0	0	6423.86	10	0.784029	9.9991	57.1001	57.1001	0	15.8611	11	0.0118416	0.000000000000000E+000	7.83055e+08	0.000000000000000E+000	0.000000000000000E+000	15.8611	15.8611	0.0000000E+000	0.000000000000000E+000	0.00783958
1	1	0	1	0	0	0	6456.86	10	0.78438	10.0002	57.4301	57.4301	0	15.9528	11	0.0119135	0.000000000000000E+000	7.8381e+08	0.000000000000000E+000	0.000000000000000E+000	15.9528	15.9528	0.0000000E+000	0.000000000000000E+000	0.00784393
1	1	0	1	0	0	0	6489.86	10	0.784914	10.0005	57.7601	57.7601	0	16.0445	11	0.0119854	0.000000000000000E+000	7.82602e+08	0.000000000000000E+000	0.000000000000000E+000	16.0445	16.0445	0.0000000E+000	0.000000000000000E+000	0.00784953
1	1	0	1	0	0	0	6522.86	10	0.785129	10.0004	58.0901	58.0901	0	16.1361	11	0.0120574	0.000000000000000E+000	7.84791e+08	0.000000000000000E+000	0.000000000000000E+000	16.1361	16.1361	0.0000000E+000	0.000000000000000E+000	0.00785158
1	1	0	1	0	0	0	6555.86	10	0.78566	10.0005	58.4201	58.4201	0	16.2278	11	0.0121294	0.000000000000000E+000	7.83631e+08	0.000000000000000E+000	0.000000000000000E+000	16.2278	16.2278	0.0000000E+000	0.000000000000000E+000	0.00785699
1	1	0	1	0	0	0	6588.86	10	0.786097	10.0006	58.7501	58.7501	0	16.3195	11	0.0122014	0.000000000000000E+000	7.83465e+08	0.000000000000000E+000	0.000000000000000E+000	16.3195	16.3195	0.0000000E+000	0.000000000000000E+000	0.00786141
1	1	0	1	0	0	0	6621.86	10	0.786428	10.0002	59.0801	59.0801	0	16.4111	11	0.0122735	0.000000000000000E+000	7.84401e+08	0.000000000000000E+000	0.000000000000000E+000	16.4111	16.4111	0.0000000E+000	0.000000000000000E+000	0.00786447
1	1	0	1	0	0	0	6654.86	10	0.786931	9.99992	59.4101	59.4101	0	16.5028	11	0.0123456	0.000000000000000E+000	7.83549e+08	0.000000000000000E+000	0.000000000000000E+000	16.5028	16.5028	0.0000000E+000	0.000000000000000E+000	0.00786925
1	1	0	1	0	0	0	6687.86	10	0.787265	10.0002	59.7401	59.7401	0	16.5945	11	0.0124178	0.000000000000000E+000	7.84447e+08	0.000000000000000E+000	0.000000000000000E+000	16.5945	16.5945	0.0000000E+000	0.000000000000000E+000	0.00787279
1	1	0	1	0	0	0	6720.86	10	0.787622	10.0002	60.0701	60.0701	0	16.6861	11	0.01249	0.000000000000000E+000	7.85095e+08	0.000000000000000E+000	0.000000000000000E+000	16.6861	16.6861	0.0000000E+000	0.000000000000000E+000	0.00787641
1	1	0	1	0	0	0	6753.86	10	0.788204	10.0007	60.4001	60.4001	0	16.7778	11	0.0125622	0.000000000000000E+000	7.83454e+08	0.000000000000000E+000	0.000000000000000E+000	16.7778	16.7778	0.0000000E+000	0.000000000000000E+000	0.00788258
1	1	0	1	0	0	0	6786.86	10	0.788638	10.0012	60.7301	60.7301	0	16.8695	11	0.0126345	0.000000000000000E+000	7.83325e+08	0.000000000000000E+000	0.000000000000000E+000	16.8695	16.8695	0.0000000E+000	0.000000000000000E+000	0.00788732
1	1	0	1	0	0	0	6819.86	10	0.788999	10.0011	61.0601	61.0601	0	16.9611	11	0.0127068	0.000000000000000E+000	7.83932e+08	0.000000000000000E+000	0.000000000000000E+000	16.9611	16.9611	0.0000000E+000	0.000000000000000E+000	0.00789088
1	1	0	1	0	0	0	6852.86	10	0.789218	10.0006	61.3901	61.3901	0	17.0528	11	0.0127791	0.000000000000000E+000	7.8596e+08	0.000000000000000E+000	0.000000000000000E+000	17.0528	17.0528	0.0000000E+000	0.000000000000000E+000	0.00789267
1	1	0	1	0	0	0	6885.86	10	0.789705	10	61.7201	61.7201	0	17.1445	11	0.0128515	0.000000000000000E+000	7.85281e+08	0.000000000000000E+000	0.000000000000000E+000	17.1445	17.1445	0.0000000E+000	0.000000000000000E+000	0.00789709
1	1	0	1	0	0	0	6918.86	10	0.790414	9.99999	62.0501	62.0501	0	17.2361	11	0.0129239	0.000000000000000E+000	7.82422e+08	0.000000000000000E+000	0.000000000000000E+000	17.2361	17.2361	0.0000000E+000	0.000000000000000E+000	0.00790413
1	1	0	1	0	0	0	6951.86	10	0.790629	9.99967	62.3801	62.3801	0	17.3278	11	0.0129964	0.000000000000000E+000	7.84462e+08	0.000000000000000E+000	0.000000000000000E+000	17.3278	17.3278	0.0000000E+000	0.000000000000000E+000	0.00790603
1	1	0	1	0	0	0	6984.86	10	0.790813	9.99999	62.7101	62.7101	0	17.4195	11	0.0130688	0.000000000000000E+000	7.86787e+08	0.000000000000000E+000	0.000000000000000E+000	17.4195	17.4195	0.0000000E+000	0.000000000000000E+000	0.00790812
1	1	0	1	0	0	0	7017.86	10	0.791315	9.99954	63.0401	63.0401	0	17.5111	11	0.0131414	0.000000000000000E+000	7.85983e+08	0.000000000000000E+000	0.000000000000000E+000	17.5111	17.5111	0.0000000E+000	0.000000000000000E+000	0.00791279
1	1	0	1	0	0	0	7050.86	10	0.791767	9.99999	63.3701	63.3701	0	17.6028	11	0.0132139	0.000000000000000E+000	7.85669e+08	0.000000000000000E+000	0.000000000000000E+000	17.6028	17.6028	0.0000000E+000	0.000000000000000E+000	0.00791766
1	1	0	1	0	0	0	7083.86	10	0.792156	10.0002	63.7001	63.7001	0	17.6945	11	0.0132865	0.000000000000000E+000	7.85963e+08	0.000000000000000E+000	0.000000000000000E+000	17.6945	17.6945	0.0000000E+000	0.000000000000000E+000	0.00792175
1	1	0	1	0	0	0	7116.86	10	0.792741	10.0002	64.0301	64.0301	0	17.7861	11	0.0133592	0.000000000000000E+000	7.84374e+08	0.000000000000000E+000	0.000000000000000E+000	17.7861	17.7861	0.0000000E+000	0.000000000000000E+000	0.0079276
1	1	0	1	0	0	0	7149.86	10	0.793077	10.0009	64.3601	64.3601	0	17.8778	11	0.0134319	0.000000000000000E+000	7.85191e+08	0.000000000000000E+000	0.000000000000000E+000	17.8778	17.8778	0.0000000E+000	0.000000000000000E+000	0.00793151
1	1	0	1	0	0	0	7182.86	10	0.793452	9.99986	64.6901	64.6901	0	17.9695	11	0.0135046	0.000000000000000E+000	7.85621e+08	0.000000000000000E+000	0.000000000000000E+000	17.9695	17.9695	0.0000000E+000	0.000000000000000E+000	0.00793441
1	1	0	1	0	0	0	7215.86	10	0.793867	10.0008	65.0201	65.0201	0	18.0612	11	0.0135773	0.000000000000000E+000	7.85666e+08	0.000000000000000E+000	0.000000000000000E+000	18.0612	18.0612	0.0000000E+000	0.000000000000000E+000	0.00793932
1	1	0	1	0	0	0	7248.86	10	0.794392	10.0002	65.3501	65.3501	0	18.1528	11	0.0136501	0.000000000000000E+000	7.84677e+08	0.000000000000000E+000	0.000000000000000E+000	18.1528	18.1528	0.0000000E+000	0.000000000000000E+000	0.00794411
1	1	0	1	0	0	0	7281.86	10	0.794628	10.0009	65.6801	65.6801	0	18.2445	11	0.013723	0.000000000000000E+000	7.8641e+08	0.000000000000000E+000	0.000000000000000E+000	18.2445	18.2445	0.0000000E+000	0.000000000000000E+000	0.00794698
1	1	0	1	0	0	0	7314.86	10	0.795175	10	66.0101	66.0101	0	18.3362	11	0.0137958	0.000000000000000E+000	7.85223e+08	0.000000000000000E+000	0.000000000000000E+000	18.3362	18.3362	0.0000000E+000	0.000000000000000E+000	0.00795179
1	1	0	1	0	0	0	7347.86	10	0.795564	9.99992	66.3401	66.3401	0	18.4278	11	0.0138687	0.000000000000000E+000	7.85514e+08	0.000000000000000E+000	0.000000000000000E+000	18.4278	18.4278	0.0000000E+000	0.000000000000000E+000	0.00795558
1	1	0	1	0	0	0	7380.86	10	0.79602	9.99967	66.6702	66.6702	0	18.5195	11	0.0139417	0.000000000000000E+000	7.85181e+08	0.000000000000000E+000	0.000000000000000E+000	18.5195	18.5195	0.0000000E+000	0.000000000000000E+000	0.00795993
1	1	0	1	0	0	0	7413.86	10	0.796333	10.0002	67.0002	67.0002	0	18.6112	11	0.0140147	0.000000000000000E+000	7.86168e+08	0.000000000000000E+000	0.000000000000000E+000	18.6112	18.6112	0.0000000E+000	0.000000000000000E+000	0.00796347
1	1	0	1	0	0	0	7446.86	10	0.796872	9.99935	67.3302	67.3302	0	18.7028	11	0.0140877	0.000000000000000E+000	7.85077e+08	0.000000000000000E+000	0.000000000000000E+000	18.7028	18.7028	0.0000000E+000	0.000000000000000E+000	0.0079682
1	1	0	1	0	0	0	7479.86	10	0.797306	9.99967	67.6602	67.6602	0	18.7945	11	0.0141608	0.000000000000000E+000	7.8495e+08	0.000000000000000E+000	0.000000000000000E+000	18.7945	18.7945	0.0000000E+000	0.000000000000000E+000	0.0079728
1	1	0	1	0	0	0	7512.86	10	0.797664	10.0006	67.9902	67.9902	0	18.8862	11	0.0142339	0.000000000000000E+000	7.85512e+08	0.000000000000000E+000	0.000000000000000E+000	18.8862	18.8862	0.0000000E+000	0.000000000000000E+000	0.00797709
1	1	0	1	0	0	0	7545.86	10	0.798162	10.0001	68.3202	68.3202	0	18.9778	11	0.014307	0.000000000000000E+000	7.84812e+08	0.000000000000000E+000	0.000000000000000E+000	18.9778	18.9778	0.0000000E+000	0.000000000000000E+000	0.00798171
1	1	0	1	0	0	0	7578.86	10	0.798433	10	68.6502	68.6502	0	19.0695	11	0.0143802	0.000000000000000E+000	7.8616e+08	0.000000000000000E+000	0.000000000000000E+000	19.0695	19.0695	0.0000000E+000	0.000000000000000E+000	0.00798437
1	1	0	1	0	0	0	7611.86	10	0.798965	10	68.9802	68.9802	0	19.1612	11	0.0144534	0.000000000000000E+000	7.85149e+08	0.000000000000000E+000	0.000000000000000E+000	19.1612	19.1612	0.0000000E+000	0.000000000000000E+000	0.00798969
1	1	0	1	0	0	0	7644.86	10	0.799545	10.0006	69.3102	69.3102	0	19.2528	11	0.0145267	0.000000000000000E+000	7.83737e+08	0.000000000000000E+000	0.000000000000000E+000	19.2528	19.2528	0.0000000E+000	0.000000000000000E+000	0.00799594
1	1	0	1	0	0	0	7677.86	10	0.799701	10.0006	69.6402	69.6402	0	19.3445	11	0.0146	0.000000000000000E+000	7.86076e+08	0.000000000000000E+000	0.000000000000000E+000	19.3445	19.3445	0.0000000E+000	0.000000000000000E+000	0.00799746
1	1	0	1	0	0	0	7710.86	10	0.800304	10.0003	69.9702	69.9702	0	19.4362	11	0.0146733	0.000000000000000E+000	7.84468e+08	0.000000000000000E+000	0.000000000000000E+000	19.4362	19.4362	0.0000000E+000	0.000000000000000E+000	0.00800328
1	1	0	1	0	0	0	7743.86	10	0.800639	9.99948	70.3002	70.3002	0	19.5278	11	0.0147467	0.000000000000000E+000	7.85217e+08	0.000000000000000E+000	0.000000000000000E+000	19.5278	19.5278	0.0000000E+000	0.000000000000000E+000	0.00800597
1	1	0	1	0	0	0	7776.86	10	0.801189	10.0001	70.6302	70.6302	0	19.6195	11	0.0148201	0.000000000000000E+000	7.84088e+08	0.000000000000000E+000	0.000000000000000E+000	19.6195	19.6195	0.0000000E+000	0.000000000000000E+000	0.00801198
1	1	0	1	0	0	0	7809.86	10	0.801634	10.0001	70.9602	70.9602	0	19.7112	11	0.0148936	0.000000000000000E+000	7.83872e+08	0.000000000000000E+000	0.000000000000000E+000	19.7112	19.7112	0.0000000E+000	0.000000000000000E+000	0.00801644
1	1	0	1	0	0	0	7842.86	10	0.80198	9.9998	71.2902	71.2902	0	19.8028	11	0.0149671	0.000000000000000E+000	7.8452e+08	0.000000000000000E+000	0.000000000000000E+000	19.8028	19.8028	0.0000000E+000	0.000000000000000E+000	0.00801964
1	1	0	1	0	0	0	7875.86	10	0.802509	10.0003	71.6202	71.6202	0	19.8945	11	0.0150406	0.000000000000000E+000	7.83595e+08	0.000000000000000E+000	0.000000000000000E+000	19.8945	19.8945	0.0000000E+000	0.000000000000000E+000	0.00802533
1	1	0	1	0	0	0	7908.86	10	0.802915	9.99986	71.9502	71.9502	0	19.9862	11	0.0151142	0.000000000000000E+000	7.83718e+08	0.000000000000000E+000	0.000000000000000E+000	19.9862	19.9862	0.0000000E+000	0.000000000000000E+000	0.00802904
1	1	0	1	0	0	0	7913.91	10	0.803282	10.0003	72.0007	72.0007	0	20.0002	11	0.0151254	0.000000000000000E+000	7.81151e+08	0.000000000000000E+000	0.000000000000000E+000	20.0002	20.0002	0.0000000E+000	0.000000000000000E+000	0.00803306