File: Data_Lola/CoNiFeNx_400ºC_24h_13102022/Electrodes_19012023/2023_01_20_CoNiFeNx_400ºC_24h_electrode2_19012023_1_01_CV_C01.mpt
EC-Lab ASCII FILE
Nb header lines : 57

Cyclic Voltammetry

Run on channel : 1 (SN 21648)
User :
CE vs. WE compliance from -10 V to 10 V
Electrode connection : standard
Potential control : Ewe
Ewe ctrl range : min = -2.50 V, max = 2.50 V
Safety Limits :
	Do not start on E overload
Acquisition started on : 01/20/2023 13:04:21.533
Loaded Setting File :  NONE
Saved on :
	File : 2023_01_20_CoNiFeNx_400ºC_24h_electrode2_19012023_1_01_CV_C01.mpr
	Directory : C:\Users\grupogalan\Documents\EC-Lab\Data\Lole Jurado\
	Host : 169.254.104.159
Device : VSP (SN 1176)
Address : USB
EC-Lab for windows v11.46 (software)
Internet server v11.40 (firmware)
Command interpretor v11.40 (firmware)
Electrode material :
Initial state :
Electrolyte :
Comments :
Electrode surface area : 0.000 cm²
Characteristic mass : 0.001 g
Equivalent Weight : 0.000 g/eq.
Density : 0.000 g/cm3
Volume (V) : 0.001 cm³
Cycle Definition : Charge/Discharge alternance
Ei (V)              0.000
vs.                 Eoc
dE/dt               10.000
dE/dt unit          mV/s
E1 (V)              1.000
vs.                 Ref
Step percent        50
N                   10
E range min (V)     -2.500
E range max (V)     2.500
I Range             Auto
I Range min         Unset
I Range max         Unset
I Range init        Unset
Bandwidth           5
E2 (V)              0.000
vs.                 Ref
nc cycles           2
Reverse Scan        1
Ef (V)              0.000
vs.                 Eoc

mode	ox/red	error	control changes	counter inc.	time/s	control/V	Ewe/V	<I>/mA	cycle number	(Q-Qo)/C	I Range	P/W
2	1	0	1	0	0.000000000000000E+000	-0.143803	-0.146193	0.0511602	1	0.0000000E+000	13	-7.47927e-06
2	0	0	0	0	0.8852	-0.134953	-0.134697	0.00110139	1	8.62395e-07	12	-1.48354e-07
2	0	0	0	0	1.7852	-0.125953	-0.128309	0.00127027	1	2.31132e-06	12	-1.62987e-07
2	1	0	0	0	2.6852	-0.116953	-0.115432	0.00137353	1	4.11166e-06	12	-1.58549e-07
2	1	0	0	0	3.5852	-0.107952	-0.10926	0.00112589	1	6.15547e-06	12	-1.23015e-07
2	1	0	0	0	4.4852	-0.0989522	-0.097082	0.0023917	1	8.5578e-06	12	-2.32192e-07
2	1	0	0	0	5.3852	-0.089952	-0.0891626	0.00314626	1	1.1214e-05	12	-2.80529e-07
2	0	0	0	0	6.2852	-0.0809518	-0.078377	0.00363284	1	1.4077e-05	12	-2.84731e-07
2	1	0	0	0	7.1852	-0.0719517	-0.0722204	0.00359042	1	1.72905e-05	12	-2.59302e-07
2	1	0	0	0	8.0852	-0.0629515	-0.0634927	0.00341143	1	2.07394e-05	12	-2.16601e-07
2	0	0	0	0	8.9852	-0.0539513	-0.0544923	0.00396189	1	2.43651e-05	12	-2.15893e-07
2	0	0	0	0	9.8852	-0.0449512	-0.0458122	0.0040553	1	2.83192e-05	12	-1.85782e-07
2	1	0	0	0	10.7852	-0.035951	-0.0355517	0.00402229	1	3.24902e-05	12	-1.42999e-07
2	1	0	1	0	11.6854	-0.0269508	-0.0267677	0.00453103	1	3.68568e-05	12	-1.21285e-07
2	1	0	1	0	12.5854	-0.0179506	-0.0195313	0.00442986	1	4.14802e-05	12	-8.6521e-08
2	1	0	1	0	13.4854	-0.00895048	-0.00817294	0.00496869	1	4.63613e-05	12	-4.06088e-08
2	0	0	1	0	14.3854	4.97599e-05	-0.00120176	0.00537672	1	5.14101e-05	12	-6.46153e-09
2	0	0	1	0	15.2854	0.00904986	0.0084987	0.00537199	1	5.67296e-05	12	4.5655e-08
2	1	0	1	0	16.1854	0.01805	0.0150668	0.0054608	1	6.23289e-05	12	8.22768e-08
2	1	0	1	0	17.0854	0.0270502	0.0234594	0.00553113	1	6.8164e-05	12	1.29757e-07
2	0	0	1	0	17.9854	0.0360504	0.0336605	0.00585125	1	7.42754e-05	12	1.96956e-07
2	0	0	1	0	18.8854	0.0450505	0.0444663	0.00650453	1	8.06573e-05	12	2.89232e-07
2	0	0	1	0	19.7854	0.0540507	0.053369	0.00694521	1	8.73748e-05	12	3.70659e-07
2	0	0	1	0	20.6854	0.0630509	0.0652196	0.00769974	1	9.43665e-05	12	5.02174e-07
2	0	0	1	0	21.5855	0.0720517	0.0728816	0.00806903	1	0.000101707	12	5.88084e-07
2	0	0	0	0	22.4856	0.0810512	0.0840255	0.00859432	1	0.000109496	12	7.22142e-07
2	1	0	0	0	23.3856	0.0900514	0.0928084	0.0093574	1	0.00011761	12	8.68445e-07
2	1	0	0	0	24.2856	0.0990515	0.101276	0.00943579	1	0.000126248	12	9.55622e-07
2	1	0	0	0	25.1856	0.108052	0.107824	0.0100678	1	0.000135599	12	1.08556e-06
2	0	0	0	0	26.0856	0.117052	0.1149	0.0109337	1	0.00014569	12	1.25629e-06
2	0	0	0	0	26.9856	0.126052	0.125471	0.0122033	1	0.000156941	12	1.53116e-06
2	0	0	0	0	27.8856	0.135052	0.133733	0.0142473	1	0.000169693	12	1.90533e-06
2	0	0	0	0	28.7856	0.144052	0.141968	0.0167123	1	0.000184039	12	2.37262e-06
2	1	0	0	0	29.6856	0.153053	0.150803	0.0190408	1	0.00020018	12	2.87141e-06
2	1	0	0	0	30.5856	0.162053	0.160532	0.020867	1	0.000218034	12	3.34984e-06
2	1	0	0	0	31.4856	0.171053	0.173571	0.0220619	1	0.000237362	12	3.82931e-06
2	1	0	1	0	32.3858	0.180053	0.179468	0.0234238	1	0.000258052	12	4.20382e-06
2	0	0	1	0	33.2858	0.189053	0.187423	0.0242021	1	0.000279988	12	4.53604e-06
2	1	0	1	0	34.1858	0.198053	0.196455	0.0255862	1	0.000303023	12	5.02654e-06
2	1	0	1	0	35.0858	0.207054	0.205479	0.0270202	1	0.000327213	12	5.55208e-06
2	1	0	1	0	35.9858	0.216054	0.216194	0.028091	1	0.000352582	12	6.07308e-06
2	1	0	1	0	36.8858	0.225054	0.225875	0.0295878	1	0.000379261	12	6.68314e-06
2	1	0	1	0	37.7858	0.234054	0.23319	0.0310498	1	0.000407316	12	7.24049e-06
2	1	0	1	0	38.6858	0.243054	0.244164	0.0328099	1	0.000436833	12	8.011e-06
2	1	0	1	0	39.5858	0.252054	0.254241	0.0348385	1	0.000468067	12	8.85737e-06
2	1	0	1	0	40.4858	0.261055	0.264369	0.0371658	1	0.00050112	12	9.82549e-06
2	1	0	1	0	41.3858	0.270055	0.26888	0.0396613	1	0.000536155	12	1.06641e-05
2	1	0	1	0	42.2858	0.279055	0.279328	0.0421464	1	0.000573551	12	1.17726e-05
2	1	0	0	0	43.186	0.288055	0.287226	0.0451148	1	0.000613477	12	1.29581e-05
2	1	0	0	0	44.086	0.297055	0.298513	0.0485055	1	0.000656171	12	1.44795e-05
2	1	0	0	0	44.986	0.306055	0.308044	0.0515338	1	0.000702129	12	1.58747e-05
2	1	0	0	0	45.886	0.315056	0.313294	0.0551565	1	0.000751697	12	1.72802e-05
2	1	0	0	0	46.786	0.324056	0.327489	0.0604695	1	0.000805344	12	1.98031e-05
2	1	0	0	0	47.686	0.333056	0.335935	0.0662987	1	0.000863709	12	2.2272e-05
2	1	0	0	0	48.586	0.342056	0.338611	0.072741	1	0.000927394	12	2.46309e-05
2	1	0	0	0	49.486	0.351056	0.349827	0.0797095	1	0.000996871	12	2.78845e-05
2	1	0	0	0	50.386	0.360056	0.358478	0.0870528	1	0.00107284	12	3.12065e-05
2	1	0	0	0	51.286	0.369057	0.367075	0.0951326	1	0.00115595	12	3.49208e-05
2	1	0	0	0	52.186	0.378057	0.376086	0.103822	1	0.00124672	12	3.90462e-05
2	1	0	0	0	53.086	0.387057	0.380617	0.113393	1	0.00134597	12	4.31592e-05
2	1	0	1	0	53.9862	0.396057	0.397929	0.12388	1	0.00145447	12	4.92954e-05
2	1	0	1	0	54.8862	0.405057	0.405403	0.136411	1	0.00157299	12	5.53012e-05
2	1	0	1	0	55.7862	0.414057	0.41406	0.149552	1	0.00170246	12	6.19233e-05
2	1	0	1	0	56.6862	0.423057	0.42037	0.163366	1	0.00184395	12	6.8674e-05
2	1	0	1	0	57.5862	0.432058	0.428126	0.178172	1	0.00199876	12	7.62801e-05
2	1	0	1	0	58.4862	0.441058	0.436479	0.194623	1	0.00216821	12	8.49491e-05
2	1	0	1	0	59.3862	0.450058	0.448882	0.213435	1	0.00235398	12	9.58068e-05
2	1	0	1	0	60.2862	0.459058	0.456314	0.234788	1	0.00255797	12	0.000107137
2	1	0	1	0	61.1862	0.468058	0.468801	0.257038	1	0.00278144	12	0.0001205
2	1	0	1	0	62.0862	0.477058	0.480189	0.278651	1	0.00302473	12	0.000133805
2	1	0	1	0	62.9862	0.486059	0.490989	0.299766	1	0.00328778	12	0.000147182
2	1	0	0	0	63.8864	0.495059	0.501864	0.321427	1	0.00357067	12	0.000161313
2	1	0	0	0	64.7864	0.504059	0.507022	0.34422	1	0.00387371	12	0.000174527
2	1	0	0	0	65.6864	0.513059	0.513171	0.368072	1	0.00419758	12	0.000188884
2	1	0	0	0	66.5864	0.522059	0.523161	0.392307	1	0.00454282	12	0.00020524
2	1	0	0	0	67.4864	0.53106	0.529897	0.418112	1	0.00491021	12	0.000221556
2	1	0	0	0	68.3864	0.54006	0.538706	0.444031	1	0.00530069	12	0.000239202
2	1	0	0	0	69.2864	0.54906	0.545603	0.471382	1	0.00571567	12	0.000257188
2	1	0	0	0	70.1864	0.55806	0.555345	0.502121	1	0.00615677	12	0.00027885
2	1	0	0	0	71.0864	0.56706	0.566254	0.537238	1	0.00662724	12	0.000304214
2	1	0	0	0	71.9864	0.57606	0.575424	0.58119	1	0.00713292	12	0.000334431
2	1	0	0	0	72.8864	0.585061	0.584419	0.641845	1	0.00768448	12	0.000375106
2	1	0	0	0	73.7864	0.594061	0.592641	0.728797	1	0.00830103	12	0.000431916
2	1	0	1	0	74.6866	0.603061	0.603858	0.861869	1	0.00901547	12	0.000520447
2	1	0	1	0	75.6166	0.612361	0.613986	1.07186	1	0.00991696	11	0.000658108
2	1	0	1	0	76.5166	0.621361	0.619906	1.37212	1	0.0110127	11	0.000850587
2	1	0	1	0	77.4166	0.630361	0.62935	1.7914	1	0.0124316	11	0.00112742
2	1	0	1	0	78.3166	0.639362	0.640481	2.35118	1	0.014289	11	0.00150589
2	1	0	1	0	79.2166	0.648362	0.647188	3.05615	1	0.0167142	11	0.0019779
2	1	0	1	0	80.1166	0.657362	0.655521	3.91314	1	0.0198445	11	0.00256514
2	1	0	1	0	81.0166	0.666362	0.663643	4.9189	1	0.0238163	11	0.0032644
2	1	0	1	0	81.9166	0.675362	0.671808	6.08687	1	0.0287678	11	0.0040892
2	1	0	1	0	82.8166	0.684362	0.683163	7.39902	1	0.0348352	11	0.00505474
2	1	0	1	0	83.7166	0.693363	0.692986	8.85287	1	0.0421492	11	0.00613492
2	1	0	1	0	84.6166	0.702363	0.704125	10.4538	1	0.0508386	11	0.00736075
2	1	0	0	0	85.5468	0.711663	0.712565	12.2487	1	0.0614125	10	0.00872799
2	1	0	0	0	86.4468	0.720663	0.721775	14.0772	1	0.0732652	10	0.0101605
2	1	0	0	0	87.3468	0.729663	0.730102	16.0339	1	0.0868169	10	0.0117063
2	1	0	0	0	88.2468	0.738663	0.739216	18.0874	1	0.102174	10	0.0133705
2	1	0	0	0	89.1468	0.747664	0.746487	20.253	1	0.119433	10	0.0151186
2	1	0	0	0	90.0468	0.756664	0.754971	22.5485	1	0.138701	10	0.0170234
2	1	0	0	0	90.9468	0.765664	0.765208	24.9051	1	0.160054	10	0.0190576
2	1	0	0	0	91.8468	0.774664	0.773941	27.3472	1	0.183575	10	0.0211651
2	1	0	0	0	92.7468	0.783664	0.782739	29.9108	1	0.209343	10	0.0234123
2	1	0	0	0	93.6468	0.792664	0.793752	32.5198	1	0.237444	10	0.0258126
2	1	0	0	0	94.5468	0.801665	0.802786	35.2995	1	0.267977	10	0.0283379
2	1	0	1	0	95.4468	0.810664	0.808463	38.1313	1	0.301032	10	0.0308277
2	1	0	1	0	96.347	0.819665	0.818503	41.0441	1	0.336678	10	0.0335947
2	1	0	1	0	97.247	0.828665	0.82762	43.9584	1	0.374953	10	0.0363808
2	1	0	1	0	98.147	0.837665	0.835749	47.0273	1	0.415912	10	0.039303
2	1	0	1	0	99.047	0.846665	0.845572	50.083	1	0.459621	10	0.0423488
2	1	0	1	0	99.947	0.855665	0.854367	53.208	1	0.506101	10	0.0454592
2	1	0	1	0	100.847	0.864666	0.866056	56.2303	1	0.555363	10	0.0486985
2	1	0	1	0	101.747	0.873666	0.874371	59.7152	1	0.60759	10	0.0522132
2	1	0	1	0	102.647	0.882666	0.88401	63.0371	1	0.662862	10	0.0557254
2	1	0	1	0	103.547	0.891666	0.892013	66.4886	1	0.721139	10	0.0593087
2	1	0	1	0	104.447	0.900666	0.904873	69.9088	1	0.782532	10	0.0632586
2	1	0	1	0	105.347	0.909666	0.911516	73.0805	1	0.846869	10	0.066614
2	1	0	0	0	106.247	0.918667	0.918245	76.5316	1	0.914238	10	0.0702748
2	1	0	0	0	107.147	0.927667	0.926543	79.8876	1	0.984679	10	0.0740193
2	1	0	0	0	108.047	0.936667	0.939096	83.3555	1	1.05816	10	0.0782788
2	1	0	0	0	108.947	0.945667	0.946647	86.5929	1	1.13458	10	0.0819729
2	1	0	0	0	109.847	0.954667	0.957394	90.1509	1	1.21417	10	0.0863099
2	1	0	0	0	110.747	0.963667	0.966335	93.7286	1	1.29701	10	0.0905732
2	1	0	0	0	111.647	0.972668	0.97502	97.3823	1	1.38288	10	0.0949497
2	1	0	0	0	112.547	0.981668	0.984013	100.426	1	1.47191	10	0.0988204
2	1	0	0	0	113.447	0.990668	0.988239	104.205	1	1.56396	10	0.10298
2	1	0	0	0	114.337	0.999568	0.997938	107.547	1	1.65825	10	0.107325
2	1	0	1	0	115.138	0.992468	0.992362	103.57	1	1.74291	10	0.102779
2	1	0	1	0	116.038	0.983468	0.983805	99.1358	1	1.8341	10	0.0975303
2	1	0	1	0	116.938	0.974468	0.974672	94.8716	1	1.92145	10	0.0924687
2	1	0	1	0	117.838	0.965468	0.96849	90.885	1	2.00499	10	0.0880212
2	1	0	1	0	118.738	0.956467	0.958825	87.3811	1	2.08537	10	0.0837832
2	1	0	1	0	119.638	0.947467	0.948053	83.3366	1	2.16213	10	0.0790075
2	1	0	1	0	120.538	0.938467	0.940897	79.3053	1	2.23527	10	0.0746181
2	1	0	1	0	121.438	0.929467	0.929022	75.4915	1	2.30489	10	0.0701333
2	1	0	1	0	122.338	0.920467	0.920247	71.7967	1	2.37109	10	0.0660707
2	1	0	0	0	123.238	0.911467	0.909111	68.7552	1	2.43441	10	0.0625061
2	1	0	0	0	124.138	0.902466	0.899787	65.2152	1	2.49468	10	0.0586798
2	1	0	0	0	125.038	0.893466	0.890971	61.7404	1	2.5518	10	0.0550089
2	1	0	0	0	125.938	0.884466	0.883946	58.3944	1	2.60582	10	0.0516175
2	1	0	0	0	126.838	0.875466	0.876668	55.0748	1	2.65687	10	0.0482823
2	1	0	0	0	127.738	0.866466	0.866827	51.9592	1	2.70499	10	0.0450397
2	1	0	0	0	128.638	0.857466	0.858293	48.8414	1	2.75036	10	0.0419202
2	1	0	0	0	129.538	0.848465	0.851158	45.7561	1	2.79291	10	0.0389457
2	1	0	0	0	130.438	0.839465	0.84118	42.7675	1	2.83272	10	0.0359752
2	1	0	0	0	131.338	0.830465	0.830584	39.9437	1	2.86992	10	0.0331766
2	1	0	0	0	132.238	0.821465	0.820602	37.1883	1	2.90462	10	0.0305168
2	1	0	1	0	133.138	0.812464	0.811072	34.5256	1	2.9369	10	0.0280027
2	1	0	1	0	134.038	0.803465	0.804108	31.9389	1	2.9668	10	0.0256823
2	1	0	1	0	134.938	0.794464	0.792851	29.4725	1	2.9944	10	0.0233673
2	1	0	1	0	135.838	0.785464	0.783809	27.0539	1	3.01983	10	0.0212051
2	1	0	1	0	136.738	0.776464	0.77718	24.7869	1	3.04314	10	0.0192639
2	1	0	1	0	137.638	0.767464	0.765261	22.6158	1	3.06444	10	0.017307
2	1	0	1	0	138.538	0.758464	0.758434	20.5383	1	3.08385	10	0.015577
2	1	0	1	0	139.438	0.749464	0.748292	18.5474	1	3.10141	10	0.0138789
2	1	0	1	0	140.338	0.740463	0.740825	16.6748	1	3.11723	10	0.0123531
2	1	0	1	0	141.238	0.731463	0.732408	14.881	1	3.13141	10	0.010899
2	1	0	1	0	142.138	0.722463	0.724749	13.2243	1	3.14403	10	0.00958433
2	1	0	1	0	143.038	0.713463	0.714115	11.6538	1	3.15521	10	0.00832212
2	1	0	1	0	143.938	0.704463	0.706805	10.1799	1	3.16502	10	0.00719523
2	1	0	0	0	144.838	0.695463	0.695702	8.82475	1	3.17356	10	0.00613939
2	1	0	0	0	145.738	0.686462	0.684769	7.57396	1	3.18092	10	0.00518641
2	1	0	0	0	146.638	0.677462	0.675021	6.42159	1	3.18721	10	0.00433471
2	1	0	0	0	147.538	0.668462	0.664361	5.38894	1	3.19251	10	0.0035802
2	1	0	0	0	148.438	0.659462	0.657418	4.46125	1	3.19693	10	0.0029329
2	1	0	0	0	149.368	0.650162	0.64907	3.60163	1	3.20067	11	0.00233771
2	1	0	0	0	150.268	0.641162	0.64078	2.88101	1	3.20357	11	0.00184609
2	1	0	0	0	151.168	0.632161	0.632943	2.27028	1	3.20588	11	0.00143696
2	1	0	0	0	152.068	0.623161	0.624291	1.74975	1	3.20767	11	0.00109235
2	1	0	0	0	152.968	0.614161	0.616738	1.31945	1	3.20904	11	0.000813753
2	1	0	0	0	153.868	0.605161	0.607457	0.971824	1	3.21006	11	0.000590341
2	1	0	1	0	154.769	0.596161	0.595065	0.696572	1	3.2108	11	0.000414505
2	1	0	1	0	155.669	0.587161	0.586569	0.487351	1	3.21132	11	0.000285865
2	1	0	1	0	156.569	0.57816	0.576788	0.328427	1	3.21168	11	0.000189433
2	1	0	1	0	157.469	0.56916	0.56877	0.21428	1	3.21192	11	0.000121876
2	1	0	1	0	158.369	0.56016	0.55873	0.133776	1	3.21207	11	7.47445e-05
2	1	0	1	0	159.299	0.55086	0.548885	0.0720462	1	3.21216	12	3.95451e-05
2	0	0	1	0	160.199	0.54186	0.541011	0.0327212	1	3.2122	12	1.77025e-05
2	0	0	1	0	161.099	0.53286	0.532501	0.00516074	1	3.21221	12	2.7481e-06
2	0	0	1	0	161.999	0.523859	0.524573	-0.0155272	1	3.2122	12	-8.14513e-06
2	0	0	1	0	162.899	0.514859	0.515418	-0.0291947	1	3.21218	12	-1.50475e-05
2	0	0	1	0	163.799	0.505859	0.506192	-0.0399555	1	3.21214	12	-2.02252e-05
2	0	0	1	0	164.699	0.496859	0.494144	-0.0476638	1	3.2121	12	-2.35528e-05
2	0	0	0	0	165.599	0.487859	0.488408	-0.0538509	1	3.21205	12	-2.63012e-05
2	0	0	0	0	166.499	0.478859	0.478771	-0.0591472	1	3.212	12	-2.8318e-05
2	0	0	0	0	167.399	0.469858	0.468267	-0.0629806	1	3.21194	12	-2.94917e-05
2	0	0	0	0	168.299	0.460858	0.461448	-0.0666485	1	3.21188	12	-3.07549e-05
2	0	0	0	0	169.199	0.451858	0.4529	-0.0692261	1	3.21182	12	-3.13525e-05
2	0	0	0	0	170.099	0.442858	0.444385	-0.0708117	1	3.21175	12	-3.14677e-05
2	0	0	0	0	170.999	0.433858	0.436514	-0.0733343	1	3.21169	12	-3.20115e-05
2	0	0	0	0	171.899	0.424858	0.422765	-0.0749801	1	3.21162	12	-3.1699e-05
2	0	0	0	0	172.799	0.415857	0.414656	-0.0753664	1	3.21155	12	-3.12511e-05
2	0	0	0	0	173.699	0.406857	0.40923	-0.0755079	1	3.21148	12	-3.09001e-05
2	0	0	0	0	174.599	0.397857	0.397349	-0.0758964	1	3.21141	12	-3.01573e-05
2	0	0	1	0	175.499	0.388857	0.389655	-0.0765899	1	3.21134	12	-2.98436e-05
2	0	0	1	0	176.399	0.379857	0.383259	-0.0778947	1	3.21127	12	-2.98539e-05
2	0	0	1	0	177.299	0.370857	0.369314	-0.0778538	1	3.21119	12	-2.87525e-05
2	0	0	1	0	178.199	0.361856	0.364455	-0.0776775	1	3.21112	12	-2.831e-05
2	0	0	1	0	179.099	0.352856	0.354808	-0.0774916	1	3.21105	12	-2.74946e-05
2	0	0	1	0	179.999	0.343856	0.342521	-0.0769793	1	3.21098	12	-2.6367e-05
2	0	0	1	0	180.899	0.334856	0.332885	-0.0771835	1	3.21091	12	-2.56933e-05
2	0	0	1	0	181.799	0.325856	0.32536	-0.0775384	1	3.21084	12	-2.52279e-05
2	0	0	1	0	182.699	0.316856	0.314611	-0.0767395	1	3.21077	12	-2.41431e-05
2	0	0	1	0	183.599	0.307855	0.306762	-0.0753509	1	3.2107	12	-2.31148e-05
2	0	0	1	0	184.499	0.298855	0.29607	-0.0734864	1	3.21063	12	-2.17572e-05
2	0	0	1	0	185.399	0.289855	0.288102	-0.0713077	1	3.21056	12	-2.05439e-05
2	0	0	0	0	186.299	0.280855	0.282226	-0.068996	1	3.2105	12	-1.94725e-05
2	0	0	0	0	187.199	0.271855	0.271163	-0.0665506	1	3.21044	12	-1.80461e-05
2	0	0	0	0	188.099	0.262855	0.261572	-0.0641972	1	3.21038	12	-1.67922e-05
2	0	0	0	0	188.999	0.253854	0.253572	-0.0620445	1	3.21032	12	-1.57328e-05
2	0	0	0	0	189.899	0.244854	0.241202	-0.0599029	1	3.21026	12	-1.44487e-05
2	0	0	0	0	190.799	0.235854	0.235187	-0.0576782	1	3.21021	12	-1.35652e-05
2	0	0	0	0	191.699	0.226854	0.227059	-0.054808	1	3.21016	12	-1.24446e-05
2	0	0	0	0	192.599	0.217854	0.215094	-0.0519187	1	3.21011	12	-1.11674e-05
2	0	0	0	0	193.499	0.208854	0.208779	-0.0495906	1	3.21006	12	-1.03535e-05
2	0	0	0	0	194.399	0.199853	0.203491	-0.0473127	1	3.21002	12	-9.62772e-06
2	0	0	0	0	195.299	0.190853	0.187922	-0.0448631	1	3.20998	12	-8.43075e-06
2	0	0	0	0	196.199	0.181853	0.179791	-0.0426485	1	3.20994	12	-7.66783e-06
2	0	0	1	0	197.099	0.172853	0.170952	-0.0408839	1	3.2099	12	-6.98917e-06
2	0	0	1	0	197.999	0.163853	0.163019	-0.0388017	1	3.20986	12	-6.3254e-06
2	0	0	1	0	198.899	0.154853	0.153134	-0.037174	1	3.20983	12	-5.69259e-06
2	0	0	1	0	199.799	0.145852	0.146955	-0.0359627	1	3.20979	12	-5.28489e-06
2	1	0	1	0	200.699	0.136852	0.139199	-0.0341111	1	3.20976	12	-4.74823e-06
2	1	0	1	0	201.599	0.127852	0.128248	-0.0325333	1	3.20973	12	-4.17232e-06
2	1	0	1	0	202.499	0.118852	0.117481	-0.0308385	1	3.2097	12	-3.62294e-06
2	0	0	1	0	203.399	0.109852	0.109973	-0.0290429	1	3.20967	12	-3.19394e-06
2	0	0	1	0	204.299	0.100852	0.100917	-0.0278892	1	3.20965	12	-2.81448e-06
2	0	0	1	0	205.199	0.0918514	0.0910814	-0.0266059	1	3.20962	12	-2.4233e-06
2	1	0	1	0	206.099	0.0828512	0.0839225	-0.0263201	1	3.2096	12	-2.20885e-06
2	0	0	1	0	206.999	0.0738511	0.0738147	-0.0253009	1	3.20957	12	-1.86758e-06
2	0	0	0	0	207.9	0.0648509	0.0665858	-0.0245709	1	3.20955	12	-1.63607e-06
2	0	0	0	0	208.8	0.0558507	0.0574295	-0.0238281	1	3.20953	12	-1.36844e-06
2	0	0	0	0	209.7	0.0468506	0.0482711	-0.0228868	1	3.20951	12	-1.10477e-06
2	0	0	0	0	210.6	0.0378504	0.0369265	-0.0219472	1	3.20949	12	-8.10431e-07
2	0	0	0	0	211.5	0.0288502	0.0289401	-0.0215085	1	3.20946	12	-6.2246e-07
2	0	0	0	0	212.4	0.0198501	0.0180453	-0.0209826	1	3.20945	12	-3.78637e-07
2	1	0	0	0	213.3	0.0108499	0.00916054	-0.0206099	1	3.20943	12	-1.88797e-07
2	0	0	0	0	214.2	0.00184972	-0.00137154	-0.0205778	1	3.20941	12	2.82233e-08
2	1	0	1	1	214.94	0.00554979	0.00583406	-0.017774	2	3.20939	12	-1.03694e-07
2	1	0	1	1	215.84	0.01455	0.0130747	-0.0156392	2	3.20938	12	-2.04478e-07
2	0	0	1	1	216.74	0.0235501	0.0216889	-0.0138008	2	3.20937	12	-2.99324e-07
2	0	0	1	1	217.64	0.0325503	0.0322889	-0.0120692	2	3.20935	12	-3.89703e-07
2	0	0	1	1	218.54	0.0415505	0.0400832	-0.0108352	2	3.20934	12	-4.34309e-07
2	0	0	1	1	219.44	0.0505506	0.0481767	-0.0105452	2	3.20934	12	-5.08032e-07
2	0	0	1	1	220.34	0.0595508	0.0572672	-0.00991871	2	3.20933	12	-5.68017e-07
2	0	0	1	1	221.24	0.068551	0.0687624	-0.00890627	2	3.20932	12	-6.12417e-07
2	0	0	0	1	222.14	0.0775511	0.0756965	-0.0080317	2	3.20931	12	-6.07971e-07
2	0	0	0	1	223.04	0.0865513	0.0862699	-0.00663132	2	3.20931	12	-5.72084e-07
2	1	0	0	1	223.94	0.0955515	0.0997954	-0.00568571	2	3.2093	12	-5.67407e-07
2	0	0	0	1	224.84	0.104552	0.107849	-0.00519786	2	3.2093	12	-5.60582e-07
2	0	0	0	1	225.74	0.113552	0.113845	-0.00408442	2	3.20929	12	-4.6499e-07
2	0	0	0	1	226.64	0.122552	0.122053	-0.00300157	2	3.20929	12	-3.66351e-07
2	0	0	0	1	227.54	0.131552	0.13314	-0.00217056	2	3.20929	12	-2.88988e-07
2	0	0	0	1	228.44	0.140552	0.138449	-0.00116205	2	3.20929	12	-1.60884e-07
2	1	0	0	1	229.34	0.149552	0.143332	-0.00020403	2	3.20929	12	-2.92441e-08
2	1	0	0	1	230.24	0.158553	0.152342	0.000659226	2	3.20929	12	1.00428e-07
2	0	0	0	1	231.14	0.167553	0.162661	0.00134661	2	3.20929	12	2.19042e-07
2	0	0	0	1	232.04	0.176553	0.176548	0.00262073	2	3.20929	12	4.62687e-07
2	0	0	1	1	232.941	0.185553	0.184659	0.00382861	2	3.2093	12	7.06987e-07
2	0	0	1	1	233.841	0.194553	0.193896	0.00524832	2	3.2093	12	1.01763e-06
2	0	0	1	1	234.741	0.203553	0.205449	0.00682328	2	3.20931	12	1.40184e-06
2	0	0	1	1	235.641	0.212554	0.211547	0.00848259	2	3.20932	12	1.79447e-06
2	0	0	1	1	236.541	0.221554	0.219719	0.0104107	2	3.20932	12	2.28743e-06
2	0	0	1	1	237.441	0.230554	0.229153	0.0122614	2	3.20934	12	2.80973e-06
2	1	0	1	1	238.341	0.239554	0.238523	0.0145298	2	3.20935	12	3.46569e-06
2	1	0	1	1	239.241	0.248554	0.247584	0.0165461	2	3.20936	12	4.09654e-06
2	1	0	1	1	240.141	0.257554	0.255413	0.0182042	2	3.20938	12	4.64959e-06
2	0	0	1	1	241.041	0.266555	0.266447	0.0209049	2	3.2094	12	5.57005e-06
2	1	0	1	1	241.941	0.275555	0.275883	0.0235452	2	3.20942	12	6.49574e-06
2	1	0	0	1	242.841	0.284555	0.285267	0.0264679	2	3.20944	12	7.55043e-06
2	1	0	0	1	243.741	0.293555	0.295946	0.0300526	2	3.20947	12	8.89396e-06
2	1	0	0	1	244.641	0.302555	0.303542	0.0337068	2	3.2095	12	1.02314e-05
2	1	0	0	1	245.541	0.311555	0.31317	0.0379122	2	3.20953	12	1.1873e-05
2	1	0	0	1	246.441	0.320556	0.316727	0.0423134	2	3.20957	12	1.34018e-05
2	1	0	0	1	247.341	0.329556	0.329838	0.047153	2	3.20961	12	1.55529e-05
2	1	0	0	1	248.241	0.338556	0.337761	0.0524037	2	3.20965	12	1.76999e-05
2	1	0	0	1	249.141	0.347556	0.345882	0.0582654	2	3.2097	12	2.01529e-05
2	1	0	0	1	250.041	0.356556	0.355054	0.0641114	2	3.20976	12	2.2763e-05
2	1	0	0	1	250.941	0.365556	0.364947	0.0707185	2	3.20982	12	2.58085e-05
2	1	0	0	1	251.841	0.374557	0.372409	0.0774253	2	3.20989	12	2.88339e-05
2	1	0	0	1	252.741	0.383557	0.382777	0.0847129	2	3.20996	12	3.24262e-05
2	1	0	1	1	253.641	0.392557	0.392839	0.0932823	2	3.21004	12	3.6645e-05
2	1	0	1	1	254.541	0.401557	0.403241	0.101632	2	3.21013	12	4.09822e-05
2	1	0	1	1	255.441	0.410557	0.413038	0.110349	2	3.21023	12	4.55785e-05
2	1	0	1	1	256.341	0.419557	0.422051	0.119127	2	3.21034	12	5.02776e-05
2	1	0	1	1	257.241	0.428558	0.428878	0.127409	2	3.21045	12	5.46431e-05
2	1	0	1	1	258.141	0.437558	0.436898	0.135516	2	3.21057	12	5.92068e-05
2	1	0	1	1	259.041	0.446558	0.447132	0.143823	2	3.2107	12	6.4308e-05
2	1	0	1	1	259.941	0.455558	0.454028	0.151442	2	3.21083	12	6.8759e-05
2	1	0	1	1	260.841	0.464558	0.462601	0.159339	2	3.21097	12	7.37102e-05
2	1	0	1	1	261.741	0.473558	0.473169	0.167677	2	3.21112	12	7.93398e-05
2	1	0	1	1	262.641	0.482559	0.481838	0.175787	2	3.21128	12	8.47008e-05
2	1	0	1	1	263.541	0.491559	0.493597	0.184489	2	3.21144	12	9.1063e-05
2	1	0	0	1	264.441	0.500559	0.499461	0.193047	2	3.21162	12	9.64195e-05
2	1	0	0	1	265.341	0.509559	0.510644	0.2017	2	3.21179	12	0.000102997
2	1	0	0	1	266.241	0.518559	0.518067	0.210254	2	3.21198	12	0.000108926
2	1	0	0	1	267.141	0.527559	0.528887	0.220342	2	3.21218	12	0.000116536
2	1	0	0	1	268.041	0.53656	0.540307	0.231438	2	3.21238	12	0.000125048
2	1	0	0	1	268.941	0.54556	0.54821	0.243853	2	3.2126	12	0.000133683
2	1	0	0	1	269.841	0.55456	0.554995	0.260038	2	3.21283	12	0.00014432
2	1	0	0	1	270.741	0.56356	0.562493	0.281543	2	3.21307	12	0.000158366
2	1	0	0	1	271.641	0.57256	0.572661	0.312355	2	3.21334	12	0.000178874
2	1	0	0	1	272.541	0.58156	0.580735	0.359262	2	3.21365	12	0.000208636
2	1	0	0	1	273.441	0.590561	0.589729	0.43214	2	3.214	12	0.000254845
2	1	0	1	1	274.341	0.59956	0.597745	0.544181	2	3.21444	12	0.000325282
2	1	0	1	1	275.241	0.608561	0.606018	0.704787	2	3.215	12	0.000427114
2	1	0	1	1	276.156	0.617711	0.616624	0.912328	2	3.21575	12	0.000562563
2	1	0	1	1	277.071	0.626861	0.627177	1.24936	2	3.21675	11	0.000783571
2	1	0	1	1	277.971	0.635861	0.635838	1.64899	2	3.21805	11	0.00104849
2	1	0	1	1	278.871	0.644862	0.644095	2.16061	2	3.21976	11	0.00139164
2	1	0	1	1	279.771	0.653862	0.654733	2.78073	2	3.22198	11	0.00182063
2	1	0	1	1	280.671	0.662862	0.663279	3.52279	2	3.22481	11	0.0023366
2	1	0	1	1	281.571	0.671862	0.672792	4.40367	2	3.22837	11	0.00296276
2	1	0	1	1	282.471	0.680862	0.679032	5.41413	2	3.23279	11	0.00367637
2	1	0	1	1	283.371	0.689862	0.689888	6.56205	2	3.23818	11	0.00452708
2	1	0	1	1	284.271	0.698863	0.699935	7.851	2	3.24466	11	0.00549519
2	1	0	0	1	285.172	0.707863	0.709092	9.27181	2	3.25237	11	0.00657456
2	1	0	0	1	286.102	0.717163	0.718476	10.8801	2	3.26174	10	0.00781708
2	1	0	0	1	287.002	0.726163	0.725946	12.5635	2	3.2723	10	0.00912039
2	1	0	0	1	287.902	0.735163	0.734974	14.3581	2	3.28442	10	0.0105528
2	1	0	0	1	288.802	0.744163	0.741115	16.2751	2	3.2982	10	0.0120617
2	1	0	0	1	289.702	0.753164	0.752527	18.3025	2	3.31376	10	0.0137731
2	1	0	0	1	290.602	0.762164	0.763969	20.4418	2	3.3312	10	0.0156169
2	1	0	0	1	291.502	0.771164	0.767686	22.7027	2	3.35062	10	0.0174286
2	1	0	0	1	292.402	0.780164	0.775089	25.0814	2	3.37213	10	0.0194403
2	1	0	0	1	293.302	0.789164	0.789467	27.554	2	3.39583	10	0.021753
2	1	0	0	1	294.202	0.798164	0.799953	30.1312	2	3.4218	10	0.0241035
2	1	0	0	1	295.102	0.807165	0.808458	32.7767	2	3.45012	10	0.0264986
2	1	0	1	1	296.002	0.816165	0.816505	35.6189	2	3.48091	10	0.029083
2	1	0	1	1	296.902	0.825165	0.83021	38.4232	2	3.51424	10	0.0318993
2	1	0	1	1	297.802	0.834165	0.839217	41.354	2	3.55017	10	0.0347049
2	1	0	1	1	298.702	0.843165	0.845222	44.3966	2	3.58878	10	0.037525
2	1	0	1	1	299.602	0.852165	0.851025	47.4599	2	3.63016	10	0.0403895
2	1	0	1	1	300.502	0.861166	0.860166	50.6789	2	3.67435	10	0.0435923
2	1	0	1	1	301.402	0.870166	0.871108	53.8982	2	3.72142	10	0.0469511
2	1	0	1	1	302.302	0.879166	0.877464	57.1421	2	3.77138	10	0.0501401
2	1	0	1	1	303.202	0.888166	0.885977	60.5257	2	3.82439	10	0.0536244
2	1	0	1	1	304.102	0.897166	0.898011	63.9734	2	3.88038	10	0.0574488
2	1	0	1	1	305.002	0.906166	0.907421	67.2205	2	3.93946	10	0.0609973
2	1	0	1	1	305.902	0.915166	0.914202	70.6669	2	4.00152	10	0.0646038
2	1	0	0	1	306.802	0.924167	0.925906	74.037	2	4.06672	10	0.0685512
2	1	0	0	1	307.702	0.933167	0.930479	77.4606	2	4.13498	10	0.0720754
2	1	0	0	1	308.602	0.942167	0.938434	81.3209	2	4.20643	10	0.0763143
2	1	0	0	1	309.502	0.951167	0.946015	84.7136	2	4.28114	10	0.0801403
2	1	0	0	1	310.402	0.960168	0.958077	88.1658	2	4.35907	10	0.0844696
2	1	0	0	1	311.302	0.969168	0.965779	91.9919	2	4.44006	10	0.0888439
2	1	0	0	1	312.202	0.978168	0.977798	95.7748	2	4.52457	10	0.0936484
2	1	0	0	1	313.102	0.987168	0.987844	99.3682	2	4.6124	10	0.0981603
2	1	0	0	1	314.002	0.996168	0.996387	103.007	2	4.70347	10	0.102634
2	1	0	1	1	314.743	0.996468	0.99732	102.62	2	4.78017	10	0.102345
2	1	0	1	1	315.643	0.987468	0.989284	98.3926	2	4.8706	10	0.0973383
2	1	0	1	1	316.543	0.978468	0.981302	94.1337	2	4.95724	10	0.0923735
2	1	0	1	1	317.443	0.969468	0.969536	90.2902	2	5.04028	10	0.0875396
2	1	0	1	1	318.343	0.960468	0.960127	86.5896	2	5.11995	10	0.083137
2	1	0	1	1	319.243	0.951467	0.949088	82.7597	2	5.19615	10	0.0785463
2	1	0	1	1	320.143	0.942467	0.941104	79.0428	2	5.26891	10	0.0743875
2	1	0	1	1	321.043	0.933467	0.932829	75.2799	2	5.33836	10	0.0702232
2	1	0	1	1	321.943	0.924467	0.924499	71.8524	2	5.4046	10	0.0664275
2	1	0	1	1	322.843	0.915467	0.914208	68.3047	2	5.46765	10	0.0624446
2	1	0	0	1	323.743	0.906466	0.906994	64.6986	2	5.52751	10	0.0586812
2	1	0	0	1	324.643	0.897466	0.899258	61.4475	2	5.58418	10	0.0552571
2	1	0	0	1	325.543	0.888466	0.891056	57.9485	2	5.63786	10	0.0516353
2	1	0	0	1	326.443	0.879466	0.880193	54.6411	2	5.68845	10	0.0480947
2	1	0	0	1	327.343	0.870466	0.871865	51.4621	2	5.73615	10	0.044868
2	1	0	0	1	328.243	0.861466	0.862844	48.3007	2	5.78104	10	0.041676
2	1	0	0	1	329.143	0.852466	0.852146	45.2071	2	5.8231	10	0.038523
2	1	0	0	1	330.043	0.843465	0.842951	42.2927	2	5.86244	10	0.0356507
2	1	0	0	1	330.943	0.834465	0.832274	39.5261	2	5.89925	10	0.0328966
2	1	0	0	1	331.843	0.825465	0.821807	36.6693	2	5.93353	10	0.0301351
2	1	0	0	1	332.743	0.816465	0.814372	33.9878	2	5.96531	10	0.0276787
2	1	0	1	1	333.643	0.807465	0.805347	31.4261	2	5.99475	10	0.0253089
2	1	0	1	1	334.543	0.798464	0.797505	28.9202	2	6.02191	10	0.023064
2	1	0	1	1	335.443	0.789464	0.788698	26.4974	2	6.04683	10	0.0208985
2	1	0	1	1	336.343	0.780464	0.78146	24.1644	2	6.06962	10	0.0188835
2	1	0	1	1	337.243	0.771464	0.772107	21.9773	2	6.09036	10	0.0169688
2	1	0	1	1	338.143	0.762464	0.763986	19.8473	2	6.10916	10	0.0151631
2	1	0	1	1	339.043	0.753464	0.752349	17.8695	2	6.12612	10	0.0134441
2	1	0	1	1	339.943	0.744463	0.744232	16.001	2	6.14135	10	0.0119085
2	1	0	1	1	340.843	0.735463	0.735784	14.2238	2	6.15492	10	0.0104657
2	1	0	1	1	341.743	0.726463	0.726859	12.565	2	6.16696	10	0.00913301
2	1	0	1	1	342.643	0.717463	0.717676	11.0301	2	6.17756	10	0.00791602
2	1	0	1	1	343.543	0.708463	0.709976	9.60402	2	6.18682	10	0.00681863
2	1	0	0	1	344.443	0.699463	0.699841	8.28947	2	6.19485	10	0.00580131
2	1	0	0	1	345.343	0.690463	0.692568	7.09091	2	6.20176	10	0.00491094
2	1	0	0	1	346.243	0.681462	0.682434	6.00742	2	6.20764	10	0.00409967
2	1	0	0	1	347.143	0.672462	0.671388	5.02739	2	6.21259	10	0.00337533
2	1	0	0	1	348.073	0.663162	0.661061	4.12545	2	6.21683	11	0.00272717
2	1	0	0	1	348.973	0.654162	0.651665	3.36848	2	6.22019	11	0.00219512
2	1	0	0	1	349.873	0.645162	0.641705	2.71087	2	6.22292	11	0.00173958
2	1	0	0	1	350.773	0.636162	0.634688	2.14383	2	6.22509	11	0.00136066
2	1	0	0	1	351.673	0.627161	0.625616	1.66817	2	6.22679	11	0.00104363
2	1	0	0	1	352.573	0.618161	0.618374	1.27643	2	6.22811	11	0.000789312
2	1	0	0	1	353.473	0.609161	0.609368	0.954698	2	6.2291	11	0.000581762
2	1	0	1	1	354.373	0.600161	0.602121	0.700219	2	6.22984	11	0.000421617
2	1	0	1	1	355.273	0.591161	0.590284	0.498292	2	6.23037	11	0.000294134
2	1	0	1	1	356.203	0.58186	0.581061	0.339511	2	6.23075	12	0.000197277
2	1	0	1	1	357.103	0.57286	0.569332	0.226909	2	6.231	12	0.000129186
2	1	0	1	1	358.003	0.56386	0.563985	0.143507	2	6.23116	12	8.09358e-05
2	1	0	1	1	358.903	0.55486	0.55625	0.0828894	2	6.23125	12	4.61072e-05
2	1	0	1	1	359.803	0.54586	0.54488	0.0396293	2	6.2313	12	2.15932e-05
2	1	0	1	1	360.703	0.53686	0.540339	0.00816845	2	6.23132	12	4.41373e-06
2	1	0	1	1	361.603	0.527859	0.531961	-0.0142705	2	6.23131	12	-7.59137e-06
2	0	0	1	1	362.503	0.518859	0.522017	-0.0316528	2	6.23129	12	-1.65233e-05
2	0	0	1	1	363.403	0.509859	0.510156	-0.0433818	2	6.23125	12	-2.21315e-05
2	0	0	1	1	364.303	0.500859	0.500048	-0.0526362	2	6.23121	12	-2.63207e-05
2	0	0	0	1	365.204	0.491859	0.492546	-0.0599082	2	6.23115	12	-2.95076e-05
2	0	0	0	1	366.104	0.482859	0.48052	-0.0655436	2	6.23109	12	-3.1495e-05
2	0	0	0	1	367.004	0.473858	0.473475	-0.0698924	2	6.23103	12	-3.30923e-05
2	0	0	0	1	367.904	0.464858	0.464884	-0.0732252	2	6.23096	12	-3.40412e-05
2	1	0	0	1	368.804	0.455858	0.45491	-0.0761636	2	6.2309	12	-3.46476e-05
2	1	0	0	1	369.704	0.446858	0.445611	-0.0792079	2	6.23082	12	-3.52959e-05
2	0	0	0	1	370.604	0.437858	0.436467	-0.0810228	2	6.23075	12	-3.53638e-05
2	0	0	0	1	371.504	0.428858	0.429473	-0.0813768	2	6.23067	12	-3.49491e-05
2	0	0	0	1	372.404	0.419857	0.419083	-0.0828065	2	6.2306	12	-3.47028e-05
2	0	0	0	1	373.304	0.410857	0.410682	-0.0837211	2	6.23052	12	-3.43828e-05
2	0	0	0	1	374.204	0.401857	0.401616	-0.0855183	2	6.23044	12	-3.43455e-05
2	0	0	0	1	375.104	0.392857	0.392866	-0.0859127	2	6.23036	12	-3.37522e-05
2	1	0	1	1	376.004	0.383857	0.38423	-0.0864347	2	6.23028	12	-3.32108e-05
2	0	0	1	1	376.904	0.374857	0.376059	-0.0862873	2	6.2302	12	-3.24491e-05
2	0	0	1	1	377.804	0.365856	0.364493	-0.0866855	2	6.23012	12	-3.15963e-05
2	0	0	1	1	378.704	0.356856	0.354096	-0.0876799	2	6.23004	12	-3.10471e-05
2	0	0	1	1	379.604	0.347856	0.348338	-0.0879604	2	6.22996	12	-3.064e-05
2	0	0	1	1	380.504	0.338856	0.340245	-0.0875691	2	6.22988	12	-2.97949e-05
2	0	0	1	1	381.404	0.329856	0.328007	-0.087277	2	6.2298	12	-2.86275e-05
2	0	0	1	1	382.304	0.320856	0.321066	-0.0866601	2	6.22972	12	-2.78236e-05
2	0	0	1	1	383.204	0.311855	0.312489	-0.0854751	2	6.22964	12	-2.671e-05
2	0	0	1	1	384.104	0.302855	0.30495	-0.0842561	2	6.22957	12	-2.56939e-05
2	0	0	1	1	385.004	0.293855	0.294369	-0.0827164	2	6.22949	12	-2.43491e-05
2	0	0	1	1	385.904	0.284855	0.284867	-0.0807968	2	6.22942	12	-2.30163e-05
2	0	0	0	1	386.804	0.275855	0.277392	-0.0781949	2	6.22935	12	-2.16906e-05
2	0	0	0	1	387.704	0.266855	0.268221	-0.0747977	2	6.22928	12	-2.00623e-05
2	0	0	0	1	388.604	0.257854	0.258617	-0.0725393	2	6.22921	12	-1.87599e-05
2	0	0	0	1	389.504	0.248854	0.248318	-0.0698753	2	6.22914	12	-1.73513e-05
2	0	0	0	1	390.404	0.239854	0.238354	-0.0670419	2	6.22908	12	-1.59797e-05
2	0	0	0	1	391.304	0.230854	0.227416	-0.0649591	2	6.22902	12	-1.47727e-05
2	0	0	0	1	392.204	0.221854	0.21712	-0.0625277	2	6.22896	12	-1.3576e-05
2	0	0	0	1	393.104	0.212854	0.209059	-0.0598408	2	6.22891	12	-1.25103e-05
2	0	0	0	1	394.004	0.203853	0.201264	-0.0575932	2	6.22885	12	-1.15914e-05
2	0	0	0	1	394.904	0.194853	0.195101	-0.0543344	2	6.2288	12	-1.06007e-05
2	0	0	0	1	395.804	0.185853	0.185578	-0.0517837	2	6.22875	12	-9.60993e-06
2	0	0	1	1	396.704	0.176853	0.176179	-0.0495344	2	6.2287	12	-8.72693e-06
2	0	0	1	1	397.604	0.167853	0.166288	-0.0480423	2	6.22866	12	-7.98886e-06
2	0	0	1	1	398.504	0.158853	0.157081	-0.0460635	2	6.22862	12	-7.23569e-06
2	0	0	1	1	399.404	0.149852	0.150629	-0.044257	2	6.22858	12	-6.6664e-06
2	0	0	1	1	400.304	0.140852	0.139985	-0.0428882	2	6.22854	12	-6.0037e-06
2	0	0	1	1	401.204	0.131852	0.131415	-0.0406883	2	6.2285	12	-5.34705e-06
2	0	0	1	1	402.104	0.122852	0.122136	-0.0393093	2	6.22846	12	-4.80107e-06
2	0	0	1	1	403.004	0.113852	0.113324	-0.037812	2	6.22843	12	-4.28501e-06
2	0	0	1	1	403.904	0.104852	0.102768	-0.0363059	2	6.22839	12	-3.73107e-06
2	0	0	1	1	404.804	0.0958515	0.0930555	-0.0351905	2	6.22836	12	-3.27467e-06
2	0	0	1	1	405.704	0.0868513	0.0850427	-0.033759	2	6.22833	12	-2.87096e-06
2	0	0	1	1	406.604	0.0778511	0.0763573	-0.0326831	2	6.2283	12	-2.4956e-06
2	0	0	0	1	407.504	0.068851	0.0682766	-0.0316519	2	6.22827	12	-2.16108e-06
2	0	0	0	1	408.404	0.0598508	0.0608726	-0.0306352	2	6.22824	12	-1.86485e-06
2	0	0	0	1	409.304	0.0508506	0.0527028	-0.0303698	2	6.22821	12	-1.60057e-06
2	0	0	0	1	410.204	0.0418505	0.0444376	-0.0296246	2	6.22818	12	-1.31645e-06
2	0	0	0	1	411.104	0.0328503	0.035644	-0.0291964	2	6.22816	12	-1.04068e-06
2	1	0	0	1	412.004	0.0238501	0.0246738	-0.0287167	2	6.22813	12	-7.08552e-07
2	1	0	0	1	412.904	0.01485	0.0153563	-0.0271824	2	6.22811	12	-4.17422e-07
2	0	0	0	1	413.804	0.0058498	0.00474256	-0.0267698	2	6.22808	12	-1.26957e-07
2	0	0	1	0	414.545	0.00154972	0.00319812	-0.025167	3	6.22806	12	-8.04872e-08
2	0	0	1	0	415.445	0.0105499	0.0113096	-0.020457	3	6.22804	12	-2.3136e-07
2	1	0	1	0	416.345	0.0195501	0.0186213	-0.0179724	3	6.22802	12	-3.34669e-07
2	1	0	1	0	417.245	0.0285502	0.0294535	-0.0160887	3	6.22801	12	-4.73869e-07
2	0	0	1	0	418.145	0.0375504	0.037547	-0.0143121	3	6.228	12	-5.37375e-07
2	0	0	1	0	419.045	0.0465506	0.0457497	-0.0132179	3	6.22798	12	-6.04714e-07
2	1	0	1	0	419.945	0.0555507	0.0530232	-0.0124655	3	6.22797	12	-6.60961e-07
2	0	0	1	0	420.845	0.0645509	0.0582441	-0.0107348	3	6.22796	12	-6.25242e-07
2	0	0	0	0	421.745	0.0735511	0.0798259	-0.00957655	3	6.22795	12	-7.64457e-07
2	1	0	0	0	422.645	0.0825512	0.0876118	-0.00968571	3	6.22795	12	-8.48582e-07
2	0	0	0	0	423.545	0.0915514	0.0901681	-0.00882987	3	6.22794	12	-7.96173e-07
2	0	0	0	0	424.445	0.100552	0.0979444	-0.00785517	3	6.22793	12	-7.6937e-07
2	0	0	0	0	425.345	0.109552	0.109317	-0.00710509	3	6.22793	12	-7.76704e-07
2	1	0	0	0	426.245	0.118552	0.116076	-0.00612966	3	6.22792	12	-7.11504e-07
2	1	0	0	0	427.145	0.127552	0.125815	-0.00520301	3	6.22792	12	-6.54619e-07
2	0	0	0	0	428.045	0.136552	0.132884	-0.00414078	3	6.22791	12	-5.50244e-07
2	0	0	0	0	428.945	0.145552	0.143572	-0.00384808	3	6.22791	12	-5.52477e-07
2	0	0	0	0	429.845	0.154553	0.154215	-0.00316343	3	6.22791	12	-4.87847e-07
2	0	0	0	0	430.745	0.163553	0.166716	-0.00201323	3	6.22791	12	-3.35638e-07
2	0	0	0	0	431.645	0.172553	0.172962	-0.000661828	3	6.2279	12	-1.14471e-07
2	0	0	1	0	432.545	0.181553	0.179578	0.000387594	3	6.22791	12	6.96033e-08
2	0	0	1	0	433.445	0.190553	0.192552	0.00166501	3	6.22791	12	3.20602e-07
2	0	0	1	0	434.345	0.199553	0.200055	0.00262243	3	6.22791	12	5.24631e-07
2	1	0	1	0	435.245	0.208554	0.208084	0.00414612	3	6.22791	12	8.62741e-07
2	1	0	1	0	436.145	0.217554	0.214395	0.00511991	3	6.22792	12	1.09768e-06
2	0	0	1	0	437.045	0.226554	0.225524	0.00647835	3	6.22792	12	1.46102e-06
2	0	0	1	0	437.945	0.235554	0.23853	0.00881677	3	6.22793	12	2.10306e-06
2	1	0	1	0	438.845	0.244554	0.239011	0.011085	3	6.22794	12	2.64944e-06
2	1	0	1	0	439.745	0.253554	0.25536	0.0127373	3	6.22795	12	3.2526e-06
2	0	0	1	0	440.645	0.262555	0.25985	0.0139997	3	6.22796	12	3.63782e-06
2	1	0	1	0	441.545	0.271555	0.269043	0.017023	3	6.22798	12	4.57991e-06
2	1	0	1	0	442.445	0.280555	0.282634	0.0195509	3	6.228	12	5.52576e-06
2	1	0	0	0	443.346	0.289555	0.288518	0.0222649	3	6.22802	12	6.42382e-06
2	1	0	0	0	444.246	0.298555	0.298647	0.0257108	3	6.22804	12	7.67845e-06
2	0	0	0	0	445.146	0.307555	0.306681	0.0293589	3	6.22806	12	9.0038e-06
2	1	0	0	0	446.046	0.316556	0.315493	0.0334402	3	6.22809	12	1.05501e-05
2	1	0	0	0	446.946	0.325556	0.322312	0.0378958	3	6.22813	12	1.22143e-05
2	1	0	0	0	447.846	0.334556	0.332064	0.0420387	3	6.22816	12	1.39596e-05
2	1	0	0	0	448.746	0.343556	0.343169	0.046671	3	6.2282	12	1.6016e-05
2	1	0	0	0	449.646	0.352556	0.353969	0.0515945	3	6.22825	12	1.82628e-05
2	1	0	0	0	450.546	0.361556	0.361913	0.0584384	3	6.2283	12	2.11496e-05
2	1	0	0	0	451.446	0.370557	0.37069	0.0649045	3	6.22836	12	2.40595e-05
2	1	0	0	0	452.346	0.379557	0.381041	0.0715877	3	6.22842	12	2.72778e-05
2	1	0	0	0	453.246	0.388557	0.389391	0.0792541	3	6.22849	12	3.08608e-05
2	1	0	1	0	454.146	0.397557	0.396024	0.087107	3	6.22856	12	3.44965e-05
2	1	0	1	0	455.046	0.406557	0.403215	0.0953534	3	6.22865	12	3.84479e-05
2	1	0	1	0	455.946	0.415557	0.414169	0.104031	3	6.22874	12	4.30863e-05
2	1	0	1	0	456.846	0.424558	0.421842	0.112719	3	6.22884	12	4.75498e-05
2	1	0	1	0	457.746	0.433558	0.429994	0.120691	3	6.22894	12	5.18966e-05
2	1	0	1	0	458.646	0.442558	0.441075	0.128029	3	6.22906	12	5.64703e-05
2	1	0	1	0	459.546	0.451558	0.450418	0.134773	3	6.22918	12	6.07039e-05
2	1	0	1	0	460.446	0.460558	0.459348	0.14149	3	6.2293	12	6.49932e-05
2	1	0	1	0	461.346	0.469558	0.470531	0.149614	3	6.22944	12	7.03981e-05
2	1	0	1	0	462.246	0.478559	0.477186	0.157383	3	6.22958	12	7.5101e-05
2	1	0	1	0	463.146	0.487559	0.487516	0.165311	3	6.22972	12	8.05918e-05
2	1	0	0	0	464.046	0.496559	0.495357	0.173034	3	6.22988	12	8.57136e-05
2	1	0	0	0	464.946	0.505559	0.504501	0.180824	3	6.23004	12	9.12259e-05
2	1	0	0	0	465.846	0.514559	0.514447	0.188635	3	6.23021	12	9.70425e-05
2	1	0	0	0	466.746	0.523559	0.525751	0.196653	3	6.23038	12	0.000103391
2	1	0	0	0	467.646	0.53256	0.534136	0.206303	3	6.23057	12	0.000110194
2	1	0	0	0	468.546	0.54156	0.543294	0.21787	3	6.23076	12	0.000118367
2	1	0	0	0	469.446	0.55056	0.551827	0.230658	3	6.23097	12	0.000127284
2	1	0	0	0	470.346	0.55956	0.560756	0.247781	3	6.23118	12	0.000138944
2	1	0	0	0	471.246	0.56856	0.568432	0.27219	3	6.23142	12	0.000154722
2	1	0	0	0	472.146	0.57756	0.577426	0.307613	3	6.23168	12	0.000177624
2	1	0	0	0	473.046	0.586561	0.582517	0.36268	3	6.23198	12	0.000211267
2	1	0	0	0	473.946	0.595561	0.591524	0.445662	3	6.23235	12	0.00026362
2	1	0	1	0	474.846	0.604561	0.601467	0.567921	3	6.2328	12	0.000341586
2	1	0	1	0	475.746	0.613561	0.61179	0.739657	3	6.23339	12	0.000452515
2	1	0	1	0	476.676	0.622861	0.62411	0.982905	3	6.23419	11	0.000613441
2	1	0	1	0	477.576	0.631861	0.631696	1.29664	3	6.23522	11	0.000819084
2	1	0	1	0	478.476	0.640862	0.642271	1.69355	3	6.23656	11	0.00108772
2	1	0	1	0	479.376	0.649862	0.652095	2.19144	3	6.2383	11	0.00142902
2	1	0	1	0	480.276	0.658862	0.660849	2.79798	3	6.24055	11	0.00184904
2	1	0	1	0	481.176	0.667862	0.667843	3.51942	3	6.24339	11	0.00235042
2	1	0	1	0	482.076	0.676862	0.676598	4.37016	3	6.24693	11	0.00295684
2	1	0	1	0	482.976	0.685862	0.68502	5.34623	3	6.2513	11	0.00366228
2	1	0	1	0	483.876	0.694863	0.694376	6.45924	3	6.25661	11	0.00448514
2	1	0	1	0	484.776	0.703863	0.704161	7.69926	3	6.26298	11	0.00542152
2	1	0	0	0	485.676	0.712863	0.713465	9.0735	3	6.27053	11	0.00647363
2	1	0	0	0	486.576	0.721863	0.719439	10.5722	3	6.27937	11	0.00760608
2	1	0	0	0	487.506	0.731163	0.732518	12.2678	3	6.29	10	0.00898636
2	1	0	0	0	488.406	0.740163	0.738219	14.0215	3	6.30183	10	0.0103509
2	1	0	0	0	489.306	0.749164	0.74908	15.8865	3	6.31528	10	0.0119003
2	1	0	0	0	490.206	0.758164	0.75755	17.8705	3	6.33047	10	0.0135378
2	1	0	0	0	491.106	0.767164	0.764996	19.9635	3	6.3475	10	0.015272
2	1	0	0	0	492.006	0.776164	0.777665	22.1904	3	6.36647	10	0.0172567
2	1	0	0	0	492.906	0.785164	0.788116	24.4739	3	6.38747	10	0.0192883
2	1	0	0	0	493.806	0.794164	0.792408	26.9143	3	6.41061	10	0.0213271
2	1	0	0	0	494.706	0.803165	0.805257	29.4673	3	6.43601	10	0.0237287
2	1	0	1	0	495.607	0.812165	0.811815	32.0708	3	6.46371	10	0.0260355
2	1	0	1	0	496.507	0.821165	0.82301	34.7921	3	6.49382	10	0.0286342
2	1	0	1	0	497.407	0.830165	0.82943	37.6293	3	6.52642	10	0.0312109
2	1	0	1	0	498.307	0.839165	0.839237	40.4605	3	6.56158	10	0.0339559
2	1	0	1	0	499.207	0.848165	0.851954	43.5112	3	6.59935	10	0.0370695
2	1	0	1	0	500.107	0.857166	0.855537	46.6608	3	6.63992	10	0.03992
2	1	0	1	0	501.007	0.866166	0.865884	49.7915	3	6.68336	10	0.0431136
2	1	0	1	0	501.907	0.875166	0.873701	53.0041	3	6.72963	10	0.0463097
2	1	0	1	0	502.807	0.884166	0.878968	56.1914	3	6.7788	10	0.0493904
2	1	0	1	0	503.707	0.893166	0.891436	59.471	3	6.83086	10	0.0530146
2	1	0	1	0	504.607	0.902166	0.901716	62.8264	3	6.88595	10	0.0566516
2	1	0	1	0	505.507	0.911167	0.908469	66.2396	3	6.94405	10	0.0601766
2	1	0	0	0	506.407	0.920167	0.921997	69.8538	3	7.00534	10	0.064405
2	1	0	0	0	507.307	0.929167	0.932901	73.2458	3	7.06977	10	0.0683311
2	1	0	0	0	508.207	0.938167	0.942663	76.5732	3	7.1372	10	0.0721828
2	1	0	0	0	509.107	0.947167	0.952628	80.1363	3	7.20768	10	0.0763401
2	1	0	0	0	510.007	0.956167	0.957255	83.7057	3	7.28144	10	0.0801276
2	1	0	0	0	510.907	0.965168	0.965394	86.9405	3	7.35821	10	0.0839318
2	1	0	0	0	511.807	0.974168	0.973289	90.3601	3	7.43806	10	0.0879465
2	1	0	0	0	512.707	0.983168	0.982902	94.2033	3	7.52117	10	0.0925927
2	1	0	0	0	513.607	0.992168	0.989577	97.6601	3	7.6075	10	0.0966421
2	1	0	1	0	514.392	1.00002	0.997114	101.186	3	7.68564	10	0.100894
2	1	0	1	0	515.247	0.991468	0.991082	97.1943	3	7.77059	10	0.0963275
2	1	0	1	0	516.147	0.982468	0.981722	92.8427	3	7.85606	10	0.0911457
2	1	0	1	0	517.047	0.973468	0.974127	89.2411	3	7.93796	10	0.0869321
2	1	0	1	0	517.947	0.964468	0.965467	85.5136	3	8.01656	10	0.0825605
2	1	0	1	0	518.847	0.955467	0.95676	81.697	3	8.09172	10	0.0781645
2	1	0	1	0	519.747	0.946467	0.945487	78.021	3	8.16353	10	0.0737678
2	1	0	1	0	520.647	0.937467	0.937413	74.2244	3	8.23203	10	0.0695789
2	1	0	1	0	521.547	0.928467	0.928702	70.736	3	8.29726	10	0.0656926
2	1	0	1	0	522.447	0.919467	0.919269	67.1767	3	8.35929	10	0.0617534
2	1	0	0	0	523.348	0.910467	0.911005	63.7585	3	8.41825	10	0.0580844
2	1	0	0	0	524.248	0.901466	0.902816	60.4459	3	8.47413	10	0.0545715
2	1	0	0	0	525.148	0.892466	0.891476	57.1644	3	8.52709	10	0.0509607
2	1	0	0	0	526.048	0.883466	0.883299	53.9717	3	8.57707	10	0.0476732
2	1	0	0	0	526.948	0.874466	0.875769	50.7608	3	8.62414	10	0.0444548
2	1	0	0	0	527.848	0.865466	0.864794	47.6927	3	8.66843	10	0.0412444
2	1	0	0	0	528.748	0.856466	0.854598	44.7197	3	8.70999	10	0.0382173
2	1	0	0	0	529.648	0.847465	0.843731	41.9143	3	8.74894	10	0.0353644
2	1	0	0	0	530.548	0.838465	0.83532	39.0317	3	8.78533	10	0.0326039
2	1	0	0	0	531.448	0.829465	0.827865	36.3406	3	8.81925	10	0.0300851
2	1	0	0	0	532.348	0.820465	0.819859	33.6135	3	8.85071	10	0.0275584
2	1	0	1	0	533.248	0.811466	0.81188	30.9914	3	8.87977	10	0.0251613
2	1	0	1	0	534.148	0.802465	0.803699	28.5078	3	8.90654	10	0.0229117
2	1	0	1	0	535.048	0.793464	0.794979	26.1055	3	8.93111	10	0.0207533
2	1	0	1	0	535.948	0.784464	0.787821	23.8273	3	8.95356	10	0.0187717
2	1	0	1	0	536.848	0.775464	0.778339	21.6343	3	8.974	10	0.0168388
2	1	0	1	0	537.748	0.766464	0.765871	19.5647	3	8.99252	10	0.0149841
2	1	0	1	0	538.648	0.757464	0.755242	17.5601	3	9.0092	10	0.0132621
2	1	0	1	0	539.548	0.748464	0.747733	15.7083	3	9.02416	10	0.0117457
2	1	0	1	0	540.448	0.739463	0.739768	13.9666	3	9.03749	10	0.0103321
2	1	0	1	0	541.348	0.730463	0.727948	12.3292	3	9.0493	10	0.00897501
2	1	0	1	0	542.248	0.721463	0.713402	10.7909	3	9.05968	10	0.00769826
2	1	0	1	0	543.148	0.712463	0.710908	9.38653	3	9.06875	10	0.00667295
2	1	0	0	0	544.048	0.703463	0.701831	8.10725	3	9.0766	10	0.00568992
2	1	0	0	0	544.948	0.694463	0.69461	6.91612	3	9.08335	10	0.00480401
2	1	0	0	0	545.848	0.685462	0.687769	5.85586	3	9.08909	10	0.00402748
2	1	0	0	0	546.748	0.676462	0.683983	4.91287	3	9.09392	10	0.00336032
2	1	0	0	0	547.678	0.667162	0.672746	4.03044	3	9.09807	11	0.00271146
2	1	0	0	0	548.578	0.658162	0.660202	3.29681	3	9.10135	11	0.00217656
2	1	0	0	0	549.478	0.649162	0.647117	2.66016	3	9.10402	11	0.00172143
2	1	0	0	0	550.378	0.640162	0.636195	2.1135	3	9.10615	11	0.0013446
2	1	0	0	0	551.278	0.631161	0.627767	1.65481	3	9.10784	11	0.00103884
2	1	0	0	0	552.178	0.622161	0.619607	1.27365	3	9.10914	11	0.00078916
2	1	0	0	0	553.078	0.613161	0.610051	0.961391	3	9.11014	11	0.000586498
2	1	0	0	0	553.978	0.604161	0.602486	0.709617	3	9.11088	11	0.000427535
2	1	0	1	0	554.878	0.595161	0.598074	0.513337	3	9.11143	11	0.000307013
2	1	0	1	0	555.808	0.58586	0.584411	0.35433	3	9.11182	12	0.000207074
2	1	0	1	0	556.708	0.57686	0.573945	0.239175	3	9.11209	12	0.000137273
2	1	0	1	0	557.608	0.56786	0.56614	0.153863	3	9.11226	12	8.71078e-05
2	1	0	1	0	558.508	0.55886	0.558325	0.0915775	3	9.11236	12	5.11301e-05
2	1	0	1	0	559.408	0.54986	0.548672	0.0462596	3	9.11242	12	2.53813e-05
2	1	0	1	0	560.308	0.54086	0.540746	0.0132235	3	9.11245	12	7.15055e-06
2	1	0	1	0	561.208	0.53186	0.531382	-0.0107765	3	9.11244	12	-5.72645e-06
2	1	0	1	0	562.108	0.522859	0.52341	-0.0284903	3	9.11242	12	-1.49121e-05
2	1	0	1	0	563.008	0.513859	0.515504	-0.0418542	3	9.11239	12	-2.1576e-05
2	1	0	1	0	563.908	0.504859	0.503711	-0.0512592	3	9.11234	12	-2.58199e-05
2	1	0	1	0	564.808	0.495859	0.49588	-0.058819	3	9.11229	12	-2.91671e-05
2	1	0	0	0	565.708	0.486859	0.487917	-0.0651587	3	9.11224	12	-3.1792e-05
2	1	0	0	0	566.608	0.477859	0.477002	-0.0691756	3	9.11217	12	-3.29969e-05
2	1	0	0	0	567.508	0.468858	0.469344	-0.07276	3	9.11211	12	-3.41495e-05
2	0	0	0	0	568.408	0.459858	0.460385	-0.0753893	3	9.11204	12	-3.47081e-05
2	1	0	0	0	569.308	0.450858	0.450552	-0.0775094	3	9.11197	12	-3.4922e-05
2	1	0	0	0	570.208	0.441858	0.442297	-0.0791518	3	9.1119	12	-3.50086e-05
2	0	0	0	0	571.108	0.432858	0.431145	-0.0806628	3	9.11182	12	-3.47774e-05
2	0	0	0	0	572.008	0.423858	0.425494	-0.0821364	3	9.11175	12	-3.49486e-05
2	0	0	0	0	572.908	0.414857	0.416007	-0.082982	3	9.11167	12	-3.45211e-05
2	0	0	0	0	573.808	0.405857	0.408305	-0.0842349	3	9.11159	12	-3.43935e-05
2	0	0	0	0	574.708	0.396857	0.397058	-0.0854505	3	9.11152	12	-3.39288e-05
2	0	0	1	0	575.609	0.387857	0.389567	-0.0864488	3	9.11144	12	-3.36776e-05
2	0	0	1	0	576.509	0.378857	0.379093	-0.0873355	3	9.11136	12	-3.31083e-05
2	0	0	1	0	577.409	0.369857	0.368674	-0.0875572	3	9.11128	12	-3.228e-05
2	0	0	1	0	578.309	0.360856	0.360362	-0.0880795	3	9.1112	12	-3.17405e-05
2	0	0	1	0	579.209	0.351856	0.353487	-0.0878326	3	9.11112	12	-3.10477e-05
2	0	0	1	0	580.109	0.342856	0.344066	-0.0876589	3	9.11103	12	-3.01604e-05
2	0	0	1	0	581.009	0.333856	0.333982	-0.0877859	3	9.11095	12	-2.93189e-05
2	0	0	1	0	581.909	0.324856	0.325221	-0.086785	3	9.11088	12	-2.82243e-05
2	0	0	1	0	582.809	0.315856	0.315174	-0.0862433	3	9.1108	12	-2.71817e-05
2	1	0	1	0	583.709	0.306855	0.304928	-0.0847975	3	9.11072	12	-2.58571e-05
2	1	0	1	0	584.609	0.297855	0.297691	-0.0831093	3	9.11064	12	-2.47409e-05
2	1	0	1	0	585.509	0.288855	0.289071	-0.0812591	3	9.11057	12	-2.34896e-05
2	0	0	0	0	586.409	0.279855	0.28072	-0.0795217	3	9.11049	12	-2.23234e-05
2	0	0	0	0	587.309	0.270855	0.271865	-0.0771538	3	9.11042	12	-2.09754e-05
2	0	0	0	0	588.209	0.261855	0.262745	-0.0747298	3	9.11035	12	-1.96349e-05
2	0	0	0	0	589.109	0.252854	0.2551	-0.0727904	3	9.11028	12	-1.85689e-05
2	0	0	0	0	590.009	0.243854	0.243503	-0.0703385	3	9.11022	12	-1.71277e-05
2	0	0	0	0	590.909	0.234854	0.231773	-0.0675024	3	9.11016	12	-1.56452e-05
2	0	0	0	0	591.809	0.225854	0.2221	-0.0651604	3	9.1101	12	-1.44721e-05
2	0	0	0	0	592.709	0.216854	0.213252	-0.0628391	3	9.11004	12	-1.34006e-05
2	0	0	0	0	593.609	0.207854	0.206277	-0.0602684	3	9.10998	12	-1.2432e-05
2	0	0	0	0	594.509	0.198853	0.197098	-0.057726	3	9.10993	12	-1.13777e-05
2	0	0	0	0	595.409	0.189853	0.190051	-0.0555906	3	9.10988	12	-1.0565e-05
2	0	0	0	0	596.309	0.180853	0.18043	-0.0531538	3	9.10983	12	-9.59053e-06
2	0	0	1	0	597.209	0.171853	0.175219	-0.0510077	3	9.10978	12	-8.93753e-06
2	0	0	1	0	598.109	0.162853	0.165137	-0.049218	3	9.10974	12	-8.12771e-06
2	0	0	1	0	599.009	0.153853	0.154158	-0.0471703	3	9.10969	12	-7.27169e-06
2	0	0	1	0	599.909	0.144852	0.145603	-0.0455626	3	9.10965	12	-6.63407e-06
2	1	0	1	0	600.809	0.135852	0.135904	-0.043744	3	9.10961	12	-5.94498e-06
2	1	0	1	0	601.709	0.126852	0.126868	-0.0420941	3	9.10957	12	-5.34038e-06
2	1	0	1	0	602.609	0.117852	0.116983	-0.040662	3	9.10953	12	-4.75675e-06
2	1	0	1	0	603.509	0.108852	0.10853	-0.0388769	3	9.1095	12	-4.2193e-06
2	1	0	1	0	604.409	0.0998515	0.097343	-0.037641	3	9.10946	12	-3.66409e-06
2	1	0	1	0	605.309	0.0908514	0.0893206	-0.0360765	3	9.10943	12	-3.22237e-06
2	1	0	1	0	606.209	0.0818512	0.0818944	-0.0349091	3	9.10939	12	-2.85886e-06
2	0	0	1	0	607.109	0.0728501	0.0729128	-0.0343199	3	9.10936	12	-2.50236e-06
2	0	0	0	0	608.009	0.0638509	0.0633548	-0.0326739	3	9.10933	12	-2.07005e-06
2	0	0	0	0	608.909	0.0548507	0.0556082	-0.0319594	3	9.1093	12	-1.7772e-06
2	0	0	0	0	609.809	0.0458505	0.0434808	-0.0312457	3	9.10927	12	-1.35859e-06
2	0	0	0	0	610.709	0.0368504	0.0351964	-0.0306945	3	9.10924	12	-1.08034e-06
2	1	0	0	0	611.609	0.0278502	0.0256837	-0.0304104	3	9.10922	12	-7.81051e-07
2	0	0	0	0	612.509	0.01885	0.0173537	-0.029608	3	9.10919	12	-5.13808e-07
2	0	0	0	0	613.409	0.00984987	0.00898764	-0.029475	3	9.10916	12	-2.64911e-07
2	0	0	0	0	614.309	0.000849706	0.00476908	-0.0289651	3	9.10913	12	-1.38137e-07
2	0	0	0	1	615.05	-0.00655043	-0.00236333	-0.0284847	3	9.10911	12	6.73188e-08
2	0	0	0	1	615.95	-0.0155506	-0.0152153	-0.0282898	3	9.10909	12	4.30437e-07
2	0	0	0	1	616.85	-0.0245508	-0.0244087	-0.028021	3	9.10906	12	6.83956e-07
2	0	0	1	1	617.75	-0.0335505	-0.0342458	-0.027698	3	9.10903	12	9.48538e-07
2	0	0	1	1	618.65	-0.0425511	-0.043537	-0.0277827	3	9.10901	12	1.20958e-06
2	0	0	1	1	619.55	-0.0515513	-0.0521269	-0.0276017	3	9.10898	12	1.43879e-06
2	0	0	1	1	620.45	-0.0605515	-0.0604664	-0.0277346	3	9.10896	12	1.67701e-06
2	0	0	1	1	621.35	-0.0695516	-0.068929	-0.0281988	3	9.10893	12	1.94372e-06
2	1	0	1	1	622.25	-0.0785518	-0.0789	-0.0286188	3	9.10891	12	2.25802e-06
2	0	0	1	1	623.15	-0.087552	-0.0848613	-0.0292238	3	9.10888	12	2.47997e-06
2	0	0	1	1	624.05	-0.0965521	-0.0974544	-0.0299564	3	9.10885	12	2.91938e-06
2	0	0	1	1	624.95	-0.105552	-0.105892	-0.0306017	3	9.10883	12	3.24046e-06
2	0	0	1	1	625.85	-0.114552	-0.11621	-0.0313396	3	9.1088	12	3.64199e-06
2	0	0	1	1	626.75	-0.123553	-0.123862	-0.0325665	3	9.10877	12	4.03373e-06
2	0	0	1	1	627.65	-0.132553	-0.13609	-0.0337641	3	9.10874	12	4.59494e-06
2	0	0	0	1	628.55	-0.141553	-0.143987	-0.0349576	3	9.1087	12	5.03343e-06
2	0	0	1	1	628.788	-0.144003	-0.147205	-0.036312	3	9.1087	12	5.34531e-06