File: Data_Lola/CoNiFeNx_400ºC_24h_13102022/Electrodes_19012023/2023_01_20_CoNiFeNx_400ºC_24h_electrode2_19012023_1_03_CP_C01.mpt
EC-Lab ASCII FILE
Nb header lines : 52

Chronopotentiometry

Run on channel : 1 (SN 21648)
User :
CE vs. WE compliance from -10 V to 10 V
Electrode connection : standard
Potential control : Ewe
Ewe ctrl range : min = -2.50 V, max = 2.50 V
Safety Limits :
	Do not start on E overload
Acquisition started on : 01/20/2023 13:04:21.533
Loaded Setting File :  NONE
Saved on :
	File : 2023_01_20_CoNiFeNx_400ºC_24h_electrode2_19012023_1_03_CP_C01.mpr
	Directory : C:\Users\grupogalan\Documents\EC-Lab\Data\Lole Jurado\
	Host : 169.254.104.159
Device : VSP (SN 1176)
Address : USB
EC-Lab for windows v11.46 (software)
Internet server v11.40 (firmware)
Command interpretor v11.40 (firmware)
Electrode material :
Initial state :
Electrolyte :
Comments :
Electrode surface area : 0.000 cm²
Characteristic mass : 0.001 g
Equivalent Weight : 0.000 g/eq.
Density : 0.000 g/cm3
Volume (V) : 0.001 cm³
Cycle Definition : Charge/Discharge alternance
Is                  10.000
unit Is             mA
vs.                 <None>
ts (h:m:s)          2:00:0.0000
EM (V)              pass
dQM                 20.000
unit dQM            mA.h
record              <Ewe>
dEs (mV)            0.00
dts (s)             1.0000
E range min (V)     -2.500
E range max (V)     2.500
I Range             10 mA
Bandwidth           5
goto Ns'            0
nc cycles           0

mode	ox/red	error	control changes	Ns changes	counter inc.	Ns	time/s	control/mA	<Ewe>/V	I/mA	dQ/C	(Q-Qo)/C	half cycle	Q charge/discharge/mA.h	I Range	Energy charge/W.h	Energy discharge/W.h	Capacitance charge/µF	Capacitance discharge/µF	Q discharge/mA.h	Q charge/mA.h	Capacity/mA.h	Efficiency/%	cycle number	P/W
1	1	0	0	0	0	0	946.96	10	0.72713	9.9998	0.00947616	0.00947616	0	0.00263227	11	1.914e-06	0.000000000000000E+000	0.000000000000000E+000	0.000000000000000E+000	0.000000000000000E+000	0.00263227	0.00263227	0.0000000E+000	0.000000000000000E+000	0.00727115
1	1	0	0	0	0	0	979.96	10	0.726834	9.99992	0.339481	0.339481	0	0.0943004	11	6.87056e-05	0.000000000000000E+000	1.14599e+09	0.000000000000000E+000	0.000000000000000E+000	0.0943004	0.0943004	0.0000000E+000	0.000000000000000E+000	0.00726828
1	1	0	0	0	0	0	1012.96	10	0.726643	10.0005	0.669486	0.669486	0	0.185968	11	0.000135308	0.000000000000000E+000	1.37312e+09	0.000000000000000E+000	0.000000000000000E+000	0.185968	0.185968	0.0000000E+000	0.000000000000000E+000	0.00726679
1	1	0	0	0	0	0	1045.96	10	0.726903	10.0004	0.99949	0.99949	0	0.277636	11	0.000201914	0.000000000000000E+000	4.40122e+09	0.000000000000000E+000	0.000000000000000E+000	0.277636	0.277636	0.0000000E+000	0.000000000000000E+000	0.0072693
1	1	0	0	0	0	0	1078.96	10	0.727355	10.0006	1.32949	1.32949	0	0.369304	11	0.000268559	0.000000000000000E+000	5.92278e+09	0.000000000000000E+000	0.000000000000000E+000	0.369304	0.369304	0.0000000E+000	0.000000000000000E+000	0.007274
1	1	0	0	0	0	0	1111.96	10	0.728116	9.99929	1.6595	1.6595	0	0.460972	11	0.00033526	0.000000000000000E+000	1.6834e+09	0.000000000000000E+000	0.000000000000000E+000	0.460972	0.460972	0.0000000E+000	0.000000000000000E+000	0.00728064
1	1	0	0	0	0	0	1144.96	10	0.728725	10.0005	1.9895	1.9895	0	0.552639	11	0.000402022	0.000000000000000E+000	1.24737e+09	0.000000000000000E+000	0.000000000000000E+000	0.552639	0.552639	0.0000000E+000	0.000000000000000E+000	0.00728761
1	1	0	0	0	0	0	1177.96	10	0.729504	9.99973	2.31951	2.31951	0	0.644307	11	0.000468866	0.000000000000000E+000	9.77146e+08	0.000000000000000E+000	0.000000000000000E+000	0.644307	0.644307	0.0000000E+000	0.000000000000000E+000	0.00729485
1	1	0	0	0	0	0	1210.96	10	0.730399	9.99992	2.64951	2.64951	0	0.735975	11	0.000535788	0.000000000000000E+000	8.10565e+08	0.000000000000000E+000	0.000000000000000E+000	0.735975	0.735975	0.0000000E+000	0.000000000000000E+000	0.00730393
1	1	0	0	0	0	0	1243.96	10	0.731484	10.0001	2.97951	2.97951	0	0.827642	11	0.000602795	0.000000000000000E+000	6.84419e+08	0.000000000000000E+000	0.000000000000000E+000	0.827642	0.827642	0.0000000E+000	0.000000000000000E+000	0.00731492
1	1	0	0	0	0	0	1276.96	10	0.732718	10.0003	3.30952	3.30952	0	0.91931	11	0.000669901	0.000000000000000E+000	5.9228e+08	0.000000000000000E+000	0.000000000000000E+000	0.91931	0.91931	0.0000000E+000	0.000000000000000E+000	0.0073274
1	1	0	0	0	0	0	1309.96	10	0.733487	10	3.63952	3.63952	0	1.01098	11	0.000737103	0.000000000000000E+000	5.7258e+08	0.000000000000000E+000	0.000000000000000E+000	1.01098	1.01098	0.0000000E+000	0.000000000000000E+000	0.0073349
1	1	0	0	0	0	0	1342.96	10	0.734775	10.0007	3.96953	3.96953	0	1.10265	11	0.0008044	0.000000000000000E+000	5.19243e+08	0.000000000000000E+000	0.000000000000000E+000	1.10265	1.10265	0.0000000E+000	0.000000000000000E+000	0.00734825
1	1	0	0	0	0	0	1375.96	10	0.735821	9.99973	4.29953	4.29953	0	1.19431	11	0.0008718	0.000000000000000E+000	4.94734e+08	0.000000000000000E+000	0.000000000000000E+000	1.19431	1.19431	0.0000000E+000	0.000000000000000E+000	0.00735801
1	1	0	0	0	0	0	1408.96	10	0.737032	9.99992	4.62953	4.62953	0	1.28598	11	0.000939302	0.000000000000000E+000	4.67538e+08	0.000000000000000E+000	0.000000000000000E+000	1.28598	1.28598	0.0000000E+000	0.000000000000000E+000	0.00737027
1	1	0	0	0	0	0	1441.96	10	0.738282	10.0007	4.95954	4.95954	0	1.37765	11	0.00100691	0.000000000000000E+000	4.44723e+08	0.000000000000000E+000	0.000000000000000E+000	1.37765	1.37765	0.0000000E+000	0.000000000000000E+000	0.00738333
1	1	0	0	0	0	0	1474.96	10	0.739117	9.99922	5.28954	5.28954	0	1.46932	11	0.00107463	0.000000000000000E+000	4.41272e+08	0.000000000000000E+000	0.000000000000000E+000	1.46932	1.46932	0.0000000E+000	0.000000000000000E+000	0.0073906
1	1	0	0	0	0	0	1507.96	10	0.74051	9.9998	5.61955	5.61955	0	1.56098	11	0.00114245	0.000000000000000E+000	4.20002e+08	0.000000000000000E+000	0.000000000000000E+000	1.56098	1.56098	0.0000000E+000	0.000000000000000E+000	0.00740495
1	1	0	0	0	0	0	1540.96	10	0.741611	9.9998	5.94955	5.94955	0	1.65265	11	0.00121038	0.000000000000000E+000	4.10848e+08	0.000000000000000E+000	0.000000000000000E+000	1.65265	1.65265	0.0000000E+000	0.000000000000000E+000	0.00741596
1	1	0	0	0	0	0	1573.96	10	0.742882	10.0011	6.27955	6.27955	0	1.74432	11	0.00127843	0.000000000000000E+000	3.98646e+08	0.000000000000000E+000	0.000000000000000E+000	1.74432	1.74432	0.0000000E+000	0.000000000000000E+000	0.00742962
1	1	0	0	0	0	0	1606.96	10	0.744259	10.0003	6.60956	6.60956	0	1.83599	11	0.00134659	0.000000000000000E+000	3.85872e+08	0.000000000000000E+000	0.000000000000000E+000	1.83599	1.83599	0.0000000E+000	0.000000000000000E+000	0.00744282
1	1	0	0	0	0	0	1639.96	10	0.745281	10.0001	6.93956	6.93956	0	1.92766	11	0.00141486	0.000000000000000E+000	3.82323e+08	0.000000000000000E+000	0.000000000000000E+000	1.92766	1.92766	0.0000000E+000	0.000000000000000E+000	0.0074529
1	1	0	0	0	0	0	1672.96	10	0.746562	9.99967	7.26956	7.26956	0	2.01932	11	0.00148323	0.000000000000000E+000	3.74114e+08	0.000000000000000E+000	0.000000000000000E+000	2.01932	2.01932	0.0000000E+000	0.000000000000000E+000	0.00746537
1	1	0	0	0	0	0	1705.96	10	0.747707	10.0004	7.59957	7.59957	0	2.11099	11	0.00155171	0.000000000000000E+000	3.69323e+08	0.000000000000000E+000	0.000000000000000E+000	2.11099	2.11099	0.0000000E+000	0.000000000000000E+000	0.00747735
1	1	0	0	0	0	0	1738.96	10	0.748722	10.0002	7.92957	7.92957	0	2.20266	11	0.0016203	0.000000000000000E+000	3.67251e+08	0.000000000000000E+000	0.000000000000000E+000	2.20266	2.20266	0.0000000E+000	0.000000000000000E+000	0.0074874
1	1	0	0	0	0	0	1771.96	10	0.749827	10	8.25957	8.25957	0	2.29433	11	0.00168899	0.000000000000000E+000	3.63915e+08	0.000000000000000E+000	0.000000000000000E+000	2.29433	2.29433	0.0000000E+000	0.000000000000000E+000	0.0074983
1	1	0	0	0	0	0	1804.96	10	0.750908	9.99967	8.58958	8.58958	0	2.38599	11	0.00175778	0.000000000000000E+000	3.61245e+08	0.000000000000000E+000	0.000000000000000E+000	2.38599	2.38599	0.0000000E+000	0.000000000000000E+000	0.00750883
1	1	0	0	0	0	0	1837.96	10	0.751983	10.0001	8.91958	8.91958	0	2.47766	11	0.00182667	0.000000000000000E+000	3.58892e+08	0.000000000000000E+000	0.000000000000000E+000	2.47766	2.47766	0.0000000E+000	0.000000000000000E+000	0.00751992
1	1	0	0	0	0	0	1870.96	10	0.753176	10.0001	9.24958	9.24958	0	2.56933	11	0.00189565	0.000000000000000E+000	3.55134e+08	0.000000000000000E+000	0.000000000000000E+000	2.56933	2.56933	0.0000000E+000	0.000000000000000E+000	0.00753184
1	1	0	0	0	0	0	1903.96	10	0.753992	10.0007	9.57959	9.57959	0	2.661	11	0.00196474	0.000000000000000E+000	3.56621e+08	0.000000000000000E+000	0.000000000000000E+000	2.661	2.661	0.0000000E+000	0.000000000000000E+000	0.00754049
1	1	0	0	0	0	0	1936.96	10	0.755006	10.0006	9.90959	9.90959	0	2.75266	11	0.00203391	0.000000000000000E+000	3.55495e+08	0.000000000000000E+000	0.000000000000000E+000	2.75266	2.75266	0.0000000E+000	0.000000000000000E+000	0.00755053
1	1	0	0	0	0	0	1969.96	10	0.755975	10.0001	10.2396	10.2396	0	2.84433	11	0.00210318	0.000000000000000E+000	3.54993e+08	0.000000000000000E+000	0.000000000000000E+000	2.84433	2.84433	0.0000000E+000	0.000000000000000E+000	0.00755983
1	1	0	0	0	0	0	2002.96	10	0.756875	10.0004	10.5696	10.5696	0	2.936	11	0.00217252	0.000000000000000E+000	3.55344e+08	0.000000000000000E+000	0.000000000000000E+000	2.936	2.936	0.0000000E+000	0.000000000000000E+000	0.00756903
1	1	0	0	0	0	0	2035.96	10	0.757982	10.0002	10.8996	10.8996	0	3.02767	11	0.00224196	0.000000000000000E+000	3.5329e+08	0.000000000000000E+000	0.000000000000000E+000	3.02767	3.02767	0.0000000E+000	0.000000000000000E+000	0.00758
1	1	0	0	0	0	0	2068.96	10	0.758903	9.99948	11.2296	11.2296	0	3.11934	11	0.00231148	0.000000000000000E+000	3.53431e+08	0.000000000000000E+000	0.000000000000000E+000	3.11934	3.11934	0.0000000E+000	0.000000000000000E+000	0.00758864
1	1	0	0	0	0	0	2101.96	10	0.759756	10.0001	11.5596	11.5596	0	3.211	11	0.00238109	0.000000000000000E+000	3.54306e+08	0.000000000000000E+000	0.000000000000000E+000	3.211	3.211	0.0000000E+000	0.000000000000000E+000	0.00759765
1	1	0	0	0	0	0	2134.96	10	0.760819	9.99999	11.8896	11.8896	0	3.30267	11	0.00245079	0.000000000000000E+000	3.52925e+08	0.000000000000000E+000	0.000000000000000E+000	3.30267	3.30267	0.0000000E+000	0.000000000000000E+000	0.00760818
1	1	0	0	0	0	0	2167.96	10	0.761812	10.0013	12.2196	12.2196	0	3.39434	11	0.00252057	0.000000000000000E+000	3.52332e+08	0.000000000000000E+000	0.000000000000000E+000	3.39434	3.39434	0.0000000E+000	0.000000000000000E+000	0.00761908
1	1	0	0	0	0	0	2200.96	10	0.762722	10.0004	12.5496	12.5496	0	3.48601	11	0.00259045	0.000000000000000E+000	3.526e+08	0.000000000000000E+000	0.000000000000000E+000	3.48601	3.48601	0.0000000E+000	0.000000000000000E+000	0.0076275
1	1	0	0	0	0	0	2233.96	10	0.763544	9.99967	12.8796	12.8796	0	3.57767	11	0.00266041	0.000000000000000E+000	3.53703e+08	0.000000000000000E+000	0.000000000000000E+000	3.57767	3.57767	0.0000000E+000	0.000000000000000E+000	0.00763519
1	1	0	0	0	0	0	2266.96	10	0.764519	9.99973	13.2096	13.2096	0	3.66934	11	0.00273045	0.000000000000000E+000	3.53307e+08	0.000000000000000E+000	0.000000000000000E+000	3.66934	3.66934	0.0000000E+000	0.000000000000000E+000	0.00764498
1	1	0	0	0	0	0	2299.96	10	0.765361	10.0008	13.5396	13.5396	0	3.76101	11	0.00280058	0.000000000000000E+000	3.54153e+08	0.000000000000000E+000	0.000000000000000E+000	3.76101	3.76101	0.0000000E+000	0.000000000000000E+000	0.00765423
1	1	0	0	0	0	0	2332.96	10	0.766289	10.0004	13.8696	13.8696	0	3.85268	11	0.00287079	0.000000000000000E+000	3.54194e+08	0.000000000000000E+000	0.000000000000000E+000	3.85268	3.85268	0.0000000E+000	0.000000000000000E+000	0.00766321
1	1	0	0	0	0	0	2365.96	10	0.767191	9.99999	14.1996	14.1996	0	3.94435	11	0.00294108	0.000000000000000E+000	3.54453e+08	0.000000000000000E+000	0.000000000000000E+000	3.94435	3.94435	0.0000000E+000	0.000000000000000E+000	0.0076719
1	1	0	0	0	0	0	2398.96	10	0.768086	10.0009	14.5296	14.5296	0	4.03601	11	0.00301144	0.000000000000000E+000	3.5476e+08	0.000000000000000E+000	0.000000000000000E+000	4.03601	4.03601	0.0000000E+000	0.000000000000000E+000	0.00768154
1	1	0	0	0	0	0	2431.96	10	0.768462	10.0006	14.8596	14.8596	0	4.12768	11	0.00308188	0.000000000000000E+000	3.5952e+08	0.000000000000000E+000	0.000000000000000E+000	4.12768	4.12768	0.0000000E+000	0.000000000000000E+000	0.0076851
1	1	0	0	0	0	0	2464.96	10	0.768479	9.99992	15.1897	15.1897	0	4.21935	11	0.00315227	0.000000000000000E+000	3.67359e+08	0.000000000000000E+000	0.000000000000000E+000	4.21935	4.21935	0.0000000E+000	0.000000000000000E+000	0.00768473
1	1	0	0	0	0	0	2497.96	10	0.769264	10.0002	15.5197	15.5197	0	4.31101	11	0.00322275	0.000000000000000E+000	3.68342e+08	0.000000000000000E+000	0.000000000000000E+000	4.31101	4.31101	0.0000000E+000	0.000000000000000E+000	0.00769283
1	1	0	0	0	0	0	2530.96	10	0.76981	10.001	15.8497	15.8497	0	4.40268	11	0.0032933	0.000000000000000E+000	3.71358e+08	0.000000000000000E+000	0.000000000000000E+000	4.40268	4.40268	0.0000000E+000	0.000000000000000E+000	0.00769888
1	1	0	0	0	0	0	2563.96	10	0.770756	10	16.1797	16.1797	0	4.49435	11	0.00336391	0.000000000000000E+000	3.70873e+08	0.000000000000000E+000	0.000000000000000E+000	4.49435	4.49435	0.0000000E+000	0.000000000000000E+000	0.0077076
1	1	0	0	0	0	0	2596.96	10	0.771561	9.99992	16.5097	16.5097	0	4.58602	11	0.0034346	0.000000000000000E+000	3.71578e+08	0.000000000000000E+000	0.000000000000000E+000	4.58602	4.58602	0.0000000E+000	0.000000000000000E+000	0.00771556
1	1	0	0	0	0	0	2629.96	10	0.772494	10.0007	16.8397	16.8397	0	4.67769	11	0.00350537	0.000000000000000E+000	3.71214e+08	0.000000000000000E+000	0.000000000000000E+000	4.67769	4.67769	0.0000000E+000	0.000000000000000E+000	0.00772547
1	1	0	0	0	0	0	2662.96	10	0.773206	10.0007	17.1697	17.1697	0	4.76935	11	0.00357622	0.000000000000000E+000	3.72641e+08	0.000000000000000E+000	0.000000000000000E+000	4.76935	4.76935	0.0000000E+000	0.000000000000000E+000	0.00773259
1	1	0	0	0	0	0	2695.96	10	0.773954	9.99967	17.4997	17.4997	0	4.86102	11	0.00364712	0.000000000000000E+000	3.73733e+08	0.000000000000000E+000	0.000000000000000E+000	4.86102	4.86102	0.0000000E+000	0.000000000000000E+000	0.00773929
1	1	0	0	0	0	0	2728.96	10	0.774647	9.99986	17.8297	17.8297	0	4.95269	11	0.0037181	0.000000000000000E+000	3.75225e+08	0.000000000000000E+000	0.000000000000000E+000	4.95269	4.95269	0.0000000E+000	0.000000000000000E+000	0.00774637
1	1	0	0	0	0	0	2761.96	10	0.77572	10.0007	18.1597	18.1597	0	5.04436	11	0.00378916	0.000000000000000E+000	3.73735e+08	0.000000000000000E+000	0.000000000000000E+000	5.04436	5.04436	0.0000000E+000	0.000000000000000E+000	0.00775773
1	1	0	0	0	0	0	2794.96	10	0.776081	10.0008	18.4897	18.4897	0	5.13602	11	0.00386028	0.000000000000000E+000	3.77724e+08	0.000000000000000E+000	0.000000000000000E+000	5.13602	5.13602	0.0000000E+000	0.000000000000000E+000	0.00776144
1	1	0	0	0	0	0	2827.96	10	0.777025	9.99992	18.8197	18.8197	0	5.22769	11	0.00393147	0.000000000000000E+000	3.77186e+08	0.000000000000000E+000	0.000000000000000E+000	5.22769	5.22769	0.0000000E+000	0.000000000000000E+000	0.00777019
1	1	0	0	0	0	0	2860.96	10	0.777609	10.0006	19.1497	19.1497	0	5.31936	11	0.00400272	0.000000000000000E+000	3.79364e+08	0.000000000000000E+000	0.000000000000000E+000	5.31936	5.31936	0.0000000E+000	0.000000000000000E+000	0.00777652
1	1	0	0	0	0	0	2893.96	10	0.778248	10.001	19.4797	19.4797	0	5.41103	11	0.00407405	0.000000000000000E+000	3.81075e+08	0.000000000000000E+000	0.000000000000000E+000	5.41103	5.41103	0.0000000E+000	0.000000000000000E+000	0.00778326
1	1	0	0	0	0	0	2926.96	10	0.779028	9.99992	19.8097	19.8097	0	5.50269	11	0.00414544	0.000000000000000E+000	3.81708e+08	0.000000000000000E+000	0.000000000000000E+000	5.50269	5.50269	0.0000000E+000	0.000000000000000E+000	0.00779022
1	1	0	0	0	0	0	2959.96	10	0.779847	10.0002	20.1397	20.1397	0	5.59436	11	0.00421688	0.000000000000000E+000	3.82039e+08	0.000000000000000E+000	0.000000000000000E+000	5.59436	5.59436	0.0000000E+000	0.000000000000000E+000	0.00779865
1	1	0	0	0	0	0	2992.96	10	0.78078	9.99967	20.4697	20.4697	0	5.68603	11	0.0042884	0.000000000000000E+000	3.81546e+08	0.000000000000000E+000	0.000000000000000E+000	5.68603	5.68603	0.0000000E+000	0.000000000000000E+000	0.00780754
1	1	0	0	0	0	0	3025.96	10	0.781488	9.9998	20.7997	20.7997	0	5.7777	11	0.00435999	0.000000000000000E+000	3.82648e+08	0.000000000000000E+000	0.000000000000000E+000	5.7777	5.7777	0.0000000E+000	0.000000000000000E+000	0.00781472
1	1	0	0	0	0	0	3058.96	10	0.78201	10	21.1297	21.1297	0	5.86936	11	0.00443165	0.000000000000000E+000	3.85019e+08	0.000000000000000E+000	0.000000000000000E+000	5.86936	5.86936	0.0000000E+000	0.000000000000000E+000	0.00782014
1	1	0	0	0	0	0	3091.96	10	0.782747	10.0005	21.4597	21.4597	0	5.96103	11	0.00450337	0.000000000000000E+000	3.85852e+08	0.000000000000000E+000	0.000000000000000E+000	5.96103	5.96103	0.0000000E+000	0.000000000000000E+000	0.00782785
1	1	0	0	0	0	0	3124.96	10	0.783623	10.0004	21.7897	21.7897	0	6.0527	11	0.00457517	0.000000000000000E+000	3.85709e+08	0.000000000000000E+000	0.000000000000000E+000	6.0527	6.0527	0.0000000E+000	0.000000000000000E+000	0.00783657
1	1	0	0	0	0	0	3157.96	10	0.78426	10.0001	22.1197	22.1197	0	6.14437	11	0.00464703	0.000000000000000E+000	3.87186e+08	0.000000000000000E+000	0.000000000000000E+000	6.14437	6.14437	0.0000000E+000	0.000000000000000E+000	0.00784269
1	1	0	0	0	0	0	3190.96	10	0.784916	9.99973	22.4497	22.4497	0	6.23603	11	0.00471895	0.000000000000000E+000	3.885e+08	0.000000000000000E+000	0.000000000000000E+000	6.23603	6.23603	0.0000000E+000	0.000000000000000E+000	0.00784895
1	1	0	0	0	0	0	3223.96	10	0.785624	10.0008	22.7797	22.7797	0	6.3277	11	0.00479094	0.000000000000000E+000	3.89439e+08	0.000000000000000E+000	0.000000000000000E+000	6.3277	6.3277	0.0000000E+000	0.000000000000000E+000	0.00785688
1	1	0	0	0	0	0	3256.96	10	0.78634	10.0002	23.1097	23.1097	0	6.41937	11	0.00486299	0.000000000000000E+000	3.90302e+08	0.000000000000000E+000	0.000000000000000E+000	6.41937	6.41937	0.0000000E+000	0.000000000000000E+000	0.00786354
1	1	0	0	0	0	0	3289.96	10	0.786986	9.99999	23.4397	23.4397	0	6.51104	11	0.00493509	0.000000000000000E+000	3.91604e+08	0.000000000000000E+000	0.000000000000000E+000	6.51104	6.51104	0.0000000E+000	0.000000000000000E+000	0.00786985
1	1	0	0	0	0	0	3322.96	10	0.787554	10.0005	23.7697	23.7697	0	6.60271	11	0.00500726	0.000000000000000E+000	3.93382e+08	0.000000000000000E+000	0.000000000000000E+000	6.60271	6.60271	0.0000000E+000	0.000000000000000E+000	0.00787593
1	1	0	0	0	0	0	3355.96	10	0.788177	10.0007	24.0997	24.0997	0	6.69437	11	0.00507948	0.000000000000000E+000	3.94776e+08	0.000000000000000E+000	0.000000000000000E+000	6.69437	6.69437	0.0000000E+000	0.000000000000000E+000	0.00788231
1	1	0	0	0	0	0	3388.96	10	0.78914	9.99992	24.4297	24.4297	0	6.78604	11	0.00515177	0.000000000000000E+000	3.93968e+08	0.000000000000000E+000	0.000000000000000E+000	6.78604	6.78604	0.0000000E+000	0.000000000000000E+000	0.00789134
1	1	0	0	0	0	0	3421.96	10	0.789618	9.99967	24.7597	24.7597	0	6.87771	11	0.00522413	0.000000000000000E+000	3.96236e+08	0.000000000000000E+000	0.000000000000000E+000	6.87771	6.87771	0.0000000E+000	0.000000000000000E+000	0.00789591
1	1	0	0	0	0	0	3454.96	10	0.790317	10.0001	25.0898	25.0898	0	6.96938	11	0.00529653	0.000000000000000E+000	3.97072e+08	0.000000000000000E+000	0.000000000000000E+000	6.96938	6.96938	0.0000000E+000	0.000000000000000E+000	0.00790326
1	1	0	0	0	0	0	3487.96	10	0.791228	10	25.4198	25.4198	0	7.06104	11	0.00536902	0.000000000000000E+000	3.96578e+08	0.000000000000000E+000	0.000000000000000E+000	7.06104	7.06104	0.0000000E+000	0.000000000000000E+000	0.00791232
1	1	0	0	0	0	0	3520.96	10	0.791769	10.0002	25.7498	25.7498	0	7.15271	11	0.00544157	0.000000000000000E+000	3.98366e+08	0.000000000000000E+000	0.000000000000000E+000	7.15271	7.15271	0.0000000E+000	0.000000000000000E+000	0.00791788
1	1	0	0	0	0	0	3553.96	10	0.792532	10.0003	26.0798	26.0798	0	7.24438	11	0.00551417	0.000000000000000E+000	3.9876e+08	0.000000000000000E+000	0.000000000000000E+000	7.24438	7.24438	0.0000000E+000	0.000000000000000E+000	0.00792557
1	1	0	0	0	0	0	3586.96	10	0.793067	9.99992	26.4098	26.4098	0	7.33605	11	0.00558684	0.000000000000000E+000	4.00534e+08	0.000000000000000E+000	0.000000000000000E+000	7.33605	7.33605	0.0000000E+000	0.000000000000000E+000	0.00793061
1	1	0	0	0	0	0	3619.96	10	0.793654	9.99986	26.7398	26.7398	0	7.42772	11	0.00565956	0.000000000000000E+000	4.01956e+08	0.000000000000000E+000	0.000000000000000E+000	7.42772	7.42772	0.0000000E+000	0.000000000000000E+000	0.00793643
1	1	0	0	0	0	0	3652.96	10	0.794157	10.0007	27.0698	27.0698	0	7.51938	11	0.00573234	0.000000000000000E+000	4.03864e+08	0.000000000000000E+000	0.000000000000000E+000	7.51938	7.51938	0.0000000E+000	0.000000000000000E+000	0.00794217
1	1	0	0	0	0	0	3685.96	10	0.794968	10.0004	27.3998	27.3998	0	7.61105	11	0.0058052	0.000000000000000E+000	4.039e+08	0.000000000000000E+000	0.000000000000000E+000	7.61105	7.61105	0.0000000E+000	0.000000000000000E+000	0.00795002
1	1	0	0	0	0	0	3718.96	10	0.796098	9.99967	27.7298	27.7298	0	7.70272	11	0.00587812	0.000000000000000E+000	4.02067e+08	0.000000000000000E+000	0.000000000000000E+000	7.70272	7.70272	0.0000000E+000	0.000000000000000E+000	0.00796072
1	1	0	0	0	0	0	3751.96	10	0.796543	10.0002	28.0598	28.0598	0	7.79439	11	0.0059511	0.000000000000000E+000	4.04245e+08	0.000000000000000E+000	0.000000000000000E+000	7.79439	7.79439	0.0000000E+000	0.000000000000000E+000	0.00796557
1	1	0	0	0	0	0	3784.96	10	0.796841	10.0001	28.3898	28.3898	0	7.88605	11	0.00602415	0.000000000000000E+000	4.07249e+08	0.000000000000000E+000	0.000000000000000E+000	7.88605	7.88605	0.0000000E+000	0.000000000000000E+000	0.0079685
1	1	0	0	0	0	0	3817.96	10	0.79763	10.0004	28.7198	28.7198	0	7.97772	11	0.00609723	0.000000000000000E+000	4.07373e+08	0.000000000000000E+000	0.000000000000000E+000	7.97772	7.97772	0.0000000E+000	0.000000000000000E+000	0.00797659
1	1	0	0	0	0	0	3850.96	10	0.798295	10.0001	29.0498	29.0498	0	8.06939	11	0.00617038	0.000000000000000E+000	4.08204e+08	0.000000000000000E+000	0.000000000000000E+000	8.06939	8.06939	0.0000000E+000	0.000000000000000E+000	0.00798304
1	1	0	0	0	0	0	3883.96	10	0.798844	10.0006	29.3798	29.3798	0	8.16106	11	0.0062436	0.000000000000000E+000	4.0968e+08	0.000000000000000E+000	0.000000000000000E+000	8.16106	8.16106	0.0000000E+000	0.000000000000000E+000	0.00798889
1	1	0	0	0	0	0	3916.96	10	0.799556	10.0002	29.7098	29.7098	0	8.25273	11	0.00631688	0.000000000000000E+000	4.10209e+08	0.000000000000000E+000	0.000000000000000E+000	8.25273	8.25273	0.0000000E+000	0.000000000000000E+000	0.0079957
1	1	0	0	0	0	0	3949.96	10	0.800285	9.99992	30.0398	30.0398	0	8.34439	11	0.00639021	0.000000000000000E+000	4.10634e+08	0.000000000000000E+000	0.000000000000000E+000	8.34439	8.34439	0.0000000E+000	0.000000000000000E+000	0.00800279
1	1	0	0	0	0	0	3982.96	10	0.801084	10.0009	30.3698	30.3698	0	8.43606	11	0.00646359	0.000000000000000E+000	4.10661e+08	0.000000000000000E+000	0.000000000000000E+000	8.43606	8.43606	0.0000000E+000	0.000000000000000E+000	0.00801154
1	1	0	0	0	0	0	4015.96	10	0.801876	9.9991	30.6998	30.6998	0	8.52773	11	0.00653705	0.000000000000000E+000	4.10721e+08	0.000000000000000E+000	0.000000000000000E+000	8.52773	8.52773	0.0000000E+000	0.000000000000000E+000	0.00801804
1	1	0	0	0	0	0	4048.96	10	0.802327	10.0006	31.0298	31.0298	0	8.6194	11	0.00661056	0.000000000000000E+000	4.12648e+08	0.000000000000000E+000	0.000000000000000E+000	8.6194	8.6194	0.0000000E+000	0.000000000000000E+000	0.00802377
1	1	0	0	0	0	0	4081.96	10	0.803054	9.99973	31.3598	31.3598	0	8.71107	11	0.00668414	0.000000000000000E+000	4.13045e+08	0.000000000000000E+000	0.000000000000000E+000	8.71107	8.71107	0.0000000E+000	0.000000000000000E+000	0.00803032
1	1	0	0	0	0	0	4114.96	10	0.803377	9.99999	31.6898	31.6898	0	8.80273	11	0.00675777	0.000000000000000E+000	4.15623e+08	0.000000000000000E+000	0.000000000000000E+000	8.80273	8.80273	0.0000000E+000	0.000000000000000E+000	0.00803376
1	1	0	0	0	0	0	4147.96	10	0.803769	10.0008	32.0198	32.0198	0	8.8944	11	0.00683146	0.000000000000000E+000	4.17805e+08	0.000000000000000E+000	0.000000000000000E+000	8.8944	8.8944	0.0000000E+000	0.000000000000000E+000	0.00803834
1	1	0	0	0	0	0	4180.96	10	0.804872	10.0003	32.3498	32.3498	0	8.98607	11	0.00690519	0.000000000000000E+000	4.16122e+08	0.000000000000000E+000	0.000000000000000E+000	8.98607	8.98607	0.0000000E+000	0.000000000000000E+000	0.00804896
1	1	0	0	0	0	0	4213.96	10	0.805193	9.99999	32.6798	32.6798	0	9.07774	11	0.006979	0.000000000000000E+000	4.18633e+08	0.000000000000000E+000	0.000000000000000E+000	9.07774	9.07774	0.0000000E+000	0.000000000000000E+000	0.00805192
1	1	0	0	0	0	0	4246.96	10	0.806169	9.99973	33.0099	33.0099	0	9.1694	11	0.00705287	0.000000000000000E+000	4.17643e+08	0.000000000000000E+000	0.000000000000000E+000	9.1694	9.1694	0.0000000E+000	0.000000000000000E+000	0.00806147
1	1	0	0	0	0	0	4279.96	10	0.806586	10.0002	33.3399	33.3399	0	9.26107	11	0.00712679	0.000000000000000E+000	4.19602e+08	0.000000000000000E+000	0.000000000000000E+000	9.26107	9.26107	0.0000000E+000	0.000000000000000E+000	0.00806606
1	1	0	0	0	0	0	4312.96	10	0.807515	10.0006	33.6699	33.6699	0	9.35274	11	0.00720078	0.000000000000000E+000	4.1886e+08	0.000000000000000E+000	0.000000000000000E+000	9.35274	9.35274	0.0000000E+000	0.000000000000000E+000	0.0080756
1	1	0	0	0	0	0	4345.96	10	0.808331	10.0003	33.9999	33.9999	0	9.44441	11	0.00727483	0.000000000000000E+000	4.18714e+08	0.000000000000000E+000	0.000000000000000E+000	9.44441	9.44441	0.0000000E+000	0.000000000000000E+000	0.00808355
1	1	0	0	0	0	0	4378.96	10	0.809018	9.99954	34.3299	34.3299	0	9.53607	11	0.00734897	0.000000000000000E+000	4.1923e+08	0.000000000000000E+000	0.000000000000000E+000	9.53607	9.53607	0.0000000E+000	0.000000000000000E+000	0.00808981
1	1	0	0	0	0	0	4411.96	10	0.809791	10.0004	34.6599	34.6599	0	9.62774	11	0.00742315	0.000000000000000E+000	4.19304e+08	0.000000000000000E+000	0.000000000000000E+000	9.62774	9.62774	0.0000000E+000	0.000000000000000E+000	0.0080982
1	1	0	0	0	0	0	4444.96	10	0.810531	10.0003	34.9899	34.9899	0	9.71941	11	0.00749739	0.000000000000000E+000	4.19541e+08	0.000000000000000E+000	0.000000000000000E+000	9.71941	9.71941	0.0000000E+000	0.000000000000000E+000	0.00810555
1	1	0	0	0	0	0	4477.96	10	0.810771	9.99973	35.3199	35.3199	0	9.81108	11	0.0075717	0.000000000000000E+000	4.22279e+08	0.000000000000000E+000	0.000000000000000E+000	9.81108	9.81108	0.0000000E+000	0.000000000000000E+000	0.0081075
1	1	0	0	0	0	0	4510.96	10	0.811787	10.0007	35.6499	35.6499	0	9.90275	11	0.00764605	0.000000000000000E+000	4.21112e+08	0.000000000000000E+000	0.000000000000000E+000	9.90275	9.90275	0.0000000E+000	0.000000000000000E+000	0.00811842
1	1	0	0	0	0	0	4543.96	10	0.812418	9.99992	35.9799	35.9799	0	9.99441	11	0.00772049	0.000000000000000E+000	4.21867e+08	0.000000000000000E+000	0.000000000000000E+000	9.99441	9.99441	0.0000000E+000	0.000000000000000E+000	0.00812411
1	1	0	0	0	0	0	4576.96	10	0.813131	10	36.3099	36.3099	0	10.0861	11	0.00779497	0.000000000000000E+000	4.22206e+08	0.000000000000000E+000	0.000000000000000E+000	10.0861	10.0861	0.0000000E+000	0.000000000000000E+000	0.00813135
1	1	0	0	0	0	0	4609.96	10	0.813793	10	36.6399	36.6399	0	10.1777	11	0.00786953	0.000000000000000E+000	4.22787e+08	0.000000000000000E+000	0.000000000000000E+000	10.1777	10.1777	0.0000000E+000	0.000000000000000E+000	0.00813797
1	1	0	0	0	0	0	4642.96	10	0.814148	10	36.9699	36.9699	0	10.2694	11	0.00794414	0.000000000000000E+000	4.24857e+08	0.000000000000000E+000	0.000000000000000E+000	10.2694	10.2694	0.0000000E+000	0.000000000000000E+000	0.00814152
1	1	0	0	0	0	0	4675.96	10	0.814566	10.0004	37.2999	37.2999	0	10.3611	11	0.00801878	0.000000000000000E+000	4.266e+08	0.000000000000000E+000	0.000000000000000E+000	10.3611	10.3611	0.0000000E+000	0.000000000000000E+000	0.00814595
1	1	0	0	0	0	0	4708.96	10	0.815522	10.0003	37.6299	37.6299	0	10.4528	11	0.00809349	0.000000000000000E+000	4.2572e+08	0.000000000000000E+000	0.000000000000000E+000	10.4528	10.4528	0.0000000E+000	0.000000000000000E+000	0.00815546
1	1	0	0	0	0	0	4741.96	10	0.81613	10.0007	37.9599	37.9599	0	10.5444	11	0.00816828	0.000000000000000E+000	4.26515e+08	0.000000000000000E+000	0.000000000000000E+000	10.5444	10.5444	0.0000000E+000	0.000000000000000E+000	0.00816186
1	1	0	0	0	0	0	4774.96	10	0.816649	10.0007	38.2899	38.2899	0	10.6361	11	0.00824312	0.000000000000000E+000	4.27733e+08	0.000000000000000E+000	0.000000000000000E+000	10.6361	10.6361	0.0000000E+000	0.000000000000000E+000	0.00816705
1	1	0	0	0	0	0	4807.96	10	0.818016	10.0004	38.6199	38.6199	0	10.7278	11	0.00831803	0.000000000000000E+000	4.24928e+08	0.000000000000000E+000	0.000000000000000E+000	10.7278	10.7278	0.0000000E+000	0.000000000000000E+000	0.00818051
1	1	0	0	0	0	0	4840.96	10	0.818037	9.99999	38.9499	38.9499	0	10.8194	11	0.00839301	0.000000000000000E+000	4.28461e+08	0.000000000000000E+000	0.000000000000000E+000	10.8194	10.8194	0.0000000E+000	0.000000000000000E+000	0.00818036
1	1	0	0	0	0	0	4873.96	10	0.818806	10.0004	39.2799	39.2799	0	10.9111	11	0.00846804	0.000000000000000E+000	4.28466e+08	0.000000000000000E+000	0.000000000000000E+000	10.9111	10.9111	0.0000000E+000	0.000000000000000E+000	0.00818836
1	1	0	0	0	0	0	4906.96	10	0.820218	9.99992	39.6099	39.6099	0	11.0028	11	0.00854317	0.000000000000000E+000	4.25514e+08	0.000000000000000E+000	0.000000000000000E+000	11.0028	11.0028	0.0000000E+000	0.000000000000000E+000	0.00820211
1	1	0	0	0	0	0	4939.96	10	0.820035	10.0004	39.9399	39.9399	0	11.0944	11	0.00861833	0.000000000000000E+000	4.29903e+08	0.000000000000000E+000	0.000000000000000E+000	11.0944	11.0944	0.0000000E+000	0.000000000000000E+000	0.00820065
1	1	0	0	0	0	0	4972.96	10	0.82092	9.99999	40.2699	40.2699	0	11.1861	11	0.00869358	0.000000000000000E+000	4.29365e+08	0.000000000000000E+000	0.000000000000000E+000	11.1861	11.1861	0.0000000E+000	0.000000000000000E+000	0.00820919
1	1	0	0	0	0	0	5005.96	10	0.821494	9.99999	40.5999	40.5999	0	11.2778	11	0.00876886	0.000000000000000E+000	4.3025e+08	0.000000000000000E+000	0.000000000000000E+000	11.2778	11.2778	0.0000000E+000	0.000000000000000E+000	0.00821493
1	1	0	0	0	0	0	5038.96	10	0.822591	10	40.93	40.93	0	11.3694	11	0.00884423	0.000000000000000E+000	4.28762e+08	0.000000000000000E+000	0.000000000000000E+000	11.3694	11.3694	0.0000000E+000	0.000000000000000E+000	0.00822595
1	1	0	0	0	0	0	5071.96	10	0.823631	9.99961	41.26	41.26	0	11.4611	11	0.00891966	0.000000000000000E+000	4.2756e+08	0.000000000000000E+000	0.000000000000000E+000	11.4611	11.4611	0.0000000E+000	0.000000000000000E+000	0.00823599
1	1	0	0	0	0	0	5104.96	10	0.823499	10.0006	41.59	41.59	0	11.5528	11	0.00899515	0.000000000000000E+000	4.31569e+08	0.000000000000000E+000	0.000000000000000E+000	11.5528	11.5528	0.0000000E+000	0.000000000000000E+000	0.00823551
1	1	0	0	0	0	0	5137.96	10	0.824411	9.99992	41.92	41.92	0	11.6444	11	0.0090707	0.000000000000000E+000	4.30917e+08	0.000000000000000E+000	0.000000000000000E+000	11.6444	11.6444	0.0000000E+000	0.000000000000000E+000	0.00824405
1	1	0	0	0	0	0	5170.96	10	0.825141	10.0008	42.25	42.25	0	11.7361	11	0.00914632	0.000000000000000E+000	4.31074e+08	0.000000000000000E+000	0.000000000000000E+000	11.7361	11.7361	0.0000000E+000	0.000000000000000E+000	0.00825208
1	1	0	0	0	0	0	5203.96	10	0.826141	10	42.58	42.58	0	11.8278	11	0.00922202	0.000000000000000E+000	4.30053e+08	0.000000000000000E+000	0.000000000000000E+000	11.8278	11.8278	0.0000000E+000	0.000000000000000E+000	0.00826145
1	1	0	0	0	0	0	5236.96	10	0.827238	9.99967	42.91	42.91	0	11.9194	11	0.00929783	0.000000000000000E+000	4.28637e+08	0.000000000000000E+000	0.000000000000000E+000	11.9194	11.9194	0.0000000E+000	0.000000000000000E+000	0.00827211
1	1	0	0	0	0	0	5269.96	10	0.827552	10.0001	43.24	43.24	0	12.0111	11	0.00937366	0.000000000000000E+000	4.30582e+08	0.000000000000000E+000	0.000000000000000E+000	12.0111	12.0111	0.0000000E+000	0.000000000000000E+000	0.00827562
1	1	0	0	0	0	0	5302.96	10	0.829073	10.0003	43.57	43.57	0	12.1028	11	0.00944959	0.000000000000000E+000	4.27398e+08	0.000000000000000E+000	0.000000000000000E+000	12.1028	12.1028	0.0000000E+000	0.000000000000000E+000	0.00829098
1	1	0	0	0	0	0	5335.96	10	0.82887	10.0003	43.9	43.9	0	12.1944	11	0.00952556	0.000000000000000E+000	4.31491e+08	0.000000000000000E+000	0.000000000000000E+000	12.1944	12.1944	0.0000000E+000	0.000000000000000E+000	0.00828896
1	1	0	0	0	0	0	5368.96	10	0.829486	9.99929	44.23	44.23	0	12.2861	11	0.0096016	0.000000000000000E+000	4.32121e+08	0.000000000000000E+000	0.000000000000000E+000	12.2861	12.2861	0.0000000E+000	0.000000000000000E+000	0.00829427
1	1	0	0	0	0	0	5401.96	10	0.830201	10.0002	44.56	44.56	0	12.3778	11	0.00967768	0.000000000000000E+000	4.32325e+08	0.000000000000000E+000	0.000000000000000E+000	12.3778	12.3778	0.0000000E+000	0.000000000000000E+000	0.00830221
1	1	0	0	0	0	0	5434.96	10	0.830661	9.99935	44.89	44.89	0	12.4694	11	0.00975384	0.000000000000000E+000	4.3359e+08	0.000000000000000E+000	0.000000000000000E+000	12.4694	12.4694	0.0000000E+000	0.000000000000000E+000	0.00830607
1	1	0	0	0	0	0	5467.96	10	0.831805	10.0004	45.22	45.22	0	12.5611	11	0.00983006	0.000000000000000E+000	4.32005e+08	0.000000000000000E+000	0.000000000000000E+000	12.5611	12.5611	0.0000000E+000	0.000000000000000E+000	0.00831841
1	1	0	0	0	0	0	5500.96	10	0.83263	9.99999	45.55	45.55	0	12.6528	11	0.00990636	0.000000000000000E+000	4.31756e+08	0.000000000000000E+000	0.000000000000000E+000	12.6528	12.6528	0.0000000E+000	0.000000000000000E+000	0.00832629
1	1	0	0	0	0	0	5533.96	10	0.833631	10.0002	45.88	45.88	0	12.7444	11	0.00998272	0.000000000000000E+000	4.30794e+08	0.000000000000000E+000	0.000000000000000E+000	12.7444	12.7444	0.0000000E+000	0.000000000000000E+000	0.00833651
1	1	0	0	0	0	0	5566.96	10	0.834573	10	46.21	46.21	0	12.8361	11	0.0100592	0.000000000000000E+000	4.3009e+08	0.000000000000000E+000	0.000000000000000E+000	12.8361	12.8361	0.0000000E+000	0.000000000000000E+000	0.00834577
1	1	0	0	0	0	0	5599.96	10	0.834643	10.0002	46.54	46.54	0	12.9278	11	0.0101357	0.000000000000000E+000	4.32877e+08	0.000000000000000E+000	0.000000000000000E+000	12.9278	12.9278	0.0000000E+000	0.000000000000000E+000	0.00834663
1	1	0	0	0	0	0	5632.96	10	0.836488	10.0003	46.87	46.87	0	13.0194	11	0.0102123	0.000000000000000E+000	4.28592e+08	0.000000000000000E+000	0.000000000000000E+000	13.0194	13.0194	0.0000000E+000	0.000000000000000E+000	0.00836514
1	1	0	0	0	0	0	5665.96	10	0.836292	10	47.2	47.2	0	13.1111	11	0.0102889	0.000000000000000E+000	4.32388e+08	0.000000000000000E+000	0.000000000000000E+000	13.1111	13.1111	0.0000000E+000	0.000000000000000E+000	0.00836296
1	1	0	0	0	0	0	5698.96	10	0.837582	10.0001	47.53	47.53	0	13.2028	11	0.0103656	0.000000000000000E+000	4.30326e+08	0.000000000000000E+000	0.000000000000000E+000	13.2028	13.2028	0.0000000E+000	0.000000000000000E+000	0.00837591
1	1	0	0	0	0	0	5731.96	10	0.837735	9.9998	47.86	47.86	0	13.2945	11	0.0104425	0.000000000000000E+000	4.32713e+08	0.000000000000000E+000	0.000000000000000E+000	13.2945	13.2945	0.0000000E+000	0.000000000000000E+000	0.00837718
1	1	0	0	0	0	0	5764.96	10	0.839711	9.99986	48.19	48.19	0	13.3861	11	0.0105193	0.000000000000000E+000	4.28048e+08	0.000000000000000E+000	0.000000000000000E+000	13.3861	13.3861	0.0000000E+000	0.000000000000000E+000	0.00839699
1	1	0	0	0	0	0	5797.96	10	0.839903	9.99986	48.52	48.52	0	13.4778	11	0.0105963	0.000000000000000E+000	4.30247e+08	0.000000000000000E+000	0.000000000000000E+000	13.4778	13.4778	0.0000000E+000	0.000000000000000E+000	0.00839891
1	1	0	0	0	0	0	5830.96	10	0.840865	10.0003	48.85	48.85	0	13.5695	11	0.0106733	0.000000000000000E+000	4.2951e+08	0.000000000000000E+000	0.000000000000000E+000	13.5695	13.5695	0.0000000E+000	0.000000000000000E+000	0.0084089
1	1	0	0	0	0	0	5863.96	10	0.841675	10.0004	49.18	49.18	0	13.6611	11	0.0107505	0.000000000000000E+000	4.29351e+08	0.000000000000000E+000	0.000000000000000E+000	13.6611	13.6611	0.0000000E+000	0.000000000000000E+000	0.00841706
1	1	0	0	0	0	0	5896.96	10	0.842207	9.9998	49.51	49.51	0	13.7528	11	0.0108276	0.000000000000000E+000	4.30235e+08	0.000000000000000E+000	0.000000000000000E+000	13.7528	13.7528	0.0000000E+000	0.000000000000000E+000	0.0084219
1	1	0	0	0	0	0	5929.96	10	0.843894	9.99986	49.84	49.84	0	13.8445	11	0.0109049	0.000000000000000E+000	4.26843e+08	0.000000000000000E+000	0.000000000000000E+000	13.8445	13.8445	0.0000000E+000	0.000000000000000E+000	0.00843883
1	1	0	0	0	0	0	5962.96	10	0.844373	10	50.1701	50.1701	0	13.9361	11	0.0109823	0.000000000000000E+000	4.27917e+08	0.000000000000000E+000	0.000000000000000E+000	13.9361	13.9361	0.0000000E+000	0.000000000000000E+000	0.00844377
1	1	0	0	0	0	0	5995.96	10	0.845232	10.0009	50.5001	50.5001	0	14.0278	11	0.0110598	0.000000000000000E+000	4.27596e+08	0.000000000000000E+000	0.000000000000000E+000	14.0278	14.0278	0.0000000E+000	0.000000000000000E+000	0.00845306
1	1	0	0	0	0	0	6028.96	10	0.845736	9.99986	50.8301	50.8301	0	14.1195	11	0.0111373	0.000000000000000E+000	4.28562e+08	0.000000000000000E+000	0.000000000000000E+000	14.1195	14.1195	0.0000000E+000	0.000000000000000E+000	0.00845724
1	1	0	0	0	0	0	6061.96	10	0.847051	10.0002	51.1601	51.1601	0	14.2111	11	0.0112149	0.000000000000000E+000	4.26615e+08	0.000000000000000E+000	0.000000000000000E+000	14.2111	14.2111	0.0000000E+000	0.000000000000000E+000	0.00847071
1	1	0	0	0	0	0	6094.96	10	0.848474	10	51.4901	51.4901	0	14.3028	11	0.0112926	0.000000000000000E+000	4.24331e+08	0.000000000000000E+000	0.000000000000000E+000	14.3028	14.3028	0.0000000E+000	0.000000000000000E+000	0.00848479
1	1	0	0	0	0	0	6127.96	10	0.848875	10	51.8201	51.8201	0	14.3945	11	0.0113704	0.000000000000000E+000	4.25644e+08	0.000000000000000E+000	0.000000000000000E+000	14.3945	14.3945	0.0000000E+000	0.000000000000000E+000	0.0084888
1	1	0	0	0	0	0	6160.96	10	0.849756	10.0005	52.1501	52.1501	0	14.4861	11	0.0114482	0.000000000000000E+000	4.25277e+08	0.000000000000000E+000	0.000000000000000E+000	14.4861	14.4861	0.0000000E+000	0.000000000000000E+000	0.00849798
1	1	0	0	0	0	0	6193.96	10	0.849519	10.0002	52.4801	52.4801	0	14.5778	11	0.0115261	0.000000000000000E+000	4.28798e+08	0.000000000000000E+000	0.000000000000000E+000	14.5778	14.5778	0.0000000E+000	0.000000000000000E+000	0.00849539
1	1	0	0	0	0	0	6226.96	10	0.851691	10.0005	52.8101	52.8101	0	14.6695	11	0.0116041	0.000000000000000E+000	4.23969e+08	0.000000000000000E+000	0.000000000000000E+000	14.6695	14.6695	0.0000000E+000	0.000000000000000E+000	0.00851733
1	1	0	0	0	0	0	6259.96	10	0.852185	10.0006	53.1401	53.1401	0	14.7611	11	0.0116822	0.000000000000000E+000	4.24933e+08	0.000000000000000E+000	0.000000000000000E+000	14.7611	14.7611	0.0000000E+000	0.000000000000000E+000	0.00852238
1	1	0	0	0	0	0	6292.96	10	0.852971	10.0006	53.4701	53.4701	0	14.8528	11	0.0117604	0.000000000000000E+000	4.24901e+08	0.000000000000000E+000	0.000000000000000E+000	14.8528	14.8528	0.0000000E+000	0.000000000000000E+000	0.00853019
1	1	0	0	0	0	0	6325.96	10	0.853616	9.99992	53.8001	53.8001	0	14.9445	11	0.0118386	0.000000000000000E+000	4.25344e+08	0.000000000000000E+000	0.000000000000000E+000	14.9445	14.9445	0.0000000E+000	0.000000000000000E+000	0.0085361
1	1	0	0	0	0	0	6358.96	10	0.854494	10.0004	54.1301	54.1301	0	15.0361	11	0.0119169	0.000000000000000E+000	4.25003e+08	0.000000000000000E+000	0.000000000000000E+000	15.0361	15.0361	0.0000000E+000	0.000000000000000E+000	0.00854531
1	1	0	0	0	0	0	6391.96	10	0.855518	10.0013	54.4601	54.4601	0	15.1278	11	0.0119953	0.000000000000000E+000	4.24185e+08	0.000000000000000E+000	0.000000000000000E+000	15.1278	15.1278	0.0000000E+000	0.000000000000000E+000	0.00855625
1	1	0	0	0	0	0	6424.96	10	0.85572	10.0007	54.7901	54.7901	0	15.2195	11	0.0120738	0.000000000000000E+000	4.26086e+08	0.000000000000000E+000	0.000000000000000E+000	15.2195	15.2195	0.0000000E+000	0.000000000000000E+000	0.00855784
1	1	0	0	0	0	0	6457.96	10	0.85582	10	55.1201	55.1201	0	15.3111	11	0.0121523	0.000000000000000E+000	4.28317e+08	0.000000000000000E+000	0.000000000000000E+000	15.3111	15.3111	0.0000000E+000	0.000000000000000E+000	0.00855824
1	1	0	0	0	0	0	6490.96	10	0.857448	9.99954	55.4501	55.4501	0	15.4028	11	0.0122309	0.000000000000000E+000	4.25501e+08	0.000000000000000E+000	0.000000000000000E+000	15.4028	15.4028	0.0000000E+000	0.000000000000000E+000	0.00857408
1	1	0	0	0	0	0	6523.96	10	0.859408	9.99999	55.7801	55.7801	0	15.4945	11	0.0123095	0.000000000000000E+000	4.21689e+08	0.000000000000000E+000	0.000000000000000E+000	15.4945	15.4945	0.0000000E+000	0.000000000000000E+000	0.00859407
1	1	0	0	0	0	0	6556.96	10	0.858366	9.99986	56.1101	56.1101	0	15.5861	11	0.0123883	0.000000000000000E+000	4.27551e+08	0.000000000000000E+000	0.000000000000000E+000	15.5861	15.5861	0.0000000E+000	0.000000000000000E+000	0.00858354
1	1	0	0	0	0	0	6589.96	10	0.85959	10	56.4401	56.4401	0	15.6778	11	0.0124671	0.000000000000000E+000	4.26093e+08	0.000000000000000E+000	0.000000000000000E+000	15.6778	15.6778	0.0000000E+000	0.000000000000000E+000	0.00859594
1	1	0	0	0	0	0	6622.96	10	0.860048	10.0002	56.7701	56.7701	0	15.7695	11	0.0125459	0.000000000000000E+000	4.27107e+08	0.000000000000000E+000	0.000000000000000E+000	15.7695	15.7695	0.0000000E+000	0.000000000000000E+000	0.00860063
1	1	0	0	0	0	0	6655.96	10	0.860578	10	57.1001	57.1001	0	15.8611	11	0.0126248	0.000000000000000E+000	4.27883e+08	0.000000000000000E+000	0.000000000000000E+000	15.8611	15.8611	0.0000000E+000	0.000000000000000E+000	0.00860583
1	1	0	0	0	0	0	6688.96	10	0.861194	10.0004	57.4301	57.4301	0	15.9528	11	0.0127037	0.000000000000000E+000	4.2838e+08	0.000000000000000E+000	0.000000000000000E+000	15.9528	15.9528	0.0000000E+000	0.000000000000000E+000	0.00861231
1	1	0	0	0	0	0	6721.96	10	0.863494	9.99999	57.7601	57.7601	0	16.0445	11	0.0127827	0.000000000000000E+000	4.23575e+08	0.000000000000000E+000	0.000000000000000E+000	16.0445	16.0445	0.0000000E+000	0.000000000000000E+000	0.00863492
1	1	0	0	0	0	0	6754.96	10	0.863507	10.0002	58.0901	58.0901	0	16.1361	11	0.0128618	0.000000000000000E+000	4.25954e+08	0.000000000000000E+000	0.000000000000000E+000	16.1361	16.1361	0.0000000E+000	0.000000000000000E+000	0.00863528
1	1	0	0	0	0	0	6787.96	10	0.86247	10.0004	58.4201	58.4201	0	16.2278	11	0.0129409	0.000000000000000E+000	4.31656e+08	0.000000000000000E+000	0.000000000000000E+000	16.2278	16.2278	0.0000000E+000	0.000000000000000E+000	0.00862501
1	1	0	0	0	0	0	6820.96	10	0.863638	9.99992	58.7501	58.7501	0	16.3195	11	0.0130201	0.000000000000000E+000	4.30381e+08	0.000000000000000E+000	0.000000000000000E+000	16.3195	16.3195	0.0000000E+000	0.000000000000000E+000	0.00863631
1	1	0	0	0	0	0	6853.96	10	0.863378	10.0007	59.0801	59.0801	0	16.4112	11	0.0130993	0.000000000000000E+000	4.33623e+08	0.000000000000000E+000	0.000000000000000E+000	16.4112	16.4112	0.0000000E+000	0.000000000000000E+000	0.00863442
1	1	0	0	0	0	0	6886.96	10	0.864325	9.9998	59.4101	59.4101	0	16.5028	11	0.0131785	0.000000000000000E+000	4.33036e+08	0.000000000000000E+000	0.000000000000000E+000	16.5028	16.5028	0.0000000E+000	0.000000000000000E+000	0.00864307
1	1	0	0	0	0	0	6919.96	10	0.864978	10.0002	59.7401	59.7401	0	16.5945	11	0.0132578	0.000000000000000E+000	4.33379e+08	0.000000000000000E+000	0.000000000000000E+000	16.5945	16.5945	0.0000000E+000	0.000000000000000E+000	0.00864998
1	1	0	0	0	0	0	6952.96	10	0.866104	10.0002	60.0701	60.0701	0	16.6862	11	0.0133372	0.000000000000000E+000	4.32241e+08	0.000000000000000E+000	0.000000000000000E+000	16.6862	16.6862	0.0000000E+000	0.000000000000000E+000	0.00866125
1	1	0	0	0	0	0	6985.96	10	0.866414	10.0002	60.4001	60.4001	0	16.7778	11	0.0134165	0.000000000000000E+000	4.33649e+08	0.000000000000000E+000	0.000000000000000E+000	16.7778	16.7778	0.0000000E+000	0.000000000000000E+000	0.00866434
1	1	0	0	0	0	0	7018.96	10	0.866467	9.99999	60.7302	60.7302	0	16.8695	11	0.013496	0.000000000000000E+000	4.3585e+08	0.000000000000000E+000	0.000000000000000E+000	16.8695	16.8695	0.0000000E+000	0.000000000000000E+000	0.00866466
1	1	0	0	0	0	0	7051.96	10	0.867088	10	61.0602	61.0602	0	16.9612	11	0.0135754	0.000000000000000E+000	4.36274e+08	0.000000000000000E+000	0.000000000000000E+000	16.9612	16.9612	0.0000000E+000	0.000000000000000E+000	0.00867093
1	1	0	0	0	0	0	7084.96	10	0.867251	9.99999	61.3902	61.3902	0	17.0528	11	0.0136549	0.000000000000000E+000	4.38124e+08	0.000000000000000E+000	0.000000000000000E+000	17.0528	17.0528	0.0000000E+000	0.000000000000000E+000	0.0086725
1	1	0	0	0	0	0	7117.96	10	0.867486	10.0002	61.7202	61.7202	0	17.1445	11	0.0137344	0.000000000000000E+000	4.39739e+08	0.000000000000000E+000	0.000000000000000E+000	17.1445	17.1445	0.0000000E+000	0.000000000000000E+000	0.00867502
1	1	0	0	0	0	0	7150.96	10	0.8683	10	62.0502	62.0502	0	17.2362	11	0.013814	0.000000000000000E+000	4.39543e+08	0.000000000000000E+000	0.000000000000000E+000	17.2362	17.2362	0.0000000E+000	0.000000000000000E+000	0.00868304
1	1	0	0	0	0	0	7183.96	10	0.867969	10.0006	62.3802	62.3802	0	17.3278	11	0.0138936	0.000000000000000E+000	4.42918e+08	0.000000000000000E+000	0.000000000000000E+000	17.3278	17.3278	0.0000000E+000	0.000000000000000E+000	0.00868018
1	1	0	0	0	0	0	7216.96	10	0.868554	9.99986	62.7102	62.7102	0	17.4195	11	0.0139733	0.000000000000000E+000	4.43421e+08	0.000000000000000E+000	0.000000000000000E+000	17.4195	17.4195	0.0000000E+000	0.000000000000000E+000	0.00868542
1	1	0	0	0	0	0	7249.96	10	0.869625	10.0001	63.0402	63.0402	0	17.5112	11	0.014053	0.000000000000000E+000	4.42405e+08	0.000000000000000E+000	0.000000000000000E+000	17.5112	17.5112	0.0000000E+000	0.000000000000000E+000	0.00869634
1	1	0	0	0	0	0	7282.96	10	0.870082	10.0003	63.3702	63.3702	0	17.6028	11	0.0141328	0.000000000000000E+000	4.43299e+08	0.000000000000000E+000	0.000000000000000E+000	17.6028	17.6028	0.0000000E+000	0.000000000000000E+000	0.00870108
1	1	0	0	0	0	0	7315.96	10	0.871039	10.0005	63.7002	63.7002	0	17.6945	11	0.0142126	0.000000000000000E+000	4.42644e+08	0.000000000000000E+000	0.000000000000000E+000	17.6945	17.6945	0.0000000E+000	0.000000000000000E+000	0.00871082
1	1	0	0	0	0	0	7348.96	10	0.870077	10.0007	64.0302	64.0302	0	17.7862	11	0.0142925	0.000000000000000E+000	4.47929e+08	0.000000000000000E+000	0.000000000000000E+000	17.7862	17.7862	0.0000000E+000	0.000000000000000E+000	0.00870137
1	1	0	0	0	0	0	7381.96	10	0.871414	9.99986	64.3602	64.3602	0	17.8778	11	0.0143723	0.000000000000000E+000	4.46067e+08	0.000000000000000E+000	0.000000000000000E+000	17.8778	17.8778	0.0000000E+000	0.000000000000000E+000	0.00871402
1	1	0	0	0	0	0	7414.96	10	0.871798	10.0002	64.6902	64.6902	0	17.9695	11	0.0144522	0.000000000000000E+000	4.47164e+08	0.000000000000000E+000	0.000000000000000E+000	17.9695	17.9695	0.0000000E+000	0.000000000000000E+000	0.00871819
1	1	0	0	0	0	0	7447.96	10	0.872108	10.0004	65.0202	65.0202	0	18.0612	11	0.0145322	0.000000000000000E+000	4.48485e+08	0.000000000000000E+000	0.000000000000000E+000	18.0612	18.0612	0.0000000E+000	0.000000000000000E+000	0.00872145
1	1	0	0	0	0	0	7480.96	10	0.872073	10.0002	65.3502	65.3502	0	18.1528	11	0.0146122	0.000000000000000E+000	4.50869e+08	0.000000000000000E+000	0.000000000000000E+000	18.1528	18.1528	0.0000000E+000	0.000000000000000E+000	0.00872094
1	1	0	0	0	0	0	7513.96	10	0.872278	9.99948	65.6802	65.6802	0	18.2445	11	0.0146921	0.000000000000000E+000	4.52507e+08	0.000000000000000E+000	0.000000000000000E+000	18.2445	18.2445	0.0000000E+000	0.000000000000000E+000	0.00872232
1	1	0	0	0	0	0	7546.96	10	0.873192	9.99999	66.0102	66.0102	0	18.3362	11	0.0147722	0.000000000000000E+000	4.51933e+08	0.000000000000000E+000	0.000000000000000E+000	18.3362	18.3362	0.0000000E+000	0.000000000000000E+000	0.00873191
1	1	0	0	0	0	0	7579.96	10	0.873491	9.99999	66.3402	66.3402	0	18.4278	11	0.0148523	0.000000000000000E+000	4.53266e+08	0.000000000000000E+000	0.000000000000000E+000	18.4278	18.4278	0.0000000E+000	0.000000000000000E+000	0.00873489
1	1	0	0	0	0	0	7612.96	10	0.873912	10.0007	66.6702	66.6702	0	18.5195	11	0.0149324	0.000000000000000E+000	4.54212e+08	0.000000000000000E+000	0.000000000000000E+000	18.5195	18.5195	0.0000000E+000	0.000000000000000E+000	0.00873978
1	1	0	0	0	0	0	7645.96	10	0.87452	10.0004	67.0002	67.0002	0	18.6112	11	0.0150126	0.000000000000000E+000	4.54578e+08	0.000000000000000E+000	0.000000000000000E+000	18.6112	18.6112	0.0000000E+000	0.000000000000000E+000	0.00874558
1	1	0	0	0	0	0	7678.96	10	0.876086	9.99973	67.3302	67.3302	0	18.7028	11	0.0150929	0.000000000000000E+000	4.52016e+08	0.000000000000000E+000	0.000000000000000E+000	18.7028	18.7028	0.0000000E+000	0.000000000000000E+000	0.00876062
1	1	0	0	0	0	0	7711.96	10	0.875876	10.0005	67.6602	67.6602	0	18.7945	11	0.0151731	0.000000000000000E+000	4.5487e+08	0.000000000000000E+000	0.000000000000000E+000	18.7945	18.7945	0.0000000E+000	0.000000000000000E+000	0.0087592
1	1	0	0	0	0	0	7744.96	10	0.876183	9.99948	67.9902	67.9902	0	18.8862	11	0.0152534	0.000000000000000E+000	4.5615e+08	0.000000000000000E+000	0.000000000000000E+000	18.8862	18.8862	0.0000000E+000	0.000000000000000E+000	0.00876137
1	1	0	0	0	0	0	7777.96	10	0.876568	10.0002	68.3202	68.3202	0	18.9778	11	0.0153338	0.000000000000000E+000	4.57181e+08	0.000000000000000E+000	0.000000000000000E+000	18.9778	18.9778	0.0000000E+000	0.000000000000000E+000	0.00876589
1	1	0	0	0	0	0	7810.96	10	0.876305	10.0006	68.6502	68.6502	0	19.0695	11	0.0154141	0.000000000000000E+000	4.60201e+08	0.000000000000000E+000	0.000000000000000E+000	19.0695	19.0695	0.0000000E+000	0.000000000000000E+000	0.00876354
1	1	0	0	0	0	0	7843.96	10	0.876424	10.0004	68.9802	68.9802	0	19.1612	11	0.0154945	0.000000000000000E+000	4.62044e+08	0.000000000000000E+000	0.000000000000000E+000	19.1612	19.1612	0.0000000E+000	0.000000000000000E+000	0.00876462
1	1	0	0	0	0	0	7876.96	10	0.878512	10.0002	69.3102	69.3102	0	19.2528	11	0.015575	0.000000000000000E+000	4.57849e+08	0.000000000000000E+000	0.000000000000000E+000	19.2528	19.2528	0.0000000E+000	0.000000000000000E+000	0.00878533
1	1	0	0	0	0	0	7909.96	10	0.878929	9.99897	69.6403	69.6403	0	19.3445	11	0.0156555	0.000000000000000E+000	4.58766e+08	0.000000000000000E+000	0.000000000000000E+000	19.3445	19.3445	0.0000000E+000	0.000000000000000E+000	0.00878839
1	1	0	0	0	0	0	7942.96	10	0.878342	9.99986	69.9703	69.9703	0	19.4362	11	0.015736	0.000000000000000E+000	4.6273e+08	0.000000000000000E+000	0.000000000000000E+000	19.4362	19.4362	0.0000000E+000	0.000000000000000E+000	0.0087833
1	1	0	0	0	0	0	7975.96	10	0.879532	10.0009	70.3003	70.3003	0	19.5278	11	0.0158166	0.000000000000000E+000	4.61282e+08	0.000000000000000E+000	0.000000000000000E+000	19.5278	19.5278	0.0000000E+000	0.000000000000000E+000	0.00879615
1	1	0	0	0	0	0	8008.96	10	0.878827	9.99973	70.6303	70.6303	0	19.6195	11	0.0158972	0.000000000000000E+000	4.65601e+08	0.000000000000000E+000	0.000000000000000E+000	19.6195	19.6195	0.0000000E+000	0.000000000000000E+000	0.00878804
1	1	0	0	0	0	0	8041.96	10	0.880626	9.99992	70.9603	70.9603	0	19.7112	11	0.0159779	0.000000000000000E+000	4.62296e+08	0.000000000000000E+000	0.000000000000000E+000	19.7112	19.7112	0.0000000E+000	0.000000000000000E+000	0.00880619
1	1	0	0	0	0	0	8074.96	10	0.881594	10.0002	71.2903	71.2903	0	19.8029	11	0.0160586	0.000000000000000E+000	4.61533e+08	0.000000000000000E+000	0.000000000000000E+000	19.8029	19.8029	0.0000000E+000	0.000000000000000E+000	0.0088161
1	1	0	0	0	0	0	8107.96	10	0.881295	10.0006	71.6203	71.6203	0	19.8945	11	0.0161394	0.000000000000000E+000	4.6457e+08	0.000000000000000E+000	0.000000000000000E+000	19.8945	19.8945	0.0000000E+000	0.000000000000000E+000	0.00881344
1	1	0	0	0	0	0	8140.96	10	0.881242	10.0004	71.9503	71.9503	0	19.9862	11	0.0162202	0.000000000000000E+000	4.66871e+08	0.000000000000000E+000	0.000000000000000E+000	19.9862	19.9862	0.0000000E+000	0.000000000000000E+000	0.0088128
1	1	0	0	0	0	0	8146.01	10	0.882587	9.99967	72.0008	72.0008	0	20.0002	11	0.0162326	0.000000000000000E+000	4.63156e+08	0.000000000000000E+000	0.000000000000000E+000	20.0002	20.0002	0.0000000E+000	0.000000000000000E+000	0.00882558