File: Data_Lola/CoNiFeNx_400ºC_24h_13102022/Electrodes_19012023/2023_01_20_CoNiFeNx_400ºC_24h_electrode2_19012023_C05.mpt
EC-Lab ASCII FILE
Nb header lines : 64

Potentio Electrochemical Impedance Spectroscopy

Run on channel : 5 (SN 30436)
User :
CE vs. WE compliance from -10 V to 10 V
Electrode connection : standard
Potential control : Ewe
Ewe ctrl range : min = -2.50 V, max = 2.50 V
Safety Limits :
	Do not start on E overload
Acquisition started on : 01/20/2023 12:55:05.618
Loaded Setting File :  NONE
Saved on :
	File : 2023_01_20_CoNiFeNx_400ºC_24h_electrode2_19012023_C05.mpr
	Directory : C:\Users\grupogalan\Documents\EC-Lab\Data\Lole Jurado\
	Host : 169.254.104.159
Device : VSP (SN 1176)
Address : USB
EC-Lab for windows v11.46 (software)
Internet server v11.40 (firmware)
Command interpretor v11.40 (firmware)
Electrode material :
Initial state :
Electrolyte :
Comments :
Electrode surface area : 0.001 cm²
Characteristic mass : 0.001 g
Equivalent Weight : 0.000 g/eq.
Density : 0.000 g/cm3
Volume (V) : 0.001 cm³
Record Ece
Cycle Definition : Charge/Discharge alternance
Mode                Single sine
E (V)               0.0000
vs.                 Eoc
tE (h:m:s)          0:00:0.0000
record              0
dI                  0.000
unit dI             mA
dt (s)              0.000
fi                  200.000
unit fi             kHz
ff                  100.000
unit ff             mHz
Nd                  6
Points              per decade
spacing             Logarithmic
Va (mV)             10.0
pw                  0.10
Na                  2
corr                0
E range min (V)     -2.500
E range max (V)     2.500
I Range             Auto
Bandwidth           5
nc cycles           0
goto Ns'            0
nr cycles           0
inc. cycle          0

freq/Hz	Re(Z)/Ohm	-Im(Z)/Ohm	|Z|/Ohm	Phase(Z)/deg	time/s	<Ewe>/V	<I>/mA	Cs/µF	Cp/µF	cycle number	I Range	|Ewe|/V	|I|/A	Ns	(Q-Qo)/mA.h	<Ece>/V	|Ece|/V	Phase(Zce)/deg	|Zce|/Ohm	Re(Zce)/Ohm	-Im(Zce)/Ohm	Phase(Zwe-ce)/deg	|Zwe-ce|/Ohm	Re(Zwe-ce)/Ohm	-Im(Zwe-ce)/Ohm	Re(Y)/Ohm-1	Im(Y)/Ohm-1	|Y|/Ohm-1	Phase(Y)/deg	dq/mA.h
199998	1.52329	-1.47102	2.11762	43.9999	2.05755	-0.0814757	-0.0878881	-0.540972	-0.261046	1	9	0.00731784	0.00345568	0	-2.71462e-05	-0.088854	0.00206778	-47.7104	0.598369	0.40263	0.442645	28.1007	2.18329	1.92592	-1.02838	0.339693	-0.328036	0.472228	-43.9999	-2.71462e-05
135123	0.947652	-0.75645	1.21254	38.5981	2.43456	-0.0809819	-0.0484567	-1.55708	-0.606007	1	9	0.00956245	0.00788628	0	-5.45425e-05	-0.0847281	0.00705057	6.68569	0.89403	0.88795	-0.104085	25.1173	2.0273	1.8356	-0.860535	0.644547	-0.514501	0.824713	-38.5981	-2.73962e-05
91291.2	0.805948	-0.397951	0.898842	26.2787	2.93352	-0.0814417	-0.169956	-4.38088	-0.858725	1	9	0.00959824	0.0106784	0	-8.38471e-05	-0.0992453	0.0108433	6.88296	1.01544	1.00812	-0.121692	15.9844	1.88703	1.81407	-0.519643	0.997563	-0.492564	1.11254	-26.2787	-2.93046e-05
61674.2	0.734143	-0.150394	0.749389	11.5772	3.67652	-0.0814017	-0.124934	-17.1587	-0.691087	1	9	0.00893712	0.0119259	0	-0.000123148	-0.0925406	0.0131365	3.33792	1.10151	1.09964	-0.0641352	6.67254	1.84629	1.83379	-0.214529	1.30727	-0.267803	1.33442	-11.5772	-3.9301e-05
41669.8	0.714678	0.0127495	0.714792	-1.02202	4.17554	-0.0816234	-0.197013	299.576	0.0953084	1	9	0.0097876	0.0136929	0	-0.000133606	-0.0783481	0.014315	5.6177	1.04543	1.04041	-0.102337	2.92211	1.75737	1.75508	-0.0895878	1.39879	0.0249535	1.39901	1.02202	-1.04582e-05
28151	0.754529	0.0593	0.756856	-4.49376	4.55256	-0.0809076	-0.0778996	95.3392	0.585269	1	9	0.0101454	0.0134046	0	-0.000161042	-0.0834674	0.0145654	-2.1233	1.0866	1.08585	0.0402586	-3.0965	1.84307	1.84038	0.0995586	1.31719	0.103521	1.32126	4.49376	-2.74352e-05
19020.9	0.778639	0.273758	0.825362	-19.3709	5.17353	-0.0814086	-0.300138	30.5647	3.36253	1	9	0.00893571	0.0108264	0	-0.000369206	-0.0856067	0.0114974	1.38374	1.06198	1.06167	-0.025645	-7.67842	1.85696	1.84031	0.248113	1.143	0.401863	1.21159	19.3709	-0.000208165
12850.7	0.828576	0.294289	0.879286	-19.5537	5.67256	-0.0800975	-0.0832292	42.0841	4.71418	1	9	0.00975688	0.0110964	0	-0.000388385	-0.0840213	0.012527	-0.197827	1.12893	1.12893	0.00389789	-8.66131	1.98008	1.9575	0.298187	1.0717	0.380639	1.13729	19.5537	-1.91786e-05
8684.68	0.872648	0.401483	0.960574	-24.706	6.04952	-0.081297	-0.163769	45.6456	7.97392	1	9	0.00961804	0.0100128	0	-0.0003872	-0.0867337	0.0109487	-1.2002	1.09347	1.09323	0.0229037	-12.1819	2.01116	1.96588	0.424387	0.945752	0.435117	1.04104	24.706	1.1845e-06
5864.01	0.857244	0.728419	1.12493	-40.3553	6.42654	-0.0810518	-0.189261	37.2601	15.6227	1	9	0.0105408	0.0093702	0	-0.000396827	-0.0940305	0.0103081	-5.75467	1.10009	1.09455	0.110305	-23.2542	2.12437	1.95179	0.838724	0.677416	0.575615	0.888947	40.3553	-9.62639e-06
3960.08	0.944696	0.915366	1.31543	-44.0966	6.72781	-0.0825911	-0.190864	43.9058	21.2608	1	9	0.0095749	0.00727893	0	-0.000408861	-0.103371	0.00808005	-8.69357	1.11006	1.09731	0.167785	-27.9431	2.31149	2.042	1.08315	0.545958	0.529008	0.76021	44.0966	-1.20345e-05
2678.72	0.894611	1.40431	1.66505	-57.5009	7.36214	-0.0805493	-0.184565	42.3088	30.0952	1	9	0.0104975	0.00630457	0	-0.000449459	-0.0845562	0.00730735	-8.5425	1.15905	1.1462	0.17217	-37.6853	2.57879	2.04081	1.57648	0.322684	0.50653	0.600581	57.5009	-4.05973e-05
1808.26	1.07731	2.05577	2.32095	-62.3435	7.80809	-0.0812992	-0.161533	42.8138	33.5894	1	9	0.0106775	0.00460051	0	-0.000466257	-0.104479	0.00510073	-11.2597	1.10873	1.08739	0.216487	-46.3886	3.13833	2.1647	2.27226	0.199991	0.381631	0.430858	62.3435	-1.67984e-05
1221.96	1.16188	2.93974	3.16102	-68.4346	8.2516	-0.0815206	-0.220754	44.3053	38.3195	1	9	0.0102482	0.00324204	0	-0.000492109	-0.0823404	0.00470673	-19.0885	1.45178	1.37195	0.474771	-53.4218	4.25196	2.53383	3.41451	0.11628	0.294209	0.316354	68.4346	-2.58524e-05
825.264	0.952678	4.26078	4.36599	-77.3964	10.2188	-0.0811835	-0.0381063	45.2625	43.1074	1	10	0.0110895	0.00253998	0	-0.000537106	-0.0876506	0.00303599	-14.3623	1.19528	1.15792	0.296492	-65.1498	5.02229	2.1106	4.55727	0.0499783	0.223524	0.229043	77.3964	-4.49967e-05
558.036	1.30352	5.91273	6.05471	-77.5674	10.6656	-0.0802325	-0.0347323	48.2359	46.0001	1	10	0.0107552	0.00177633	0	-0.000542597	-0.0900192	0.00273222	2.52177	1.53813	1.53664	-0.0676761	-64.0845	6.49855	2.84016	5.84505	0.0355575	0.161288	0.165161	77.5674	-5.49134e-06
377.051	1.69756	8.51207	8.6797	-78.7215	11.1098	-0.0816358	-0.0332895	49.5889	47.6921	1	10	0.0106226	0.00122384	0	-0.000545614	-0.0846517	0.00185612	-37.942	1.51663	1.19606	0.932521	-72.966	9.87793	2.89363	9.44459	0.0225329	0.112986	0.115211	78.7215	-3.0164e-06
254.755	1.63408	12.773	12.8771	-82.7096	11.5561	-0.0802569	-0.0127733	48.9107	48.1231	1	10	0.0108569	0.000843118	0	-0.000546574	-0.0899046	0.00215733	-38.6133	2.55875	1.99934	1.59682	-75.8101	14.822	3.63342	14.3698	0.00985454	0.0770295	0.0776573	82.7096	-9.60007e-07
172.037	2.14364	17.7657	17.8946	-83.1198	11.9965	-0.081513	-0.0227425	52.0734	51.3261	1	10	0.0104381	0.000583309	0	-0.000549293	-0.069867	0.00149968	-76.2314	2.57099	0.611897	2.49711	-82.2559	20.4493	2.75554	20.2628	0.00669438	0.0554805	0.0558829	83.1198	-2.71948e-06
116.227	3.7307	25.8147	26.0829	-81.7767	12.8887	-0.0807103	-0.00222653	53.0449	51.9597	1	11	0.0098617	0.00037809	0	-0.000550837	-0.112483	0.0013979	-53.0509	3.69728	2.22245	2.95475	-78.309	29.379	5.95315	28.7695	0.00548375	0.0379451	0.0383393	81.7767	-1.54336e-06
78.5176	6.34282	35.9469	36.5022	-79.9932	13.3427	-0.0806952	-0.00998566	56.3887	54.686	1	11	0.00959332	0.000262815	0	-0.000551833	-0.093935	0.00168221	-38.7124	6.40072	4.99445	4.00309	-74.1568	41.5275	11.3373	39.95	0.00476042	0.0269789	0.0273956	79.9932	-9.96617e-07
53.0478	9.66479	53.8553	54.7157	-79.8261	13.8032	-0.0818243	-0.00626566	55.7088	53.9706	1	11	0.00973997	0.000178011	0	-0.000552453	-0.0877652	0.000490424	-67.4968	2.75503	1.05445	2.54525	-79.239	57.4102	10.7192	56.4006	0.00322826	0.0179889	0.0182763	79.8261	-6.20295e-07
35.8372	10.8332	73.0459	73.8448	-81.5641	14.2392	-0.0807146	-0.000327766	60.7982	59.4898	1	11	0.00959376	0.000129918	0	-0.000552292	-0.0776605	0.00095273	47.5399	7.33333	4.95055	-5.41015	-76.8643	69.453	15.7838	67.6357	0.00198663	0.0133954	0.0135419	81.5641	1.6097e-07
24.2323	14.665	98.1578	99.2472	-81.5027	14.6982	-0.0804782	-0.00126653	66.9115	65.4505	1	11	0.00907586	9.1447e-05	0	-0.000552687	-0.0938013	0.000449257	81.6178	4.91276	0.716162	-4.86028	-80.6383	94.5569	15.3812	93.2975	0.00148883	0.00996525	0.0100758	81.5027	-3.94314e-07
16.367	16.4537	152.876	153.759	-83.857	15.3351	-0.0809918	-0.000679015	63.6083	62.8799	1	12	0.00975859	6.3467e-05	0	-0.000552528	-0.102989	0.00128066	-79.164	20.1784	3.79352	19.8186	-83.313	173.877	20.2473	172.694	0.000695963	0.00646636	0.0065037	83.857	1.59151e-07
11.0502	26.6042	208.022	209.716	-82.7119	15.7408	-0.0800258	-0.000478543	69.2374	68.1232	1	12	0.00970367	4.62705e-05	0	-0.000552525	-0.0798572	0.000946518	-57.7455	20.4562	10.9171	17.2995	-80.5457	228.424	37.5213	225.321	0.000604905	0.00472983	0.00476835	82.7119	2.18296e-09
7.46893	80.4707	300.949	311.521	-75.0299	16.0487	-0.0800337	-0.00123536	70.8059	66.0812	1	12	0.0102236	3.28184e-05	0	-0.000552775	-0.0848236	0.00124	-50.447	37.7836	24.0603	29.1325	-72.4279	346.237	104.531	330.081	0.000829205	0.00310111	0.00321005	75.0299	-2.49195e-07
5.04683	109.8	454.221	467.304	-76.4105	16.4911	-0.0801885	0.000419441	69.4278	65.5948	1	12	0.010359	2.21675e-05	0	-0.0005527	-0.100659	0.000549789	-89.684	24.8015	0.136808	24.8011	-77.0743	491.476	109.937	479.022	0.000502808	0.00208003	0.00213993	76.4105	7.42453e-08
3.4086	116.772	552.191	564.403	-78.0596	17.1324	-0.0808556	-0.000436757	84.5581	80.9386	1	12	0.00900334	1.5952e-05	0	-0.000552667	-0.0869057	0.000670161	11.508	42.0112	41.1667	-8.38141	-73.8051	566.28	157.939	543.81	0.000366573	0.00173345	0.00177178	78.0596	3.3829e-08
2.30321	183.83	786.935	808.121	-76.8514	18.5464	-0.0813585	-0.000797149	87.8106	83.2668	1	13	0.00983724	1.2173e-05	0	-0.000552874	-0.0951193	0.000577509	-102.077	47.4419	-9.92572	46.392	-78.2123	851.279	173.904	833.327	0.00028149	0.001205	0.00123744	76.8514	-2.07931e-07
1.55627	331.596	1242.56	1286.05	-75.058	20.5841	-0.0803644	-0.000412738	82.303	76.8313	1	12	0.0105374	8.19363e-06	0	-0.000553134	-0.0704592	0.00132211	-65.118	161.359	67.8918	146.381	-73.9537	1445.25	399.487	1388.94	0.000200491	0.000751285	0.000777577	75.058	-2.59955e-07
1.05233	308.67	1548.84	1579.3	-78.7291	23.597	-0.0808528	-0.0002716	97.6474	93.9173	1	13	0.0100225	6.3462e-06	0	-0.000553618	-0.0945845	0.00081467	-62.047	128.371	60.1738	113.395	-77.489	1702.67	368.844	1662.24	0.000123756	0.00062098	0.000633192	78.7291	-4.83923e-07
0.710357	655.605	2264.38	2357.38	-73.8527	41.3838	-0.0809829	-0.000562234	98.9452	91.2924	1	13	0.0100916	4.28085e-06	0	-0.000555441	-0.07193	0.000559395	-67.1186	130.674	50.8093	120.391	-73.4997	2487.2	706.414	2384.77	0.000117973	0.000407466	0.0004242	73.8527	-1.82277e-06
0.480355	824.053	3341.17	3441.29	-76.1453	69.6707	-0.0808795	-0.000576986	99.1651	93.4789	1	13	0.010188	2.96052e-06	0	-0.000559764	-0.0889304	0.000884147	-67.2223	298.646	115.622	275.355	-75.435	3736.61	939.676	3616.52	6.95845e-05	0.000282134	0.000290589	76.1453	-4.32322e-06
0.324439	1198.05	4227.26	4393.75	-74.1767	107.762	-0.081098	-0.000365509	116.045	107.417	1	13	0.010113	2.30168e-06	0	-0.000563201	-0.129158	0.000724545	-64.5899	314.789	135.074	284.336	-73.5382	4704.44	1333.12	4511.6	6.20588e-05	0.000218972	0.000227596	74.1767	-3.43647e-06
0.218838	2226.33	6003.35	6402.87	-69.6528	167.7	-0.0810802	-0.000290494	121.145	106.498	1	13	0.0100773	1.57387e-06	0	-0.000569642	-0.0813471	0.00062993	-59.9191	400.243	200.61	346.338	-69.0824	6797.69	2426.94	6349.68	5.43051e-05	0.000146435	0.00015618	69.6528	-6.44104e-06
0.147897	2906.11	7432.06	7980.03	-68.6434	250.416	-0.081116	-0.000151038	144.795	125.592	1	13	0.00976546	1.22374e-06	0	-0.000575264	-0.0901147	0.000579333	-51.8391	473.413	292.508	372.235	-67.7136	8434.34	3198.61	7804.29	4.56354e-05	0.000116708	0.000125313	68.6434	-5.62189e-06
0.0999041	5645.75	11202.3	12544.5	-63.2527	372.607	-0.0810903	0.000216944	142.21	113.405	1	13	0.0100768	8.03285e-07	0	-0.00057584	-0.0855303	0.000612786	-58.4163	762.85	399.538	649.854	-62.9757	13304.8	6045.29	11852.1	3.58767e-05	7.11864e-05	7.9716e-05	63.2527	-5.76652e-07