File: Data_Lola/CoNiFeNx_400ºC_24h_13102022/Electrodes_19012023/2023_01_20_CoNiFeNx_400ºC_24h_electrode1_19012023_1_01_CV_C01.mpt
EC-Lab ASCII FILE
Nb header lines : 57

Cyclic Voltammetry

Run on channel : 1 (SN 21648)
User :
CE vs. WE compliance from -10 V to 10 V
Electrode connection : standard
Potential control : Ewe
Ewe ctrl range : min = -2.50 V, max = 2.50 V
Safety Limits :
	Do not start on E overload
Acquisition started on : 01/20/2023 16:29:26.125
Loaded Setting File :  C:\Users\grupogalan\Documents\EC-Lab\Data\Lole Jurado\2023_01_20_CoNiFeNx_400ºC_24h_electrode2_19012023_1.mps
Saved on :
	File : 2023_01_20_CoNiFeNx_400ºC_24h_electrode1_19012023_1_01_CV_C01.mpr
	Directory : C:\Users\grupogalan\Documents\EC-Lab\Data\Lole Jurado\
	Host : 169.254.104.159
Device : VSP (SN 1176)
Address : USB
EC-Lab for windows v11.46 (software)
Internet server v11.40 (firmware)
Command interpretor v11.40 (firmware)
Electrode material :
Initial state :
Electrolyte :
Comments :
Electrode surface area : 0.000 cm²
Characteristic mass : 0.001 g
Equivalent Weight : 0.000 g/eq.
Density : 0.000 g/cm3
Volume (V) : 0.001 cm³
Cycle Definition : Charge/Discharge alternance
Ei (V)              0.000
vs.                 Eoc
dE/dt               10.000
dE/dt unit          mV/s
E1 (V)              1.000
vs.                 Ref
Step percent        50
N                   10
E range min (V)     -2.500
E range max (V)     2.500
I Range             Auto
I Range min         Unset
I Range max         Unset
I Range init        Unset
Bandwidth           5
E2 (V)              0.000
vs.                 Ref
nc cycles           2
Reverse Scan        1
Ef (V)              0.000
vs.                 Eoc

mode	ox/red	error	control changes	counter inc.	time/s	control/V	Ewe/V	<I>/mA	cycle number	(Q-Qo)/C	I Range	P/W
2	1	0	0	0	0.000000000000000E+000	-0.0714016	-0.0718247	0.048122	1	0.0000000E+000	13	-3.45635e-06
2	0	0	1	0	0.8852	-0.0625515	-0.0646202	0.0013654	1	8.82891e-07	12	-8.82321e-08
2	0	0	1	0	1.7852	-0.0535513	-0.0561014	0.00149896	1	2.70453e-06	12	-8.40936e-08
2	0	0	1	0	2.6852	-0.0445511	-0.0488269	0.0019946	1	4.97624e-06	12	-9.73899e-08
2	1	0	1	0	3.5852	-0.035551	-0.0393523	0.00250011	1	7.55063e-06	12	-9.8385e-08
2	1	0	1	0	4.4852	-0.0265508	-0.0271559	0.00243503	1	1.04751e-05	12	-6.61254e-08
2	1	0	1	0	5.3852	-0.0175506	-0.0186849	0.00320427	1	1.38337e-05	12	-5.98714e-08
2	1	0	1	0	6.2852	-0.00855047	-0.00643333	0.00358202	1	1.74685e-05	12	-2.30443e-08
2	1	0	1	0	7.1852	0.000449733	0.00476596	0.00399217	1	2.14934e-05	12	1.90265e-08
2	1	0	1	0	8.0852	0.00944987	0.012975	0.00449376	1	2.59994e-05	12	5.83066e-08
2	1	0	1	0	8.9852	0.01845	0.0221631	0.00532328	1	3.08204e-05	12	1.17981e-07
2	0	0	1	0	9.8852	0.0274502	0.0325393	0.00599754	1	3.60706e-05	12	1.95156e-07
2	0	0	1	0	10.7852	0.0364504	0.0378844	0.00665238	1	4.18278e-05	12	2.52021e-07
2	1	0	0	0	11.6854	0.0454505	0.0457763	0.00692259	1	4.80177e-05	12	3.16891e-07
2	1	0	0	0	12.5854	0.0544507	0.0542707	0.00726028	1	5.47037e-05	12	3.9402e-07
2	1	0	0	0	13.4854	0.0634509	0.0608759	0.00757889	1	6.19636e-05	12	4.61371e-07
2	1	0	0	0	14.3854	0.072451	0.0660247	0.00841501	1	6.97834e-05	12	5.55599e-07
2	0	0	0	0	15.2854	0.0814512	0.0791429	0.00953917	1	7.82702e-05	12	7.54958e-07
2	1	0	0	0	16.1854	0.0904514	0.0888529	0.0104854	1	8.74892e-05	12	9.3166e-07
2	1	0	0	0	17.0854	0.0994515	0.100291	0.0118535	1	9.7686e-05	12	1.1888e-06
2	1	0	0	0	17.9854	0.108452	0.106699	0.0129462	1	0.000109042	12	1.38135e-06
2	1	0	0	0	18.8854	0.117452	0.115488	0.0146086	1	0.000121804	12	1.68712e-06
2	1	0	0	0	19.7854	0.126452	0.129186	0.0167382	1	0.000136415	12	2.16234e-06
2	1	0	0	0	20.6854	0.135452	0.138447	0.0192948	1	0.000153065	12	2.6713e-06
2	1	0	0	0	21.5854	0.144452	0.144901	0.0216701	1	0.000171836	12	3.14003e-06
2	1	0	1	0	22.4856	0.153453	0.153085	0.0236762	1	0.000192799	12	3.62447e-06
2	1	0	1	0	23.3856	0.162453	0.162413	0.0259223	1	0.000215642	12	4.21011e-06
2	1	0	1	0	24.2856	0.171453	0.169641	0.027704	1	0.000240202	12	4.69973e-06
2	1	0	1	0	25.1856	0.180453	0.179034	0.0293258	1	0.000266447	12	5.25032e-06
2	1	0	1	0	26.0856	0.189453	0.187527	0.0309518	1	0.000294279	12	5.8043e-06
2	1	0	1	0	26.9856	0.198453	0.195717	0.0329021	1	0.000323624	12	6.43951e-06
2	1	0	1	0	27.8856	0.207454	0.207215	0.0345343	1	0.000354573	12	7.15604e-06
2	1	0	1	0	28.7856	0.216454	0.217062	0.0366629	1	0.000387176	12	7.95813e-06
2	1	0	1	0	29.6856	0.225454	0.227739	0.0384531	1	0.000421501	12	8.75725e-06
2	1	0	1	0	30.5856	0.234454	0.23738	0.0405463	1	0.00045766	12	9.62486e-06
2	1	0	1	0	31.4856	0.243454	0.243446	0.042789	1	0.000495863	12	1.04168e-05
2	1	0	0	0	32.3858	0.252454	0.252999	0.0450852	1	0.000536197	12	1.14065e-05
2	1	0	0	0	33.2858	0.261455	0.261539	0.0476917	1	0.00057884	12	1.24733e-05
2	1	0	0	0	34.1858	0.270455	0.269465	0.0501321	1	0.000624063	12	1.35088e-05
2	1	0	0	0	35.0858	0.279455	0.277279	0.0534937	1	0.000672076	12	1.48327e-05
2	1	0	0	0	35.9858	0.288455	0.287099	0.0571709	1	0.000723151	12	1.64137e-05
2	1	0	0	0	36.8858	0.297455	0.297218	0.0607754	1	0.000777605	12	1.80636e-05
2	1	0	0	0	37.7858	0.306455	0.30464	0.065541	1	0.000835941	12	1.99664e-05
2	1	0	0	0	38.6858	0.315456	0.315323	0.0702862	1	0.000898569	12	2.21629e-05
2	1	0	0	0	39.5858	0.324456	0.324545	0.0757092	1	0.000966022	12	2.4571e-05
2	1	0	0	0	40.4858	0.333456	0.332231	0.083001	1	0.00103909	12	2.75755e-05
2	1	0	0	0	41.3858	0.342456	0.341164	0.0895731	1	0.00111835	12	3.05591e-05
2	1	0	0	0	42.2858	0.351456	0.350411	0.0980928	1	0.00120448	12	3.43728e-05
2	1	0	1	0	43.186	0.360456	0.35878	0.107096	1	0.00129838	12	3.84238e-05
2	1	0	1	0	44.086	0.369457	0.368715	0.116573	1	0.00140054	12	4.29822e-05
2	1	0	1	0	44.986	0.378457	0.377059	0.126948	1	0.00151168	12	4.78667e-05
2	1	0	1	0	45.886	0.387457	0.38845	0.138409	1	0.00163266	12	5.37651e-05
2	1	0	1	0	46.786	0.396457	0.397183	0.14977	1	0.00176412	12	5.9486e-05
2	1	0	1	0	47.686	0.405457	0.406963	0.163391	1	0.00190691	12	6.64941e-05
2	1	0	1	0	48.586	0.414457	0.416409	0.176685	1	0.00206196	12	7.35731e-05
2	1	0	1	0	49.486	0.423458	0.424654	0.192049	1	0.00223018	12	8.15542e-05
2	1	0	1	0	50.386	0.432458	0.433361	0.208768	1	0.00241292	12	9.04719e-05
2	1	0	1	0	51.286	0.441458	0.440014	0.226706	1	0.00261154	12	9.97539e-05
2	1	0	1	0	52.186	0.450458	0.449918	0.248493	1	0.00282794	12	0.000111801
2	1	0	1	0	53.086	0.459458	0.457708	0.270454	1	0.00306405	12	0.000123789
2	1	0	0	0	53.9862	0.468458	0.470542	0.292762	1	0.00332036	12	0.000137757
2	1	0	0	0	54.8862	0.477459	0.479973	0.315386	1	0.00359732	12	0.000151377
2	1	0	0	0	55.7862	0.486459	0.487403	0.337443	1	0.00389445	12	0.000164471
2	1	0	0	0	56.6862	0.495459	0.495331	0.359816	1	0.00421143	12	0.000178228
2	1	0	0	0	57.5862	0.504459	0.505073	0.384119	1	0.00454901	12	0.000194008
2	1	0	0	0	58.4862	0.513459	0.508489	0.408541	1	0.00490758	12	0.000207738
2	1	0	0	0	59.3862	0.522459	0.519645	0.435365	1	0.00528984	12	0.000226235
2	1	0	0	0	60.2862	0.53146	0.528566	0.461096	1	0.00569519	12	0.00024372
2	1	0	0	0	61.1862	0.54046	0.538336	0.48963	1	0.00612462	12	0.000263586
2	1	0	0	0	62.0862	0.54946	0.548754	0.51695	1	0.00657971	12	0.000283678
2	1	0	0	0	62.9862	0.55846	0.561059	0.550903	1	0.00706192	12	0.000309089
2	1	0	1	0	63.8864	0.567461	0.567055	0.585228	1	0.00757552	12	0.000331857
2	1	0	1	0	64.7864	0.57646	0.575462	0.632574	1	0.0081254	12	0.000364022
2	1	0	1	0	65.6864	0.58546	0.585317	0.694104	1	0.00872328	12	0.000406271
2	1	0	1	0	66.5864	0.594461	0.593645	0.780979	1	0.00938759	12	0.000463624
2	1	0	1	0	67.4864	0.603461	0.602706	0.916785	1	0.0101504	12	0.000552552
2	1	0	1	0	68.4164	0.612761	0.612953	1.12574	1	0.0111017	11	0.000690024
2	1	0	1	0	69.3164	0.621761	0.623409	1.424	1	0.0122473	11	0.000887738
2	1	0	1	0	70.2164	0.630761	0.631111	1.85105	1	0.0137179	11	0.00116822
2	1	0	1	0	71.1164	0.639762	0.6404	2.4127	1	0.0156331	11	0.00154509
2	1	0	1	0	72.0164	0.648762	0.648255	3.13333	1	0.0181256	11	0.0020312
2	1	0	1	0	72.9164	0.657762	0.65741	4.00928	1	0.0213362	11	0.00263574
2	1	0	1	0	73.8164	0.666762	0.666972	5.03845	1	0.0254052	11	0.0033605
2	1	0	0	0	74.7166	0.675762	0.676299	6.22803	1	0.0304747	11	0.00421201
2	1	0	0	0	75.6166	0.684762	0.683997	7.54132	1	0.0366723	11	0.00515823
2	1	0	0	0	76.5166	0.693763	0.694172	9.00046	1	0.0441168	11	0.00624787
2	1	0	0	0	77.4166	0.702763	0.702443	10.5758	1	0.0529274	11	0.0074289
2	1	0	0	0	78.3466	0.712063	0.71138	12.3436	1	0.0636066	10	0.00878099
2	1	0	0	0	79.2466	0.721063	0.719715	14.1913	1	0.0755489	10	0.0102137
2	1	0	0	0	80.1466	0.730063	0.730516	16.1141	1	0.089182	10	0.0117716
2	1	0	0	0	81.0466	0.739063	0.74179	18.1491	1	0.104606	10	0.0134628
2	1	0	0	0	81.9466	0.748064	0.748926	20.2897	1	0.121915	10	0.0151955
2	1	0	0	0	82.8466	0.757064	0.756321	22.541	1	0.141198	10	0.0170483
2	1	0	0	0	83.7466	0.766064	0.765764	24.8528	1	0.162538	10	0.0190314
2	1	0	0	0	84.6466	0.775064	0.775657	27.2519	1	0.186007	10	0.0211382
2	1	0	1	0	85.5468	0.784064	0.784512	29.7705	1	0.211689	10	0.0233553
2	1	0	1	0	86.4468	0.793064	0.794796	32.3316	1	0.239639	10	0.025697
2	1	0	1	0	87.3468	0.802065	0.802708	35.0037	1	0.269947	10	0.0280977
2	1	0	1	0	88.2468	0.811065	0.812671	37.736	1	0.302682	10	0.030667
2	1	0	1	0	89.1468	0.820065	0.818387	40.4943	1	0.33788	10	0.03314
2	1	0	1	0	90.0468	0.829065	0.828602	43.3313	1	0.375598	10	0.0359044
2	1	0	1	0	90.9468	0.838065	0.837463	46.1791	1	0.415896	10	0.0386733
2	1	0	1	0	91.8468	0.847065	0.845262	49.1359	1	0.4588	10	0.0415327
2	1	0	1	0	92.7468	0.856066	0.853948	52.1283	1	0.504386	10	0.0445148
2	1	0	1	0	93.6468	0.865066	0.86347	55.1636	1	0.552687	10	0.0476322
2	1	0	1	0	94.5468	0.874066	0.871415	58.201	1	0.603703	10	0.0507172
2	1	0	1	0	95.447	0.883066	0.882543	61.25	1	0.657501	10	0.0540558
2	1	0	0	0	96.347	0.892066	0.889408	64.38	1	0.714051	10	0.0572601
2	1	0	0	0	97.247	0.901066	0.898505	67.5563	1	0.773428	10	0.0606997
2	1	0	0	0	98.147	0.910066	0.909725	70.7237	1	0.835663	10	0.0643391
2	1	0	0	0	99.047	0.919067	0.917984	73.8535	1	0.900753	10	0.0677964
2	1	0	0	0	99.947	0.928067	0.92882	76.9784	1	0.968649	10	0.071499
2	1	0	0	0	100.847	0.937067	0.937458	80.1768	1	1.03937	10	0.0751624
2	1	0	0	0	101.747	0.946067	0.946859	83.3791	1	1.11297	10	0.0789483
2	1	0	0	0	102.647	0.955067	0.954071	86.6784	1	1.18949	10	0.0826974
2	1	0	0	0	103.547	0.964068	0.963426	89.9815	1	1.26902	10	0.0866905
2	1	0	0	0	104.447	0.973068	0.972565	93.128	1	1.35145	10	0.0905731
2	1	0	0	0	105.347	0.982068	0.982559	96.3734	1	1.43674	10	0.0946925
2	1	0	1	0	106.247	0.991068	0.991832	99.5234	1	1.52493	10	0.0987104
2	1	0	1	0	107.117	0.999768	1.00002	102.939	1	1.61305	10	0.102941
2	1	0	1	0	107.898	0.992468	0.991779	99.582	1	1.69208	10	0.0987633
2	1	0	0	0	108.798	0.983468	0.983663	95.4052	1	1.7798	10	0.0938465
2	1	0	0	0	109.698	0.974468	0.974305	91.6349	1	1.86397	10	0.0892804
2	1	0	0	0	110.598	0.965468	0.96624	88.0934	1	1.94479	10	0.0851194
2	1	0	0	0	111.498	0.956467	0.959762	84.3879	1	2.0224	10	0.0809923
2	1	0	0	0	112.398	0.947467	0.948368	80.7355	1	2.0967	10	0.0765669
2	1	0	0	0	113.298	0.938467	0.938752	77.3455	1	2.16788	10	0.0726083
2	1	0	0	0	114.198	0.929467	0.929129	73.7465	1	2.23586	10	0.06852
2	1	0	0	0	115.098	0.920467	0.919138	70.4699	1	2.30072	10	0.0647716
2	1	0	0	0	115.998	0.911467	0.911555	67.1098	1	2.36259	10	0.0611743
2	1	0	0	0	116.898	0.902466	0.90378	63.8344	1	2.42148	10	0.0576922
2	1	0	0	0	117.798	0.893466	0.890279	60.5732	1	2.47745	10	0.053927
2	1	0	0	0	118.698	0.884466	0.883173	57.4623	1	2.53057	10	0.0507492
2	1	0	1	0	119.598	0.875466	0.876716	54.391	1	2.58093	10	0.0476855
2	1	0	1	0	120.498	0.866466	0.865752	51.4785	1	2.62855	10	0.0445676
2	1	0	1	0	121.398	0.857466	0.856061	48.5103	1	2.67351	10	0.0415278
2	1	0	1	0	122.298	0.848465	0.846279	45.6717	1	2.71587	10	0.038651
2	1	0	1	0	123.198	0.839465	0.83659	42.9931	1	2.75578	10	0.0359676
2	1	0	1	0	124.098	0.830465	0.830837	40.3619	1	2.79327	10	0.0335342
2	1	0	1	0	124.998	0.821465	0.821878	37.7205	1	2.82839	10	0.0310016
2	1	0	1	0	125.898	0.812465	0.811381	35.1746	1	2.86118	10	0.02854
2	1	0	1	0	126.798	0.803465	0.803757	32.7618	1	2.89172	10	0.0263325
2	1	0	1	0	127.698	0.794464	0.798377	30.3551	1	2.92009	10	0.0242348
2	1	0	1	0	128.598	0.785464	0.783685	28.0746	1	2.94636	10	0.0220017
2	1	0	0	0	129.498	0.776464	0.774771	25.8388	1	2.97061	10	0.0200192
2	1	0	0	0	130.398	0.767464	0.764569	23.6923	1	2.99288	10	0.0181144
2	1	0	0	0	131.298	0.758464	0.758708	21.6506	1	3.01328	10	0.0164265
2	1	0	0	0	132.198	0.749464	0.749281	19.6838	1	3.03187	10	0.0147487
2	1	0	0	0	133.098	0.740463	0.740279	17.7939	1	3.04871	10	0.0131725
2	1	0	0	0	133.998	0.731463	0.730079	15.9994	1	3.06391	10	0.0116808
2	1	0	0	0	134.898	0.722463	0.725179	14.3092	1	3.07754	10	0.0103767
2	1	0	0	0	135.798	0.713463	0.715405	12.7027	1	3.08967	10	0.00908756
2	1	0	0	0	136.698	0.704463	0.701664	11.1708	1	3.1004	10	0.00783813
2	1	0	0	0	137.598	0.695463	0.696227	9.76704	1	3.10981	10	0.00680008
2	1	0	0	0	138.498	0.686462	0.687344	8.45315	1	3.11799	10	0.00581023
2	1	0	0	0	139.398	0.677462	0.674514	7.21059	1	3.12503	10	0.00486364
2	1	0	1	0	140.298	0.668462	0.665428	6.10862	1	3.13101	10	0.00406485
2	1	0	1	0	141.198	0.659462	0.660049	5.08373	1	3.13603	10	0.00335551
2	1	0	1	0	142.128	0.650162	0.647594	4.13184	1	3.1403	11	0.00267575
2	1	0	1	0	143.028	0.641162	0.641901	3.32361	1	3.14364	11	0.00213343
2	1	0	1	0	143.928	0.632161	0.630074	2.62678	1	3.1463	11	0.00165507
2	1	0	1	0	144.828	0.623161	0.622995	2.02969	1	3.14838	11	0.00126449
2	1	0	1	0	145.728	0.614161	0.613529	1.52932	1	3.14997	11	0.000938283
2	1	0	1	0	146.628	0.605161	0.6047	1.12937	1	3.15115	11	0.00068293
2	1	0	1	0	147.528	0.596161	0.59569	0.808886	1	3.15201	11	0.000481845
2	1	0	1	0	148.428	0.587161	0.587522	0.560198	1	3.15262	11	0.000329129
2	1	0	1	0	149.358	0.57786	0.579672	0.369955	1	3.15303	12	0.000214452
2	1	0	1	0	150.258	0.56886	0.567825	0.237636	1	3.1533	12	0.000134936
2	1	0	0	0	151.159	0.55986	0.558768	0.144729	1	3.15346	12	8.08699e-05
2	1	0	0	0	152.059	0.55086	0.552429	0.0766387	1	3.15355	12	4.23374e-05
2	1	0	0	0	152.959	0.54186	0.543962	0.0329446	1	3.1536	12	1.79206e-05
2	1	0	0	0	153.859	0.53286	0.536699	5.31218e-05	1	3.15361	12	2.85104e-08
2	1	0	0	0	154.759	0.523859	0.523875	-0.0210905	1	3.15359	12	-1.10488e-05
2	1	0	0	0	155.659	0.514859	0.515411	-0.0386449	1	3.15356	12	-1.9918e-05
2	1	0	0	0	156.559	0.505859	0.505805	-0.0502425	1	3.15351	12	-2.54129e-05
2	1	0	0	0	157.459	0.496859	0.496161	-0.0602877	1	3.15346	12	-2.99124e-05
2	1	0	0	0	158.359	0.487859	0.486904	-0.0657875	1	3.1534	12	-3.20322e-05
2	1	0	0	0	159.259	0.478859	0.475482	-0.0735739	1	3.15333	12	-3.49831e-05
2	1	0	0	0	160.159	0.469858	0.467641	-0.0763852	1	3.15326	12	-3.57208e-05
2	1	0	1	0	161.059	0.460859	0.459859	-0.080664	1	3.15318	12	-3.70941e-05
2	1	0	1	0	161.959	0.451858	0.451005	-0.0838701	1	3.1531	12	-3.78259e-05
2	1	0	1	0	162.859	0.442858	0.44355	-0.08698	1	3.15302	12	-3.858e-05
2	0	0	1	0	163.759	0.433858	0.433532	-0.0887313	1	3.15294	12	-3.84678e-05
2	0	0	1	0	164.659	0.424858	0.42468	-0.0901404	1	3.15286	12	-3.82808e-05
2	0	0	1	0	165.559	0.415857	0.416081	-0.0917607	1	3.15277	12	-3.81799e-05
2	0	0	1	0	166.459	0.406857	0.40727	-0.0929079	1	3.15269	12	-3.78386e-05
2	0	0	1	0	167.359	0.397857	0.397101	-0.0935728	1	3.1526	12	-3.71578e-05
2	0	0	1	0	168.259	0.388857	0.389047	-0.0943564	1	3.15252	12	-3.67091e-05
2	0	0	1	0	169.159	0.379857	0.380202	-0.0951658	1	3.15243	12	-3.61822e-05
2	0	0	1	0	170.059	0.370857	0.370859	-0.0962497	1	3.15234	12	-3.56951e-05
2	0	0	1	0	170.959	0.361856	0.363209	-0.0961975	1	3.15225	12	-3.49398e-05
2	0	0	0	0	171.859	0.352856	0.352496	-0.0964151	1	3.15216	12	-3.3986e-05
2	0	0	0	0	172.759	0.343856	0.343234	-0.096977	1	3.15208	12	-3.32858e-05
2	0	0	0	0	173.659	0.334856	0.333953	-0.0973214	1	3.15199	12	-3.25007e-05
2	0	0	0	0	174.559	0.325856	0.322996	-0.0973099	1	3.1519	12	-3.14307e-05
2	0	0	0	0	175.459	0.316856	0.315264	-0.0967819	1	3.15181	12	-3.05119e-05
2	0	0	0	0	176.359	0.307855	0.305373	-0.0948215	1	3.15172	12	-2.89559e-05
2	0	0	0	0	177.259	0.298855	0.297733	-0.0936037	1	3.15164	12	-2.78689e-05
2	0	0	0	0	178.159	0.289855	0.289172	-0.0910692	1	3.15155	12	-2.63347e-05
2	0	0	0	0	179.059	0.280855	0.28355	-0.088961	1	3.15147	12	-2.52249e-05
2	0	0	0	0	179.959	0.271855	0.272798	-0.0859326	1	3.15139	12	-2.34422e-05
2	0	0	0	0	180.859	0.262855	0.266006	-0.0836935	1	3.15131	12	-2.2263e-05
2	0	0	0	0	181.759	0.253854	0.255577	-0.0805974	1	3.15124	12	-2.05988e-05
2	0	0	1	0	182.659	0.244854	0.242273	-0.0780899	1	3.15117	12	-1.89191e-05
2	0	0	1	0	183.559	0.235854	0.236936	-0.0753179	1	3.1511	12	-1.78455e-05
2	0	0	1	0	184.459	0.226854	0.226782	-0.0724234	1	3.15103	12	-1.64243e-05
2	0	0	1	0	185.359	0.217854	0.21629	-0.0696428	1	3.15097	12	-1.5063e-05
2	0	0	1	0	186.259	0.208854	0.210247	-0.0666872	1	3.1509	12	-1.40208e-05
2	0	0	1	0	187.159	0.199853	0.200244	-0.0641516	1	3.15085	12	-1.2846e-05
2	0	0	1	0	188.059	0.190853	0.189563	-0.061476	1	3.15079	12	-1.16536e-05
2	0	0	1	0	188.959	0.181853	0.182651	-0.0587833	1	3.15073	12	-1.07368e-05
2	0	0	1	0	189.859	0.172853	0.172479	-0.0564176	1	3.15068	12	-9.73088e-06
2	0	0	1	0	190.759	0.163853	0.160452	-0.0540331	1	3.15063	12	-8.6697e-06
2	0	0	1	0	191.659	0.154853	0.152174	-0.0518706	1	3.15058	12	-7.89334e-06
2	0	0	1	0	192.559	0.145852	0.146032	-0.0500498	1	3.15054	12	-7.30888e-06
2	0	0	0	0	193.459	0.136852	0.13506	-0.0477582	1	3.15049	12	-6.4502e-06
2	0	0	0	0	194.359	0.127852	0.129689	-0.0461926	1	3.15045	12	-5.99069e-06
2	0	0	0	0	195.259	0.118852	0.119745	-0.0442781	1	3.15041	12	-5.30206e-06
2	0	0	0	0	196.159	0.109852	0.111541	-0.0426988	1	3.15037	12	-4.76267e-06
2	0	0	0	0	197.059	0.100852	0.100737	-0.0411749	1	3.15033	12	-4.14785e-06
2	0	0	0	0	197.959	0.0918514	0.091319	-0.0395234	1	3.15029	12	-3.60924e-06
2	0	0	0	0	198.859	0.0828512	0.0835831	-0.0380553	1	3.15026	12	-3.18078e-06
2	0	0	0	0	199.759	0.0738511	0.0725344	-0.0368925	1	3.15023	12	-2.67598e-06
2	0	0	0	0	200.659	0.0648509	0.0650933	-0.0356875	1	3.15019	12	-2.32302e-06
2	0	0	0	0	201.559	0.0558507	0.0558744	-0.0349042	1	3.15016	12	-1.95026e-06
2	0	0	0	0	202.459	0.0468506	0.0461029	-0.0342551	1	3.15013	12	-1.57926e-06
2	0	0	1	0	203.36	0.0378504	0.0372245	-0.0329634	1	3.1501	12	-1.22705e-06
2	0	0	1	0	204.26	0.0288502	0.0298577	-0.0326475	1	3.15007	12	-9.7478e-07
2	0	0	1	0	205.16	0.0198501	0.0194646	-0.0318962	1	3.15004	12	-6.20846e-07
2	0	0	1	0	206.06	0.0108499	0.00999322	-0.0312684	1	3.15001	12	-3.12472e-07
2	0	0	1	0	206.96	0.00184972	0.00156989	-0.0310179	1	3.14998	12	-4.86946e-08
2	0	0	1	1	207.7	0.00554979	0.0038526	-0.0263849	2	3.14996	12	-1.01651e-07
2	0	0	1	1	208.6	0.01455	0.013552	-0.0226872	2	3.14994	12	-3.07457e-07
2	0	0	1	1	209.5	0.0235501	0.0230414	-0.0202631	2	3.14992	12	-4.6689e-07
2	0	0	1	1	210.4	0.0325503	0.0297495	-0.018034	2	3.1499	12	-5.36503e-07
2	0	0	0	1	211.3	0.0415505	0.040411	-0.015789	2	3.14989	12	-6.38049e-07
2	0	0	0	1	212.2	0.0505506	0.0477609	-0.014306	2	3.14988	12	-6.83265e-07
2	1	0	0	1	213.1	0.0595508	0.05763	-0.0126223	2	3.14986	12	-7.27424e-07
2	1	0	0	1	214	0.068551	0.0662485	-0.0110706	2	3.14985	12	-7.33411e-07
2	1	0	0	1	214.9	0.0775511	0.0790696	-0.0100084	2	3.14984	12	-7.91361e-07
2	0	0	0	1	215.8	0.0865513	0.0877009	-0.00903892	2	3.14984	12	-7.92721e-07
2	0	0	0	1	216.7	0.0955515	0.0971892	-0.00792229	2	3.14983	12	-7.69961e-07
2	0	0	0	1	217.6	0.104552	0.105334	-0.00678439	2	3.14982	12	-7.14623e-07
2	0	0	0	1	218.5	0.113552	0.114847	-0.00615421	2	3.14982	12	-7.06795e-07
2	0	0	0	1	219.4	0.122552	0.122521	-0.0048597	2	3.14981	12	-5.95414e-07
2	0	0	0	1	220.3	0.131552	0.130852	-0.00382105	2	3.14981	12	-4.99991e-07
2	0	0	0	1	221.2	0.140552	0.1395	-0.0027607	2	3.14981	12	-3.85117e-07
2	1	0	1	1	222.1	0.149552	0.146426	-0.00116212	2	3.14981	12	-1.70164e-07
2	1	0	1	1	223	0.158553	0.156892	0.000227694	2	3.14981	12	3.57233e-08
2	0	0	1	1	223.9	0.167553	0.166454	0.0016584	2	3.14981	12	2.76048e-07
2	0	0	1	1	224.8	0.176553	0.176443	0.00294921	2	3.14981	12	5.20369e-07
2	0	0	1	1	225.7	0.185553	0.185425	0.00445123	2	3.14981	12	8.25368e-07
2	0	0	1	1	226.6	0.194553	0.194085	0.00652939	2	3.14982	12	1.26725e-06
2	0	0	1	1	227.5	0.203553	0.204177	0.00788795	2	3.14983	12	1.61054e-06
2	1	0	1	1	228.4	0.212554	0.212046	0.00976938	2	3.14983	12	2.07156e-06
2	1	0	1	1	229.3	0.221554	0.223148	0.0119436	2	3.14984	12	2.66519e-06
2	0	0	1	1	230.2	0.230554	0.228622	0.0138676	2	3.14986	12	3.17044e-06
2	0	0	1	1	231.1	0.239554	0.23945	0.0165355	2	3.14987	12	3.95943e-06
2	0	0	1	1	232	0.248554	0.249135	0.0187663	2	3.14989	12	4.67533e-06
2	1	0	0	1	232.901	0.257554	0.256919	0.0212338	2	3.14991	12	5.45535e-06
2	1	0	0	1	233.801	0.266555	0.268061	0.0247009	2	3.14993	12	6.62135e-06
2	1	0	0	1	234.701	0.275555	0.276015	0.0279039	2	3.14995	12	7.70189e-06
2	1	0	0	1	235.601	0.284555	0.284761	0.0320804	2	3.14998	12	9.13524e-06
2	1	0	0	1	236.501	0.293555	0.293212	0.0363866	2	3.15001	12	1.0669e-05
2	1	0	0	1	237.401	0.302555	0.302931	0.0408509	2	3.15005	12	1.2375e-05
2	1	0	0	1	238.301	0.311555	0.309639	0.0463795	2	3.15009	12	1.43609e-05
2	1	0	0	1	239.201	0.320556	0.317662	0.0512734	2	3.15013	12	1.62876e-05
2	1	0	0	1	240.101	0.329556	0.329716	0.0573534	2	3.15019	12	1.89103e-05
2	1	0	0	1	241.001	0.338556	0.338799	0.0635342	2	3.15024	12	2.15253e-05
2	1	0	0	1	241.901	0.347556	0.346891	0.0701032	2	3.1503	12	2.43182e-05
2	1	0	1	1	242.801	0.356557	0.35549	0.0758751	2	3.15037	12	2.69728e-05
2	1	0	1	1	243.701	0.365556	0.367187	0.0843424	2	3.15044	12	3.09694e-05
2	1	0	1	1	244.601	0.374557	0.375741	0.0923148	2	3.15053	12	3.46865e-05
2	1	0	1	1	245.501	0.383557	0.385828	0.100508	2	3.15061	12	3.87788e-05
2	1	0	1	1	246.401	0.392557	0.39098	0.110405	2	3.15071	12	4.31662e-05
2	1	0	1	1	247.301	0.401557	0.400518	0.119917	2	3.15082	12	4.8029e-05
2	1	0	1	1	248.201	0.410557	0.412925	0.130158	2	3.15093	12	5.37456e-05
2	1	0	1	1	249.101	0.419557	0.41828	0.139625	2	3.15105	12	5.84023e-05
2	1	0	1	1	250.001	0.428558	0.426561	0.147467	2	3.15119	12	6.29038e-05
2	1	0	1	1	250.901	0.437558	0.437224	0.155524	2	3.15132	12	6.79988e-05
2	1	0	1	1	251.801	0.446558	0.447524	0.162966	2	3.15147	12	7.29314e-05
2	1	0	1	1	252.701	0.455558	0.457445	0.170827	2	3.15162	12	7.81439e-05
2	1	0	0	1	253.601	0.464558	0.465152	0.178293	2	3.15178	12	8.29336e-05
2	1	0	0	1	254.501	0.473558	0.471401	0.187625	2	3.15195	12	8.84464e-05
2	1	0	0	1	255.401	0.482559	0.47736	0.195768	2	3.15212	12	9.34519e-05
2	1	0	0	1	256.301	0.491559	0.487834	0.204561	2	3.1523	12	9.97917e-05
2	1	0	0	1	257.201	0.500559	0.498118	0.21482	2	3.15249	12	0.000107006
2	1	0	0	1	258.101	0.509559	0.507379	0.224676	2	3.15269	12	0.000113996
2	1	0	0	1	259.001	0.518559	0.516967	0.234605	2	3.1529	12	0.000121283
2	1	0	0	1	259.901	0.527559	0.529777	0.245741	2	3.15312	12	0.000130188
2	1	0	0	1	260.801	0.53656	0.540135	0.260104	2	3.15335	12	0.000140491
2	1	0	0	1	261.701	0.54556	0.548416	0.276297	2	3.15359	12	0.000151526
2	1	0	0	1	262.601	0.55456	0.558628	0.296614	2	3.15385	12	0.000165697
2	1	0	0	1	263.501	0.56356	0.560843	0.324799	2	3.15413	12	0.000182161
2	1	0	1	1	264.401	0.57256	0.57194	0.367792	2	3.15445	12	0.000210355
2	1	0	1	1	265.301	0.58156	0.582325	0.434697	2	3.15481	12	0.000253135
2	1	0	1	1	266.201	0.590561	0.594151	0.536923	2	3.15524	12	0.000319013
2	1	0	1	1	267.101	0.599561	0.602518	0.696694	2	3.1558	12	0.000419771
2	1	0	1	1	268.016	0.608711	0.614544	0.922623	2	3.15654	12	0.000566992
2	1	0	1	1	268.931	0.617861	0.618811	1.27111	2	3.15755	11	0.000786575
2	1	0	1	1	269.831	0.626861	0.628062	1.71891	2	3.15889	11	0.00107958
2	1	0	1	1	270.731	0.635861	0.63315	2.28956	2	3.16069	11	0.00144964
2	1	0	1	1	271.631	0.644862	0.643019	2.99901	2	3.16306	11	0.00192842
2	1	0	1	1	272.531	0.653862	0.647857	3.85034	2	3.16614	11	0.00249447
2	1	0	1	1	273.431	0.662862	0.65749	4.84739	2	3.17005	11	0.00318711
2	1	0	1	1	274.331	0.671863	0.668741	5.98162	2	3.17492	11	0.00400015
2	1	0	0	1	275.231	0.680862	0.678106	7.25263	2	3.18087	11	0.00491805
2	1	0	0	1	276.131	0.689862	0.690256	8.66358	2	3.18803	11	0.00598009
2	1	0	0	1	277.031	0.698863	0.700583	10.1998	2	3.19652	11	0.00714581
2	1	0	0	1	277.961	0.708163	0.709985	11.925	2	3.20682	10	0.00846656
2	1	0	0	1	278.861	0.717163	0.717375	13.7467	2	3.21837	10	0.00986157
2	1	0	0	1	279.761	0.726163	0.726229	15.6529	2	3.2316	10	0.0113676
2	1	0	0	1	280.661	0.735163	0.733703	17.6782	2	3.24661	10	0.0129705
2	1	0	0	1	281.561	0.744163	0.742856	19.8414	2	3.26349	10	0.0147393
2	1	0	0	1	282.461	0.753164	0.749851	22.0987	2	3.28236	10	0.0165707
2	1	0	0	1	283.361	0.762164	0.759423	24.418	2	3.30329	10	0.0185436
2	1	0	0	1	284.261	0.771164	0.768597	26.8825	2	3.32639	10	0.0206618
2	1	0	1	1	285.162	0.780164	0.780557	29.3981	2	3.35172	10	0.0229469
2	1	0	1	1	286.062	0.789164	0.790854	32.0973	2	3.37941	10	0.0253843
2	1	0	1	1	286.962	0.798164	0.798234	34.8318	2	3.40954	10	0.0278039
2	1	0	1	1	287.862	0.807165	0.808425	37.5909	2	3.44214	10	0.0303895
2	1	0	1	1	288.762	0.816165	0.817441	40.4006	2	3.47724	10	0.0330251
2	1	0	1	1	289.662	0.825165	0.825685	43.4894	2	3.515	10	0.0359085
2	1	0	1	1	290.562	0.834165	0.834202	46.433	2	3.55549	10	0.0387345
2	1	0	1	1	291.462	0.843165	0.84345	49.4409	2	3.59865	10	0.041701
2	1	0	1	1	292.362	0.852165	0.853107	52.542	2	3.64455	10	0.0448239
2	1	0	1	1	293.262	0.861166	0.861126	55.6803	2	3.69328	10	0.0479478
2	1	0	1	1	294.162	0.870166	0.87104	58.9108	2	3.74485	10	0.0513136
2	1	0	1	1	295.062	0.879166	0.881176	62.1878	2	3.79934	10	0.0547984
2	1	0	0	1	295.962	0.888166	0.888601	65.3437	2	3.85676	10	0.0580645
2	1	0	0	1	296.862	0.897166	0.897254	68.6318	2	3.91711	10	0.0615801
2	1	0	0	1	297.762	0.906166	0.904735	71.9251	2	3.9804	10	0.0650732
2	1	0	0	1	298.662	0.915167	0.912794	75.1791	2	4.04663	10	0.068623
2	1	0	0	1	299.562	0.924167	0.923379	78.5995	2	4.11586	10	0.0725771
2	1	0	0	1	300.462	0.933167	0.931381	81.8653	2	4.18807	10	0.0762478
2	1	0	0	1	301.362	0.942167	0.939639	85.3766	2	4.26334	10	0.0802232
2	1	0	0	1	302.262	0.951167	0.951265	88.9057	2	4.34183	10	0.0845728
2	1	0	0	1	303.162	0.960168	0.961118	92.2617	2	4.42337	10	0.0886744
2	1	0	0	1	304.062	0.969168	0.970589	95.551	2	4.50792	10	0.0927408
2	1	0	0	1	304.962	0.978168	0.98164	99.2819	2	4.59554	10	0.0974591
2	1	0	1	1	305.862	0.987168	0.988168	102.662	2	4.68636	10	0.101448
2	1	0	1	1	306.762	0.996168	0.996612	105.854	2	4.78022	10	0.105496
2	1	0	1	1	307.502	0.996468	0.993449	105.806	2	4.85911	10	0.105113
2	1	0	1	1	308.403	0.987468	0.985823	102.053	2	4.95258	10	0.100606
2	1	0	0	1	309.303	0.978468	0.975405	98.0374	2	5.04255	10	0.0956261
2	1	0	0	1	310.203	0.969468	0.965151	94.5337	2	5.12931	10	0.0912393
2	1	0	0	1	311.103	0.960468	0.958959	90.7625	2	5.21271	10	0.0870375
2	1	0	0	1	312.003	0.951467	0.950733	87.0748	2	5.29273	10	0.0827849
2	1	0	0	1	312.903	0.942467	0.943771	83.449	2	5.36947	10	0.0787567
2	1	0	0	1	313.803	0.933467	0.933094	79.9585	2	5.44289	10	0.0746088
2	1	0	0	1	314.703	0.924467	0.923574	76.3344	2	5.5132	10	0.0705005
2	1	0	0	1	315.603	0.915467	0.915017	72.8914	2	5.58035	10	0.0666969
2	1	0	0	1	316.503	0.906466	0.906073	69.411	2	5.64439	10	0.0628914
2	1	0	0	1	317.403	0.897466	0.896158	66.0992	2	5.70539	10	0.0592353
2	1	0	0	1	318.303	0.888466	0.889633	62.7527	2	5.76336	10	0.0558269
2	1	0	1	1	319.203	0.879466	0.881283	59.5024	2	5.81836	10	0.0524385
2	1	0	1	1	320.103	0.870466	0.872435	56.501	2	5.87047	10	0.0492934
2	1	0	1	1	321.003	0.861466	0.864583	53.3231	2	5.91985	10	0.0461022
2	1	0	1	1	321.903	0.852466	0.852289	50.2505	2	5.96645	10	0.042828
2	1	0	1	1	322.803	0.843465	0.845017	47.2573	2	6.01032	10	0.0399332
2	1	0	1	1	323.703	0.834465	0.836367	44.3495	2	6.05151	10	0.0370924
2	1	0	1	1	324.603	0.825465	0.823422	41.5288	2	6.09013	10	0.0341958
2	1	0	1	1	325.503	0.816465	0.812446	38.7618	2	6.12625	10	0.0314918
2	1	0	1	1	326.403	0.807465	0.806355	36.0678	2	6.15989	10	0.0290835
2	1	0	1	1	327.303	0.798464	0.796997	33.4138	2	6.19114	10	0.0266307
2	1	0	1	1	328.203	0.789464	0.7893	30.9231	2	6.22007	10	0.0244076
2	1	0	1	1	329.103	0.780464	0.779825	28.4673	2	6.24676	10	0.0221995
2	1	0	0	1	330.003	0.771464	0.772224	26.0719	2	6.27128	10	0.0201334
2	1	0	0	1	330.903	0.762464	0.764201	23.832	2	6.29371	10	0.0182125
2	1	0	0	1	331.803	0.753464	0.755291	21.6501	2	6.31414	10	0.0163521
2	1	0	0	1	332.703	0.744463	0.744651	19.5671	2	6.33267	10	0.0145707
2	1	0	0	1	333.603	0.735463	0.73454	17.5904	2	6.34938	10	0.0129209
2	1	0	0	1	334.503	0.726463	0.724671	15.7164	2	6.36435	10	0.0113892
2	1	0	0	1	335.403	0.717463	0.717777	13.9257	2	6.37767	10	0.00999556
2	1	0	0	1	336.303	0.708463	0.708335	12.2807	2	6.38945	10	0.00869888
2	1	0	0	1	337.203	0.699463	0.700214	10.7317	2	6.3998	10	0.00751446
2	1	0	0	1	338.103	0.690463	0.690781	9.27397	2	6.40879	10	0.00640629
2	1	0	0	1	339.003	0.681462	0.682127	7.94825	2	6.41652	10	0.00542171
2	1	0	1	1	339.903	0.672463	0.673613	6.73579	2	6.42311	10	0.00453732
2	1	0	1	1	340.803	0.663462	0.663103	5.63045	2	6.42866	10	0.00373357
2	1	0	1	1	341.703	0.654462	0.655686	4.63383	2	6.43326	10	0.00303834
2	1	0	1	1	342.633	0.645162	0.648296	3.72819	2	6.43714	11	0.00241697
2	1	0	1	1	343.533	0.636162	0.638881	2.96904	2	6.44014	11	0.00189686
2	1	0	1	1	344.433	0.627161	0.627806	2.31723	2	6.4425	11	0.00145477
2	1	0	1	1	345.333	0.618161	0.617643	1.77416	2	6.44433	11	0.0010958
2	1	0	1	1	346.233	0.609161	0.607253	1.32569	2	6.44572	11	0.000805032
2	1	0	1	1	347.133	0.600161	0.599526	0.963678	2	6.44674	11	0.00057775
2	1	0	1	1	348.033	0.591161	0.588214	0.677573	2	6.44747	11	0.000398558
2	1	0	1	1	348.933	0.58216	0.579294	0.463409	2	6.44798	11	0.00026845
2	1	0	1	1	349.863	0.57286	0.572571	0.295316	2	6.44832	12	0.000169089
2	1	0	0	1	350.763	0.56386	0.565496	0.179999	2	6.44853	12	0.000101789
2	1	0	0	1	351.663	0.55486	0.555046	0.0956174	2	6.44865	12	5.3072e-05
2	1	0	0	1	352.563	0.54586	0.546408	0.0391872	2	6.44871	12	2.14122e-05
2	0	0	0	1	353.463	0.53686	0.536118	-0.00196114	2	6.44872	12	-1.0514e-06
2	0	0	0	1	354.363	0.527859	0.528551	-0.0321868	2	6.4487	12	-1.70124e-05
2	0	0	0	1	355.263	0.518859	0.518771	-0.0513233	2	6.44866	12	-2.6625e-05
2	0	0	0	1	356.163	0.509859	0.510612	-0.066278	2	6.4486	12	-3.38424e-05
2	0	0	0	1	357.063	0.500859	0.500222	-0.0786608	2	6.44854	12	-3.93479e-05
2	0	0	0	1	357.963	0.491859	0.492267	-0.0854377	2	6.44846	12	-4.20581e-05
2	0	0	0	1	358.863	0.482859	0.483331	-0.0936368	2	6.44838	12	-4.52576e-05
2	0	0	0	1	359.763	0.473858	0.475618	-0.0972604	2	6.44829	12	-4.62587e-05
2	0	0	0	1	360.663	0.464858	0.465717	-0.101716	2	6.4482	12	-4.73708e-05
2	0	0	1	1	361.564	0.455858	0.455862	-0.10485	2	6.4481	12	-4.77974e-05
2	0	0	1	1	362.464	0.446858	0.445975	-0.106074	2	6.448	12	-4.73064e-05
2	0	0	1	1	363.364	0.437858	0.434074	-0.108998	2	6.44791	12	-4.73132e-05
2	0	0	1	1	364.264	0.428858	0.428913	-0.10915	2	6.44781	12	-4.68157e-05
2	0	0	1	1	365.164	0.419857	0.419827	-0.110842	2	6.4477	12	-4.65345e-05
2	0	0	1	1	366.064	0.410857	0.408088	-0.111537	2	6.4476	12	-4.55168e-05
2	0	0	1	1	366.964	0.401857	0.400827	-0.112531	2	6.4475	12	-4.51053e-05
2	0	0	1	1	367.864	0.392857	0.395256	-0.112662	2	6.44739	12	-4.45302e-05
2	0	0	1	1	368.764	0.383857	0.386317	-0.113458	2	6.44729	12	-4.38308e-05
2	0	0	1	1	369.664	0.374857	0.377594	-0.11397	2	6.44719	12	-4.30343e-05
2	0	0	1	1	370.564	0.365856	0.368154	-0.114038	2	6.44708	12	-4.19837e-05
2	0	0	1	1	371.464	0.356857	0.359038	-0.113725	2	6.44698	12	-4.08315e-05
2	0	0	0	1	372.364	0.347856	0.348955	-0.114271	2	6.44687	12	-3.98753e-05
2	0	0	0	1	373.264	0.338856	0.338133	-0.113732	2	6.44677	12	-3.84564e-05
2	0	0	0	1	374.164	0.329856	0.325293	-0.114271	2	6.44666	12	-3.71717e-05
2	0	0	0	1	375.064	0.320856	0.315371	-0.113297	2	6.44656	12	-3.57307e-05
2	0	0	0	1	375.964	0.311855	0.309808	-0.112502	2	6.44645	12	-3.48541e-05
2	0	0	0	1	376.864	0.302855	0.30087	-0.110843	2	6.44635	12	-3.33493e-05
2	0	0	0	1	377.764	0.293855	0.291633	-0.108393	2	6.44625	12	-3.16109e-05
2	0	0	0	1	378.664	0.284855	0.283056	-0.10565	2	6.44615	12	-2.99049e-05
2	0	0	0	1	379.564	0.275855	0.27823	-0.103182	2	6.44606	12	-2.87084e-05
2	0	0	0	1	380.464	0.266855	0.269424	-0.0997352	2	6.44596	12	-2.6871e-05
2	0	0	0	1	381.364	0.257854	0.255383	-0.0965954	2	6.44587	12	-2.46688e-05
2	0	0	1	1	382.264	0.248854	0.245842	-0.0933959	2	6.44579	12	-2.29607e-05
2	0	0	1	1	383.164	0.239854	0.238912	-0.0899433	2	6.4457	12	-2.14886e-05
2	0	0	1	1	384.064	0.230854	0.231047	-0.0870903	2	6.44562	12	-2.0122e-05
2	0	0	1	1	384.964	0.221854	0.225123	-0.0832473	2	6.44555	12	-1.87409e-05
2	0	0	1	1	385.864	0.212854	0.213181	-0.0804401	2	6.44547	12	-1.71483e-05
2	0	0	1	1	386.764	0.203853	0.204495	-0.0771775	2	6.4454	12	-1.57824e-05
2	0	0	1	1	387.664	0.194853	0.194996	-0.0736009	2	6.44533	12	-1.43519e-05
2	0	0	1	1	388.564	0.185853	0.187572	-0.0708107	2	6.44526	12	-1.32821e-05
2	0	0	1	1	389.464	0.176853	0.175163	-0.0675542	2	6.4452	12	-1.1833e-05
2	0	0	1	1	390.364	0.167853	0.165888	-0.0647462	2	6.44514	12	-1.07406e-05
2	0	0	1	1	391.264	0.158853	0.159097	-0.0618591	2	6.44508	12	-9.84161e-06
2	0	0	1	1	392.164	0.149852	0.1492	-0.0594544	2	6.44503	12	-8.87062e-06
2	0	0	0	1	393.064	0.140852	0.136525	-0.05667	2	6.44497	12	-7.73684e-06
2	0	0	0	1	393.964	0.131852	0.132643	-0.0543322	2	6.44492	12	-7.20681e-06
2	0	0	0	1	394.864	0.122852	0.119988	-0.0525059	2	6.44487	12	-6.30006e-06
2	0	0	0	1	395.764	0.113852	0.112059	-0.0497375	2	6.44483	12	-5.57352e-06
2	0	0	0	1	396.664	0.104852	0.105868	-0.048063	2	6.44478	12	-5.08834e-06
2	0	0	0	1	397.564	0.0958515	0.0923034	-0.046203	2	6.44474	12	-4.26469e-06
2	0	0	0	1	398.464	0.0868513	0.086114	-0.0443364	2	6.4447	12	-3.81799e-06
2	0	0	0	1	399.364	0.0778511	0.0753761	-0.0431128	2	6.44466	12	-3.24967e-06
2	0	0	0	1	400.264	0.068851	0.0671077	-0.041477	2	6.44462	12	-2.78342e-06
2	0	0	0	1	401.164	0.0598508	0.0578973	-0.0404596	2	6.44458	12	-2.3425e-06
2	0	0	0	1	402.064	0.0508506	0.051029	-0.0390428	2	6.44455	12	-1.99231e-06
2	0	0	0	1	402.964	0.0418505	0.0439422	-0.0379971	2	6.44451	12	-1.66967e-06
2	0	0	1	1	403.864	0.0328503	0.0371068	-0.0371851	2	6.44448	12	-1.37982e-06
2	0	0	1	1	404.764	0.0238501	0.0253877	-0.0359131	2	6.44444	12	-9.11752e-07
2	1	0	1	1	405.664	0.01485	0.0140198	-0.0353318	2	6.44441	12	-4.95345e-07
2	0	0	1	1	406.564	0.0058498	0.00391094	-0.0347191	2	6.44438	12	-1.35784e-07
2	0	0	1	0	407.305	0.00154972	0.00221164	-0.032514	3	6.44435	12	-7.1909e-08
2	0	0	1	0	408.205	0.0105499	0.0132741	-0.0280759	3	6.44433	12	-3.72682e-07
2	0	0	1	0	409.105	0.0195501	0.0206049	-0.0250882	3	6.4443	12	-5.16939e-07
2	0	0	1	0	410.005	0.0285502	0.0295002	-0.0227067	3	6.44428	12	-6.69851e-07
2	0	0	1	0	410.905	0.0375504	0.0375417	-0.0206044	3	6.44426	12	-7.73523e-07
2	0	0	0	0	411.805	0.0465506	0.0460403	-0.019151	3	6.44424	12	-8.81718e-07
2	0	0	0	0	412.705	0.0555507	0.0547766	-0.017563	3	6.44423	12	-9.62042e-07
2	0	0	0	0	413.605	0.0645509	0.0647592	-0.0162176	3	6.44421	12	-1.05024e-06
2	0	0	0	0	414.505	0.0735511	0.0736164	-0.0151417	3	6.4442	12	-1.11468e-06
2	0	0	0	0	415.405	0.0825512	0.0815952	-0.0139324	3	6.44419	12	-1.13682e-06
2	0	0	0	0	416.305	0.0915514	0.0920329	-0.0128118	3	6.44418	12	-1.17911e-06
2	1	0	0	0	417.205	0.100552	0.100018	-0.0118717	3	6.44416	12	-1.18738e-06
2	1	0	0	0	418.105	0.109552	0.108513	-0.0107392	3	6.44416	12	-1.16533e-06
2	1	0	0	0	419.005	0.118552	0.118445	-0.00957091	3	6.44415	12	-1.13363e-06
2	1	0	0	0	419.905	0.127552	0.125714	-0.00828372	3	6.44414	12	-1.04138e-06
2	0	0	0	0	420.805	0.136552	0.135066	-0.00720299	3	6.44413	12	-9.72879e-07
2	0	0	1	0	421.705	0.145552	0.147108	-0.00582073	3	6.44413	12	-8.56277e-07
2	0	0	1	0	422.605	0.154553	0.153622	-0.0044982	3	6.44412	12	-6.91021e-07
2	0	0	1	0	423.505	0.163553	0.165564	-0.00328639	3	6.44412	12	-5.44109e-07
2	0	0	1	0	424.405	0.172553	0.174167	-0.00193389	3	6.44412	12	-3.36819e-07
2	0	0	1	0	425.305	0.181553	0.183505	-0.000276519	3	6.44412	12	-5.07426e-08
2	0	0	1	0	426.205	0.190553	0.191432	0.00114871	3	6.44412	12	2.19899e-07
2	0	0	1	0	427.105	0.199553	0.199606	0.0026904	3	6.44412	12	5.37018e-07
2	0	0	1	0	428.005	0.208554	0.207241	0.00479008	3	6.44412	12	9.927e-07
2	0	0	1	0	428.905	0.217554	0.21543	0.00639254	3	6.44413	12	1.37714e-06
2	0	0	1	0	429.805	0.226554	0.223785	0.00872965	3	6.44414	12	1.95357e-06
2	0	0	1	0	430.705	0.235554	0.232989	0.0114099	3	6.44415	12	2.65839e-06
2	0	0	1	0	431.605	0.244554	0.241412	0.0136959	3	6.44416	12	3.30635e-06
2	0	0	0	0	432.505	0.253554	0.25319	0.0166227	3	6.44417	12	4.20871e-06
2	0	0	0	0	433.405	0.262555	0.262752	0.0198239	3	6.44419	12	5.20875e-06
2	0	0	0	0	434.305	0.271555	0.273121	0.0234904	3	6.44421	12	6.41573e-06
2	0	0	0	0	435.205	0.280555	0.27881	0.0272186	3	6.44423	12	7.58882e-06
2	1	0	0	0	436.105	0.289555	0.290227	0.031331	3	6.44426	12	9.09309e-06
2	1	0	0	0	437.005	0.298555	0.29743	0.036149	3	6.44429	12	1.07518e-05
2	1	0	0	0	437.905	0.307555	0.306357	0.040932	3	6.44433	12	1.25398e-05
2	1	0	0	0	438.805	0.316556	0.315868	0.0463657	3	6.44437	12	1.46455e-05
2	1	0	0	0	439.705	0.325556	0.326467	0.0523	3	6.44441	12	1.70742e-05
2	1	0	0	0	440.605	0.334556	0.33708	0.0585541	3	6.44446	12	1.97374e-05
2	0	0	0	0	441.505	0.343556	0.34343	0.0650894	3	6.44452	12	2.23537e-05
2	0	0	0	0	442.405	0.352556	0.353901	0.0723366	3	6.44458	12	2.56e-05
2	0	0	1	0	443.306	0.361556	0.363527	0.0801528	3	6.44465	12	2.91377e-05
2	1	0	1	0	444.206	0.370557	0.370742	0.0880502	3	6.44473	12	3.26439e-05
2	1	0	1	0	445.106	0.379557	0.37989	0.0973358	3	6.44481	12	3.69769e-05
2	1	0	1	0	446.006	0.388557	0.387278	0.106598	3	6.4449	12	4.1283e-05
2	1	0	1	0	446.906	0.397557	0.396854	0.116606	3	6.445	12	4.62754e-05
2	1	0	1	0	447.806	0.406557	0.405377	0.127489	3	6.44512	12	5.16812e-05
2	1	0	1	0	448.706	0.415557	0.416043	0.137116	3	6.44524	12	5.70462e-05
2	1	0	1	0	449.606	0.424558	0.425818	0.146005	3	6.44536	12	6.21714e-05
2	1	0	1	0	450.506	0.433558	0.433595	0.153903	3	6.4455	12	6.67315e-05
2	1	0	1	0	451.406	0.442558	0.442047	0.161785	3	6.44564	12	7.15164e-05
2	1	0	1	0	452.306	0.451558	0.453968	0.168962	3	6.4458	12	7.67032e-05
2	1	0	1	0	453.206	0.460559	0.460616	0.176562	3	6.44595	12	8.13274e-05
2	1	0	0	0	454.106	0.469558	0.467621	0.184536	3	6.44612	12	8.6293e-05
2	1	0	0	0	455.006	0.478559	0.478996	0.192318	3	6.44629	12	9.21196e-05
2	1	0	0	0	455.906	0.487559	0.486563	0.200674	3	6.44647	12	9.76404e-05
2	1	0	0	0	456.806	0.496559	0.495415	0.208247	3	6.44666	12	0.000103169
2	1	0	0	0	457.706	0.505559	0.504977	0.217127	3	6.44685	12	0.000109644
2	1	0	0	0	458.606	0.514559	0.515914	0.225744	3	6.44705	12	0.000116464
2	1	0	0	0	459.506	0.523559	0.524214	0.235005	3	6.44726	12	0.000123193
2	1	0	0	0	460.406	0.53256	0.53191	0.247107	3	6.44748	12	0.000131439
2	1	0	0	0	461.306	0.54156	0.54017	0.259176	3	6.44771	12	0.000139999
2	1	0	0	0	462.206	0.55056	0.550161	0.276738	3	6.44796	12	0.000152251
2	1	0	0	0	463.106	0.55956	0.560854	0.298085	3	6.44822	12	0.000167182
2	1	0	1	0	464.006	0.56856	0.56971	0.33258	3	6.44851	12	0.000189474
2	1	0	1	0	464.906	0.57756	0.577586	0.385035	3	6.44883	12	0.000222391
2	1	0	1	0	465.806	0.586561	0.588076	0.467519	3	6.44922	12	0.000274937
2	1	0	1	0	466.706	0.595561	0.597242	0.59628	3	6.4497	12	0.000356124
2	1	0	1	0	467.606	0.604561	0.60551	0.783111	3	6.45032	12	0.000474182
2	1	0	1	0	468.536	0.613861	0.610664	1.0616	3	6.45118	11	0.000648281
2	1	0	1	0	469.436	0.622861	0.620052	1.43014	3	6.4523	11	0.000886763
2	1	0	1	0	470.336	0.631861	0.628847	1.90134	3	6.45379	11	0.00119565
2	1	0	1	0	471.236	0.640862	0.639256	2.49786	3	6.45577	11	0.00159677
2	1	0	1	0	472.136	0.649862	0.648752	3.21876	3	6.45834	11	0.00208818
2	1	0	1	0	473.036	0.658862	0.657817	4.0752	3	6.46162	11	0.00268074
2	1	0	1	0	473.936	0.667862	0.665895	5.05971	3	6.46573	11	0.00336923
2	1	0	0	0	474.836	0.676862	0.67438	6.18459	3	6.47078	11	0.00417076
2	1	0	0	0	475.736	0.685862	0.685923	7.43203	3	6.47691	11	0.0050978
2	1	0	0	0	476.636	0.694863	0.694324	8.81543	3	6.48422	11	0.00612076
2	1	0	0	0	477.536	0.703863	0.703336	10.3147	3	6.49282	11	0.00725471
2	1	0	0	0	478.466	0.713163	0.713484	12.0138	3	6.50321	10	0.00857164
2	1	0	0	0	479.366	0.722163	0.721898	13.7658	3	6.51482	10	0.00993752
2	1	0	0	0	480.266	0.731163	0.730234	15.6282	3	6.52805	10	0.0114122
2	1	0	0	0	481.166	0.740163	0.739017	17.6214	3	6.54301	10	0.0130225
2	1	0	0	0	482.066	0.749164	0.748813	19.6925	3	6.5598	10	0.014746
2	1	0	0	0	482.966	0.758164	0.757819	21.8891	3	6.57851	10	0.016588
2	1	0	0	0	483.866	0.767164	0.767987	24.1638	3	6.59924	10	0.0185575
2	1	0	0	0	484.766	0.776164	0.779206	26.5246	3	6.62205	10	0.0206682
2	1	0	1	0	485.666	0.785164	0.786306	29.0011	3	6.64705	10	0.0228037
2	1	0	1	0	486.566	0.794164	0.795774	31.5227	3	6.6743	10	0.0250849
2	1	0	1	0	487.466	0.803165	0.804471	34.218	3	6.70388	10	0.0275274
2	1	0	1	0	488.366	0.812165	0.812696	36.8795	3	6.73587	10	0.0299718
2	1	0	1	0	489.266	0.821165	0.821318	39.6749	3	6.77032	10	0.0325857
2	1	0	1	0	490.166	0.830165	0.828459	42.5188	3	6.80732	10	0.035225
2	1	0	1	0	491.066	0.839165	0.836571	45.4123	3	6.84689	10	0.0379906
2	1	0	1	0	491.966	0.848165	0.845602	48.4286	3	6.88912	10	0.0409514
2	1	0	1	0	492.866	0.857166	0.854873	51.4913	3	6.9341	10	0.0440186
2	1	0	1	0	493.766	0.866166	0.864491	54.5335	3	6.98182	10	0.0471437
2	1	0	1	0	494.666	0.875166	0.874731	57.6735	3	7.03237	10	0.0504489
2	1	0	0	0	495.567	0.884166	0.888626	60.8107	3	7.08574	10	0.054038
2	1	0	0	0	496.467	0.893166	0.895427	64.0338	3	7.14195	10	0.0573376
2	1	0	0	0	497.367	0.902166	0.901273	67.1787	3	7.201	10	0.0605463
2	1	0	0	0	498.267	0.911167	0.913024	70.4908	3	7.263	10	0.0643598
2	1	0	0	0	499.167	0.920167	0.924194	73.7178	3	7.32792	10	0.0681295
2	1	0	0	0	500.067	0.929167	0.930267	76.9677	3	7.39573	10	0.0716005
2	1	0	0	0	500.967	0.938167	0.935545	80.3516	3	7.46655	10	0.0751725
2	1	0	0	0	501.867	0.947167	0.944506	83.6338	3	7.54037	10	0.0789926
2	1	0	0	0	502.767	0.956167	0.953862	87.0295	3	7.61718	10	0.0830142
2	1	0	0	0	503.667	0.965168	0.960684	90.4712	3	7.69709	10	0.0869142
2	1	0	0	0	504.567	0.974168	0.969048	93.6911	3	7.77998	10	0.0907911
2	1	0	0	0	505.467	0.983168	0.979055	96.896	3	7.86576	10	0.0948666
2	1	0	1	0	506.367	0.992168	0.992689	100.555	3	7.95472	10	0.0998197
2	1	0	1	0	507.152	1.00002	1.00307	104.742	3	8.03524	10	0.105064
2	1	0	1	0	508.007	0.991468	0.994532	100.548	3	8.12287	10	0.0999978
2	1	0	0	0	508.907	0.982468	0.977956	96.8505	3	8.21167	10	0.0947155
2	1	0	0	0	509.807	0.973468	0.972487	93.1463	3	8.29717	10	0.0905836
2	1	0	0	0	510.707	0.964468	0.963207	89.3321	3	8.37926	10	0.0860453
2	1	0	0	0	511.607	0.955467	0.954101	85.7384	3	8.45808	10	0.0818031
2	1	0	0	0	512.507	0.946467	0.948229	82.3736	3	8.53361	10	0.078109
2	1	0	0	0	513.407	0.937467	0.939917	78.8378	3	8.60609	10	0.074101
2	1	0	0	0	514.307	0.928467	0.931049	75.2244	3	8.67539	10	0.0700376
2	1	0	0	0	515.207	0.919467	0.92182	71.8397	3	8.74155	10	0.0662232
2	1	0	0	0	516.107	0.910467	0.913958	68.6158	3	8.80472	10	0.062712
2	1	0	0	0	517.007	0.901466	0.900721	65.3246	3	8.86497	10	0.0588393
2	1	0	0	0	517.907	0.892466	0.892009	62.1097	3	8.92229	10	0.0554024
2	1	0	1	0	518.807	0.883466	0.880882	58.8528	3	8.97668	10	0.0518424
2	1	0	1	0	519.708	0.874466	0.873437	55.7441	3	9.02824	10	0.048689
2	1	0	1	0	520.608	0.865466	0.861299	52.7691	3	9.07707	10	0.04545
2	1	0	1	0	521.508	0.856466	0.85435	49.7444	3	9.12318	10	0.0424992
2	1	0	1	0	522.408	0.847465	0.848083	46.8	3	9.16659	10	0.0396903
2	1	0	1	0	523.308	0.838465	0.837791	43.8752	3	9.20737	10	0.0367583
2	1	0	1	0	524.208	0.829465	0.830084	41.0449	3	9.24555	10	0.0340707
2	1	0	1	0	525.108	0.820465	0.820287	38.328	3	9.28124	10	0.03144
2	1	0	1	0	526.008	0.811465	0.814709	35.6744	3	9.31455	10	0.0290643
2	1	0	1	0	526.908	0.802465	0.804271	33.1184	3	9.34548	10	0.0266362
2	1	0	1	0	527.808	0.793464	0.794264	30.5816	3	9.37412	10	0.0242899
2	1	0	1	0	528.708	0.784464	0.783518	28.1626	3	9.40055	10	0.0220659
2	1	0	0	0	529.608	0.775464	0.774863	25.8447	3	9.42485	10	0.0200261
2	1	0	0	0	530.508	0.766464	0.764032	23.5951	3	9.44707	10	0.0180274
2	1	0	0	0	531.408	0.757464	0.756142	21.4569	3	9.46733	10	0.0162244
2	1	0	0	0	532.308	0.748464	0.746755	19.3961	3	9.48569	10	0.0144842
2	1	0	0	0	533.208	0.739463	0.737615	17.4447	3	9.50225	10	0.0128675
2	1	0	0	0	534.108	0.730463	0.729039	15.5848	3	9.51709	10	0.0113619
2	1	0	0	0	535.008	0.721463	0.721849	13.8359	3	9.53032	10	0.00998741
2	1	0	0	0	535.908	0.712463	0.7131	12.2184	3	9.54202	10	0.00871297
2	1	0	0	0	536.808	0.703463	0.703482	10.6831	3	9.55232	10	0.0075154
2	1	0	0	0	537.708	0.694463	0.691885	9.26407	3	9.56128	10	0.00640967
2	1	0	0	0	538.608	0.685462	0.68356	7.95735	3	9.56902	10	0.00543933
2	1	0	0	0	539.508	0.676462	0.675723	6.75603	3	9.57562	10	0.0045652
2	1	0	1	0	540.408	0.667462	0.666443	5.66693	3	9.5812	10	0.00377669
2	1	0	1	0	541.308	0.658462	0.658195	4.70465	3	9.58585	10	0.00309658
2	1	0	1	0	542.238	0.649162	0.65005	3.79936	3	9.58978	11	0.00246978
2	1	0	1	0	543.138	0.640162	0.641928	3.04348	3	9.59284	11	0.0019537
2	1	0	1	0	544.038	0.631161	0.633357	2.39977	3	9.59527	11	0.00151991
2	1	0	1	0	544.938	0.622161	0.624997	1.85484	3	9.59718	11	0.00115927
2	1	0	1	0	545.838	0.613161	0.614097	1.40002	3	9.59863	11	0.000859751
2	1	0	1	0	546.738	0.604161	0.602477	1.03302	3	9.59971	11	0.000622372
2	1	0	1	0	547.638	0.595161	0.592174	0.738199	3	9.6005	11	0.000437142
2	1	0	1	0	548.568	0.58586	0.584492	0.503777	3	9.60107	12	0.000294453
2	1	0	1	0	549.468	0.57686	0.574872	0.334854	3	9.60144	12	0.000192498
2	1	0	1	0	550.368	0.56786	0.565197	0.209009	3	9.60168	12	0.000118131
2	1	0	0	0	551.268	0.55886	0.557616	0.116479	3	9.60182	12	6.49503e-05
2	1	0	0	0	552.168	0.54986	0.549456	0.053174	3	9.60189	12	2.92168e-05
2	1	0	0	0	553.068	0.54086	0.543277	0.00649373	3	9.60191	12	3.52789e-06
2	1	0	0	0	553.968	0.53186	0.534014	-0.0256705	3	9.6019	12	-1.37084e-05
2	1	0	0	0	554.868	0.522859	0.524586	-0.0489059	3	9.60186	12	-2.56554e-05
2	1	0	0	0	555.768	0.513859	0.515145	-0.0659076	3	9.60181	12	-3.3952e-05
2	1	0	0	0	556.668	0.504859	0.506208	-0.0786403	3	9.60174	12	-3.98084e-05
2	1	0	0	0	557.568	0.495859	0.496551	-0.0871026	3	9.60167	12	-4.32509e-05
2	1	0	0	0	558.468	0.486859	0.486143	-0.0958008	3	9.60158	12	-4.65729e-05
2	0	0	0	0	559.368	0.477859	0.475619	-0.0993614	3	9.60149	12	-4.72581e-05
2	0	0	0	0	560.268	0.468858	0.466478	-0.104524	3	9.6014	12	-4.8758e-05
2	0	0	1	0	561.168	0.459858	0.460153	-0.107946	3	9.6013	12	-4.96715e-05
2	0	0	1	0	562.068	0.450858	0.450882	-0.109511	3	9.6012	12	-4.93764e-05
2	0	0	1	0	562.968	0.441858	0.441798	-0.112191	3	9.6011	12	-4.95655e-05
2	0	0	1	0	563.868	0.432858	0.432775	-0.113009	3	9.60099	12	-4.89076e-05
2	0	0	1	0	564.768	0.423858	0.421247	-0.114803	3	9.60089	12	-4.83603e-05
2	0	0	1	0	565.668	0.414857	0.415468	-0.115497	3	9.60078	12	-4.79855e-05
2	0	0	1	0	566.568	0.405857	0.404672	-0.116934	3	9.60067	12	-4.732e-05
2	0	0	1	0	567.468	0.396857	0.396218	-0.117811	3	9.60057	12	-4.66788e-05
2	0	0	1	0	568.368	0.387857	0.388731	-0.11868	3	9.60046	12	-4.61345e-05
2	0	0	1	0	569.268	0.378857	0.381082	-0.119733	3	9.60035	12	-4.56282e-05
2	0	0	1	0	570.168	0.369857	0.369583	-0.120015	3	9.60024	12	-4.43556e-05
2	0	0	1	0	571.068	0.360856	0.359854	-0.120756	3	9.60013	12	-4.34544e-05
2	0	0	0	0	571.969	0.351856	0.350305	-0.120188	3	9.60002	12	-4.21024e-05
2	0	0	0	0	572.869	0.342856	0.342528	-0.120769	3	9.5999	12	-4.13667e-05
2	0	0	0	0	573.769	0.333856	0.333012	-0.120588	3	9.59979	12	-4.01573e-05
2	0	0	0	0	574.669	0.324856	0.325991	-0.119588	3	9.59968	12	-3.89845e-05
2	0	0	0	0	575.569	0.315856	0.316271	-0.119391	3	9.59957	12	-3.77598e-05
2	0	0	0	0	576.469	0.306855	0.305952	-0.117186	3	9.59947	12	-3.58533e-05
2	0	0	0	0	577.369	0.297855	0.298924	-0.115605	3	9.59936	12	-3.45572e-05
2	0	0	0	0	578.269	0.288855	0.287351	-0.112993	3	9.59926	12	-3.24687e-05
2	0	0	0	0	579.169	0.279855	0.279351	-0.110032	3	9.59915	12	-3.07376e-05
2	0	0	0	0	580.069	0.270855	0.267917	-0.107377	3	9.59906	12	-2.87681e-05
2	0	0	0	0	580.969	0.261855	0.261492	-0.103989	3	9.59896	12	-2.71923e-05
2	0	0	0	0	581.869	0.252854	0.250535	-0.100669	3	9.59887	12	-2.5221e-05
2	0	0	1	0	582.769	0.243854	0.24301	-0.0974245	3	9.59877	12	-2.36751e-05
2	0	0	1	0	583.669	0.234854	0.237208	-0.0943841	3	9.59869	12	-2.23887e-05
2	0	0	1	0	584.569	0.225854	0.228215	-0.0907419	3	9.5986	12	-2.07086e-05
2	0	0	1	0	585.469	0.216854	0.218139	-0.0873864	3	9.59852	12	-1.90624e-05
2	0	0	1	0	586.369	0.207854	0.208971	-0.0832849	3	9.59844	12	-1.74041e-05
2	1	0	1	0	587.269	0.198853	0.200194	-0.0803322	3	9.59837	12	-1.60821e-05
2	1	0	1	0	588.169	0.189853	0.189189	-0.0766937	3	9.5983	12	-1.45096e-05
2	0	0	1	0	589.069	0.180853	0.181131	-0.0730488	3	9.59823	12	-1.32314e-05
2	0	0	1	0	589.969	0.171853	0.172076	-0.0701159	3	9.59816	12	-1.20653e-05
2	0	0	1	0	590.869	0.162853	0.160195	-0.06718	3	9.5981	12	-1.07619e-05
2	0	0	1	0	591.769	0.153853	0.152096	-0.0638972	3	9.59804	12	-9.71852e-06
2	0	0	0	0	592.669	0.144852	0.141111	-0.0615919	3	9.59798	12	-8.69131e-06
2	0	0	0	0	593.569	0.135852	0.131016	-0.0588424	3	9.59793	12	-7.7093e-06
2	0	0	0	0	594.469	0.126852	0.125262	-0.0563613	3	9.59788	12	-7.05991e-06
2	0	0	0	0	595.369	0.117852	0.117182	-0.0542653	3	9.59783	12	-6.35892e-06
2	0	0	0	0	596.269	0.108852	0.109541	-0.0521153	3	9.59778	12	-5.70879e-06
2	0	0	0	0	597.169	0.0998515	0.0993669	-0.0504031	3	9.59773	12	-5.0084e-06
2	0	0	0	0	598.069	0.0908514	0.0914856	-0.0486852	3	9.59768	12	-4.45399e-06
2	0	0	0	0	598.969	0.0818512	0.0828883	-0.0471726	3	9.59764	12	-3.91006e-06
2	0	0	0	0	599.869	0.072851	0.0735952	-0.0453018	3	9.5976	12	-3.33399e-06
2	0	0	0	0	600.769	0.0638509	0.0649766	-0.0441243	3	9.59756	12	-2.86705e-06
2	0	0	0	0	601.669	0.0548507	0.0551001	-0.0432029	3	9.59752	12	-2.38048e-06
2	0	0	0	0	602.569	0.0458505	0.045843	-0.0414071	3	9.59748	12	-1.89823e-06
2	0	0	1	0	603.469	0.0368504	0.0347774	-0.040508	3	9.59744	12	-1.40876e-06
2	0	0	1	0	604.369	0.0278502	0.026266	-0.0391272	3	9.59741	12	-1.02771e-06
2	0	0	1	0	605.269	0.01885	0.0158241	-0.0381051	3	9.59737	12	-6.02979e-07
2	0	0	1	0	606.169	0.00984987	0.00728833	-0.037573	3	9.59734	12	-2.73845e-07
2	0	0	1	0	607.069	0.000849706	-0.0007648	-0.0367278	3	9.5973	12	2.80894e-08
2	0	0	0	1	607.81	-0.00655043	-0.00746761	-0.0359179	3	9.59727	12	2.68221e-07
2	0	0	0	1	608.71	-0.0155506	-0.017795	-0.0354123	3	9.59724	12	6.3016e-07
2	0	0	0	1	609.61	-0.0245508	-0.0276068	-0.0348542	3	9.59721	12	9.62215e-07
2	0	0	0	1	610.51	-0.0335509	-0.0366528	-0.0345898	3	9.59718	12	1.26781e-06
2	1	0	0	1	611.41	-0.0425511	-0.0440154	-0.0340612	3	9.59715	12	1.49922e-06
2	1	0	0	1	612.31	-0.0515513	-0.0499301	-0.0336998	3	9.59712	12	1.68263e-06
2	1	0	0	1	613.21	-0.0605515	-0.0597122	-0.0333787	3	9.59709	12	1.99312e-06
2	0	0	1	1	614.11	-0.0695516	-0.0659802	-0.0329669	3	9.59706	12	2.17516e-06
2	0	0	0	1	614.313	-0.0716017	-0.0669369	-0.0185704	3	9.59705	12	1.24305e-06