File: Data_Lola/CoNiFeNx_400ºC_24h_13102022/Electrodes_19012023/2023_01_20_CoNiFeNx_400ºC_24h_electrode3_19012023_02_CV_C05.mpt
EC-Lab ASCII FILE
Nb header lines : 58

Cyclic Voltammetry

Run on channel : 5 (SN 30436)
User :
CE vs. WE compliance from -10 V to 10 V
Electrode connection : standard
Potential control : Ewe
Ewe ctrl range : min = -2.50 V, max = 2.50 V
Safety Limits :
	Do not start on E overload
Acquisition started on : 01/20/2023 10:11:15.490
Loaded Setting File :  C:\Users\grupogalan\Documents\EC-Lab\Data\ilario\20230118-ec\20230118_DJF1-IGB3-KOH_1M.mps
Saved on :
	File : 2023_01_20_CoNiFeNx_400ºC_24h_electrode3_19012023_02_CV_C05.mpr
	Directory : C:\Users\grupogalan\Documents\EC-Lab\Data\Lole Jurado\
	Host : 169.254.104.159
Device : VSP (SN 1176)
Address : USB
EC-Lab for windows v11.46 (software)
Internet server v11.40 (firmware)
Command interpretor v11.40 (firmware)
Electrode material :
Initial state :
Electrolyte :
Comments :
Electrode surface area : 0.001 cm²
Characteristic mass : 0.001 g
Equivalent Weight : 0.000 g/eq.
Density : 0.000 g/cm3
Volume (V) : 0.001 cm³
Record Ece
Cycle Definition : Charge/Discharge alternance
Ei (V)              0.000
vs.                 Eoc
dE/dt               10.000
dE/dt unit          mV/s
E1 (V)              1.000
vs.                 Ref
Step percent        50
N                   10
E range min (V)     -2.500
E range max (V)     2.500
I Range             Auto
I Range min         Unset
I Range max         Unset
I Range init        Unset
Bandwidth           5
E2 (V)              0.000
vs.                 Ref
nc cycles           2
Reverse Scan        1
Ef (V)              0.000
vs.                 Eoc

mode	ox/red	error	control changes	counter inc.	time/s	control/V	Ewe/V	<I>/mA	cycle number	(Q-Qo)/C	I Range	<Ece>/V	P/W	Ewe-Ece/V
2	0	0	1	0	79.6208	-0.621653	-0.619851	-0.0696301	1	0.0000000E+000	13	0.477096	4.31603e-05	-1.09695
2	0	0	1	0	80.9358	-0.608502	-0.607788	-0.040701	1	-5.08682e-05	13	0.476701	2.47376e-05	-1.08449
2	0	0	1	0	82.2358	-0.595501	-0.595426	-0.0360268	1	-9.45183e-05	13	0.474529	2.14513e-05	-1.06995
2	0	0	0	0	83.536	-0.5825	-0.582967	-0.0315789	1	-0.000132338	13	0.471804	1.84094e-05	-1.05477
2	0	0	0	0	84.836	-0.569499	-0.570719	-0.0272929	1	-0.000164491	13	0.468273	1.55766e-05	-1.03899
2	0	0	1	0	86.1362	-0.556498	-0.556385	-0.0228339	1	-0.000190993	13	0.464304	1.27044e-05	-1.02069
2	0	0	1	0	87.4362	-0.543497	-0.543881	-0.0183412	1	-0.000211811	13	0.459584	9.97542e-06	-1.00346
2	0	0	0	0	88.7364	-0.530496	-0.530295	-0.0139805	1	-0.000226903	13	0.454376	7.41379e-06	-0.984671
2	0	0	0	0	90.0364	-0.517495	-0.517598	-0.00989417	1	-0.000236461	13	0.448493	5.1212e-06	-0.966091
2	0	0	1	0	91.3366	-0.504494	-0.504807	-0.00595535	1	-0.000240795	13	0.442348	3.0063e-06	-0.947155
2	0	0	1	0	92.6366	-0.491493	-0.491722	-0.00245233	1	-0.000240349	13	0.435647	1.20586e-06	-0.927369
2	1	0	0	0	93.9368	-0.478492	-0.478906	0.000753761	1	-0.000235654	13	0.428886	-3.60981e-07	-0.907792
2	1	0	0	0	95.2368	-0.465491	-0.465405	0.00321089	1	-0.00022719	13	0.421607	-1.49436e-06	-0.887012
2	1	0	1	0	96.537	-0.45249	-0.452665	0.00601054	1	-0.000215366	13	0.414424	-2.72076e-06	-0.867088
2	1	0	1	0	97.837	-0.43949	-0.440133	0.00847277	1	-0.00020052	13	0.407105	-3.72914e-06	-0.847237
2	1	0	0	0	99.1372	-0.426489	-0.426598	0.0102819	1	-0.000183099	13	0.39963	-4.38622e-06	-0.826228
2	1	0	0	0	100.437	-0.413488	-0.413149	0.012414	1	-0.000163207	13	0.39214	-5.12882e-06	-0.80529
2	1	0	0	0	101.737	-0.400487	-0.400828	0.014578	1	-0.000140831	13	0.384439	-5.84328e-06	-0.785267
2	1	0	1	0	103.037	-0.387486	-0.387582	0.0165398	1	-0.00011598	13	0.376662	-6.41052e-06	-0.764244
2	1	0	1	0	104.337	-0.374485	-0.374976	0.019612	1	-8.82456e-05	13	0.368572	-7.35401e-06	-0.743547
2	1	0	0	0	105.638	-0.361484	-0.361481	0.0249479	1	-5.54096e-05	13	0.359526	-9.0182e-06	-0.721007
2	1	0	0	0	106.938	-0.348483	-0.348886	0.0234595	1	-1.95406e-05	13	0.350565	-8.18468e-06	-0.699451
2	1	0	1	0	108.238	-0.335482	-0.335605	0.023542	1	1.41635e-05	13	0.342798	-7.90081e-06	-0.678403
2	1	0	1	0	109.538	-0.322481	-0.322791	0.0232026	1	4.75472e-05	13	0.335369	-7.48959e-06	-0.65816
2	1	0	0	0	110.838	-0.30948	-0.308856	0.0231242	1	8.0364e-05	13	0.328379	-7.14205e-06	-0.637235
2	1	0	0	0	112.138	-0.296479	-0.295998	0.02317	1	0.000113028	13	0.321609	-6.85829e-06	-0.617607
2	1	0	1	0	113.438	-0.283478	-0.282948	0.0234927	1	0.000145832	13	0.315014	-6.64721e-06	-0.597962
2	1	0	1	0	114.738	-0.270477	-0.269776	0.0239065	1	0.000178871	13	0.308537	-6.4494e-06	-0.578313
2	1	0	0	0	116.038	-0.257476	-0.257418	0.0242191	1	0.000212186	13	0.302065	-6.23443e-06	-0.559483
2	1	0	0	0	117.338	-0.244475	-0.244653	0.0245237	1	0.000245765	13	0.295802	-5.9998e-06	-0.540454
2	1	0	1	0	118.639	-0.231475	-0.231519	0.024924	1	0.000279664	13	0.289601	-5.7704e-06	-0.52112
2	1	0	1	0	119.939	-0.218474	-0.219199	0.0252748	1	0.000313936	13	0.28351	-5.54021e-06	-0.502709
2	1	0	1	0	121.239	-0.205472	-0.205172	0.0257902	1	0.000348656	13	0.277409	-5.29144e-06	-0.482581
2	1	0	0	0	122.539	-0.192472	-0.192927	0.0259133	1	0.00038362	13	0.271432	-4.99936e-06	-0.464358
2	1	0	0	0	123.839	-0.179471	-0.179759	0.0265773	1	0.00041911	13	0.265194	-4.7775e-06	-0.444953
2	1	0	1	0	125.139	-0.16647	-0.167195	0.0272762	1	0.000455447	13	0.25906	-4.56045e-06	-0.426255
2	1	0	1	0	126.439	-0.153469	-0.154542	0.0281684	1	0.000492742	13	0.252599	-4.35319e-06	-0.407141
2	1	0	0	0	127.739	-0.140468	-0.140297	0.0291687	1	0.000531212	13	0.245968	-4.09227e-06	-0.386265
2	1	0	0	0	129.039	-0.127467	-0.128021	0.0304468	1	0.000571152	13	0.238984	-3.89782e-06	-0.367005
2	1	0	1	0	130.339	-0.114466	-0.114768	0.0320211	1	0.000612919	13	0.231671	-3.67502e-06	-0.346439
2	1	0	1	0	131.639	-0.101465	-0.102468	0.0339543	1	0.000656968	13	0.224021	-3.47923e-06	-0.326489
2	1	0	0	0	132.94	-0.0884642	-0.0880525	0.034774	1	0.000702805	13	0.215942	-3.06194e-06	-0.303995
2	1	0	0	0	134.24	-0.0754633	-0.0750368	0.0348711	1	0.000748967	13	0.208239	-2.61661e-06	-0.283276
2	1	0	1	0	135.54	-0.0624623	-0.0626844	0.0351721	1	0.000795452	13	0.200478	-2.20474e-06	-0.263162
2	1	0	1	0	136.84	-0.0494614	-0.0495848	0.0357642	1	0.000842521	13	0.192706	-1.77336e-06	-0.24229
2	1	0	0	0	138.14	-0.0364605	-0.0367782	0.0362223	1	0.000890169	13	0.184904	-1.33219e-06	-0.221682
2	1	0	0	0	139.44	-0.0234595	-0.023598	0.0365385	1	0.000938267	13	0.17715	-8.62234e-07	-0.200748
2	1	0	1	0	140.74	-0.0104588	-0.0110263	0.0367687	1	0.000986788	13	0.169389	-4.05422e-07	-0.180415
2	1	0	1	0	142.04	0.00254235	0.00238039	0.037046	1	0.00103556	13	0.161873	8.8184e-08	-0.159493
2	1	0	1	0	143.34	0.0155433	0.015464	0.0369906	1	0.00108451	13	0.154188	5.72024e-07	-0.138724
2	1	0	0	0	144.64	0.0285442	0.0285806	0.0371744	1	0.0011336	13	0.146889	1.06246e-06	-0.118308
2	1	0	0	0	145.94	0.0415452	0.0419826	0.0370855	1	0.00118256	13	0.13954	1.55694e-06	-0.0975575
2	1	0	1	0	147.241	0.0545461	0.0550238	0.0369228	1	0.0012314	13	0.132346	2.03163e-06	-0.077322
2	1	0	1	0	148.541	0.067547	0.0681085	0.0368402	1	0.00128009	13	0.125246	2.50913e-06	-0.0571373
2	1	0	0	0	149.841	0.0805479	0.080862	0.0367465	1	0.00132859	13	0.118379	2.9714e-06	-0.0375166
2	1	0	0	0	151.141	0.0935489	0.0941027	0.036725	1	0.00137699	13	0.111548	3.45593e-06	-0.0174456
2	1	0	1	0	152.441	0.10655	0.107174	0.0367441	1	0.00142535	13	0.10484	3.938e-06	0.00233341
2	1	0	1	0	153.741	0.119551	0.119964	0.0368279	1	0.00147374	13	0.0981839	4.41804e-06	0.0217804
2	1	0	0	0	155.041	0.132552	0.132651	0.0370464	1	0.00152232	13	0.0915976	4.91424e-06	0.0410535
2	1	0	0	0	156.341	0.145553	0.145387	0.0374509	1	0.00157132	13	0.0849911	5.44486e-06	0.0603955
2	1	0	1	0	157.641	0.158554	0.158439	0.0383023	1	0.0016211	13	0.0781688	6.06859e-06	0.0802707
2	1	0	1	0	158.941	0.171554	0.171742	0.0396847	1	0.00167225	13	0.0710158	6.81553e-06	0.100726
2	1	0	0	0	160.242	0.184555	0.185196	0.0416803	1	0.00172563	13	0.0632696	7.71901e-06	0.121926
2	1	0	0	0	161.542	0.197556	0.19756	0.0443001	1	0.001782	13	0.0550451	8.75193e-06	0.142515
2	1	0	0	0	162.842	0.210557	0.210722	0.0471905	1	0.00184197	13	0.0458703	9.94408e-06	0.164852
2	1	0	1	0	164.142	0.223558	0.22337	0.0503145	1	0.00190591	13	0.0360867	1.12388e-05	0.187284
2	1	0	1	0	165.442	0.236559	0.236471	0.0537907	1	0.00197408	13	0.0253621	1.272e-05	0.211109
2	1	0	0	0	166.742	0.24956	0.250098	0.0577063	1	0.00204706	13	0.0140264	1.44322e-05	0.236072
2	1	0	0	0	168.042	0.262561	0.263133	0.061563	1	0.00212515	13	0.0017137	1.61992e-05	0.261419
2	1	0	1	0	169.342	0.275562	0.27575	0.0659014	1	0.00220863	13	-0.0112835	1.81723e-05	0.287033
2	1	0	1	0	170.642	0.288563	0.288564	0.0707426	1	0.00229808	13	-0.0253788	2.04138e-05	0.313942
2	1	0	0	0	171.942	0.301564	0.301455	0.0760391	1	0.00239416	13	-0.0401544	2.29224e-05	0.34161
2	1	0	0	0	173.242	0.314565	0.314561	0.0819273	1	0.00249751	13	-0.0560384	2.57712e-05	0.3706
2	1	0	1	0	174.543	0.327566	0.327451	0.0884629	1	0.00260891	13	-0.0728408	2.89672e-05	0.400291
2	1	0	1	0	175.843	0.340567	0.340538	0.0954828	1	0.00272917	13	-0.090525	3.25156e-05	0.431063
2	1	0	0	0	177.173	0.353868	0.353584	0.103212	1	0.00286239	12	-0.109076	3.64942e-05	0.46266
2	1	0	0	0	178.473	0.366868	0.366591	0.111744	1	0.00300299	12	-0.126991	4.09642e-05	0.493582
2	1	0	1	0	179.773	0.379869	0.379627	0.121144	1	0.00315526	12	-0.143507	4.59896e-05	0.523134
2	1	0	1	0	181.073	0.39287	0.39257	0.131543	1	0.00332041	12	-0.15745	5.16401e-05	0.55002
2	1	0	1	0	182.373	0.405871	0.405892	0.14325	1	0.00349988	12	-0.168687	5.8144e-05	0.574579
2	1	0	0	0	183.673	0.418872	0.418156	0.15626	1	0.00369537	12	-0.177635	6.53413e-05	0.595791
2	1	0	0	0	184.973	0.431873	0.431916	0.170782	1	0.00390879	12	-0.185258	7.37634e-05	0.617174
2	1	0	1	0	186.273	0.444874	0.444644	0.187545	1	0.00414254	12	-0.19218	8.33907e-05	0.636824
2	1	0	1	0	187.573	0.457875	0.457645	0.206265	1	0.0043992	12	-0.198843	9.43961e-05	0.656488
2	1	0	0	0	188.874	0.470876	0.471538	0.227573	1	0.0046819	12	-0.205482	0.000107309	0.67702
2	1	0	0	0	190.174	0.483877	0.48397	0.250823	1	0.00499363	12	-0.212357	0.000121391	0.696327
2	1	0	1	0	191.474	0.496878	0.496951	0.276161	1	0.00533718	12	-0.219515	0.000137238	0.716466
2	1	0	1	0	192.774	0.509879	0.510061	0.303793	1	0.00571511	12	-0.227098	0.000154953	0.73716
2	1	0	0	0	194.074	0.52288	0.523197	0.333565	1	0.0061305	12	-0.235184	0.00017452	0.758381
2	1	0	0	0	195.374	0.535881	0.536012	0.365901	1	0.00658631	12	-0.244144	0.000196127	0.780156
2	1	0	1	0	196.674	0.548881	0.549308	0.401168	1	0.00708625	12	-0.254047	0.000220365	0.803355
2	1	0	1	0	197.974	0.561882	0.562014	0.43993	1	0.00763422	12	-0.265147	0.000247246	0.82716
2	1	0	0	0	199.274	0.574883	0.575272	0.484083	1	0.00823598	12	-0.277949	0.00027848	0.853222
2	1	0	0	0	200.574	0.587884	0.587681	0.538181	1	0.00890094	12	-0.293138	0.000316279	0.880819
2	1	0	1	0	201.875	0.600885	0.601207	0.611665	1	0.00964772	12	-0.312348	0.000367737	0.913555
2	1	0	1	0	203.175	0.613886	0.613337	0.721063	1	0.0105113	12	-0.338579	0.000442254	0.951916
2	1	0	1	0	204.475	0.626887	0.626345	0.887828	1	0.0115524	12	-0.376614	0.000556087	1.00296
2	1	0	0	0	205.805	0.640188	0.639593	1.14268	1	0.0128956	11	-0.434931	0.000730853	1.07452
2	1	0	0	0	207.105	0.653189	0.652838	1.50475	1	0.014606	11	-0.520479	0.000982356	1.17332
2	1	0	1	0	208.405	0.66619	0.666249	2.00818	1	0.0168762	11	-0.637173	0.00133795	1.30342
2	1	0	1	0	209.705	0.679191	0.678824	2.68162	1	0.0199088	11	-0.75807	0.00182034	1.43689
2	1	0	0	0	211.005	0.692192	0.692804	3.55174	1	0.0239439	11	-0.847571	0.00246066	1.54038
2	1	0	0	0	212.305	0.705193	0.704876	4.63427	1	0.0292482	11	-0.97357	0.00326659	1.67845
2	1	0	1	0	213.605	0.718194	0.718425	5.94118	1	0.0361041	11	-1.20559	0.00426829	1.92402
2	1	0	1	0	214.905	0.731195	0.731398	7.4907	1	0.0448157	11	-1.36528	0.00547869	2.09668
2	1	0	0	0	216.206	0.744196	0.743833	9.26032	1	0.055691	11	-1.36806	0.00688813	2.11189
2	1	0	0	0	217.536	0.757496	0.757592	11.2779	1	0.0693405	10	-1.37485	0.00854402	2.13244
2	1	0	1	0	218.836	0.770497	0.77038	13.4502	1	0.0854075	10	-1.38307	0.0103618	2.15345
2	1	0	1	0	220.136	0.783498	0.783322	15.785	1	0.104406	10	-1.39197	0.0123647	2.1753
2	1	0	0	0	221.436	0.796499	0.796122	18.2414	1	0.126528	10	-1.40101	0.0145224	2.19714
2	1	0	0	0	222.736	0.8095	0.809056	20.7977	1	0.151912	10	-1.4096	0.0168265	2.21866
2	1	0	1	0	224.036	0.822501	0.823132	23.4468	1	0.180688	10	-1.41795	0.0192998	2.24108
2	1	0	1	0	225.336	0.835502	0.835582	26.1149	1	0.212933	10	-1.42573	0.0218212	2.26132
2	1	0	1	0	226.636	0.848503	0.848919	28.7917	1	0.248632	10	-1.43304	0.0244418	2.28196
2	1	0	0	0	227.936	0.861504	0.861088	31.4074	1	0.287775	10	-1.43996	0.0270445	2.30105
2	1	0	0	0	229.236	0.874505	0.874637	33.9968	1	0.330296	10	-1.44624	0.0297349	2.32087
2	1	0	1	0	230.537	0.887506	0.887753	36.6391	1	0.37624	10	-1.45269	0.0325264	2.34044
2	1	0	1	0	231.837	0.900507	0.900916	39.2026	1	0.425548	10	-1.45853	0.0353182	2.35944
2	1	0	0	0	233.137	0.913508	0.913805	41.7341	1	0.478228	10	-1.46413	0.0381368	2.37793
2	1	0	0	0	234.437	0.926509	0.926079	44.1578	1	0.534058	10	-1.4694	0.0408936	2.39548
2	1	0	1	0	235.737	0.93951	0.939137	46.5696	1	0.593057	10	-1.47443	0.0437353	2.41356
2	1	0	1	0	237.037	0.95251	0.951654	49.1199	1	0.655292	10	-1.47965	0.0467451	2.43131
2	1	0	0	0	238.337	0.965511	0.965036	51.831	1	0.720847	10	-1.4849	0.0500188	2.44994
2	1	0	0	0	239.637	0.978512	0.977682	54.3023	1	0.789921	10	-1.48991	0.0530904	2.46759
2	1	0	1	0	240.937	0.991513	0.991278	56.9446	1	0.862316	10	-1.49497	0.056448	2.48625
2	1	0	1	0	242.138	0.996414	0.996743	57.0861	1	0.931595	10	-1.49475	0.0569002	2.49149
2	1	0	0	0	243.438	0.983413	0.984172	52.1552	1	1.00256	10	-1.48478	0.0513297	2.46895
2	1	0	0	0	244.738	0.970412	0.969927	47.7773	1	1.06749	10	-1.47608	0.0463405	2.44601
2	1	0	1	0	246.038	0.957411	0.957727	43.6504	1	1.12686	10	-1.46752	0.0418051	2.42524
2	1	0	1	0	247.338	0.94441	0.945196	40.0301	1	1.18118	10	-1.45979	0.0378363	2.40499
2	1	0	0	0	248.638	0.931409	0.93133	36.5107	1	1.23091	10	-1.45212	0.0340035	2.38345
2	1	0	0	0	249.938	0.918408	0.918239	33.2623	1	1.27622	10	-1.44449	0.0305427	2.36273
2	1	0	1	0	251.238	0.905406	0.905448	30.146	1	1.3174	10	-1.43696	0.0272956	2.34241
2	1	0	1	0	252.539	0.892406	0.892219	27.2365	1	1.35468	10	-1.42953	0.024301	2.32174
2	1	0	1	0	253.839	0.879405	0.879146	24.5449	1	1.3883	10	-1.42236	0.0215786	2.30151
2	1	0	0	0	255.139	0.866404	0.866081	22.0043	1	1.41853	10	-1.415	0.0190575	2.28108
2	1	0	0	0	256.439	0.853403	0.853504	19.6401	1	1.44556	10	-1.40764	0.0167629	2.26115
2	1	0	1	0	257.739	0.840402	0.840852	17.461	1	1.46965	10	-1.40018	0.0146821	2.24103
2	1	0	1	0	259.039	0.827401	0.82744	15.4352	1	1.491	10	-1.39282	0.0127717	2.22026
2	1	0	0	0	260.339	0.814401	0.814491	13.5438	1	1.50981	10	-1.38515	0.0110313	2.19964
2	1	0	0	0	261.639	0.8014	0.801756	11.81	1	1.52627	10	-1.37736	0.0094687	2.17912
2	1	0	1	0	262.939	0.788399	0.788817	10.2217	1	1.54057	10	-1.36934	0.00806303	2.15816
2	1	0	1	0	264.239	0.775398	0.775798	8.77107	1	1.55289	10	-1.36088	0.00680459	2.13668
2	1	0	0	0	265.54	0.762397	0.763536	7.44727	1	1.56341	10	-1.35191	0.00568626	2.11545
2	1	0	0	0	266.84	0.749396	0.750054	6.25381	1	1.5723	10	-1.34239	0.0046907	2.09245
2	1	0	1	0	268.14	0.736395	0.737265	5.18805	1	1.57972	10	-1.33179	0.00382496	2.06906
2	1	0	1	0	269.47	0.723094	0.723522	4.23809	1	1.58596	11	-1.31938	0.00306636	2.0429
2	1	0	0	0	270.77	0.710093	0.71063	3.41628	1	1.59092	11	-1.30536	0.00242771	2.01599
2	1	0	0	0	272.07	0.697092	0.69746	2.71127	1	1.59488	11	-1.28773	0.00189101	1.98519
2	1	0	0	0	273.37	0.684091	0.684159	2.11674	1	1.59801	11	-1.26414	0.00144819	1.9483
2	1	0	1	0	274.67	0.67109	0.670577	1.6252	1	1.60043	11	-1.22908	0.00108982	1.89966
2	1	0	1	0	275.97	0.658089	0.65803	1.22569	1	1.60227	11	-1.17578	0.000806542	1.83381
2	1	0	0	0	277.27	0.645088	0.645759	0.90825	1	1.60364	11	-1.10292	0.000586511	1.74868
2	1	0	0	0	278.57	0.632087	0.632759	0.659051	1	1.60465	11	-1.01949	0.000417021	1.65225
2	1	0	1	0	279.871	0.619087	0.619349	0.468575	1	1.60538	11	-0.934278	0.000290212	1.55363
2	1	0	1	0	281.201	0.605786	0.605931	0.324718	1	1.6059	12	-0.85818	0.000196757	1.46411
2	1	0	0	0	282.501	0.592785	0.592686	0.221243	1	1.60625	12	-0.798692	0.000131128	1.39138
2	1	0	0	0	283.801	0.579784	0.57935	0.147025	1	1.60648	12	-0.747478	8.51789e-05	1.32683
2	1	0	1	0	285.101	0.566783	0.566701	0.0949811	1	1.60664	12	-0.700538	5.38259e-05	1.26724
2	1	0	1	0	286.401	0.553782	0.553596	0.0586617	1	1.60673	12	-0.657306	3.24749e-05	1.2109
2	1	0	0	0	287.731	0.540481	0.541055	0.0337572	1	1.60679	13	-0.618813	1.82645e-05	1.15987
2	1	0	0	0	289.031	0.52748	0.528567	0.0160656	1	1.60682	13	-0.583039	8.49176e-06	1.11161
2	1	0	1	0	290.331	0.514479	0.514756	0.00346199	1	1.60683	13	-0.546373	1.78208e-06	1.06113
2	1	0	1	0	291.631	0.501478	0.50265	-0.00578657	1	1.60683	13	-0.510479	-2.90862e-06	1.01313
2	0	0	1	0	292.931	0.488478	0.489268	-0.0128287	1	1.60681	13	-0.476472	-6.27668e-06	0.96574
2	0	0	0	0	294.232	0.475476	0.475795	-0.0181156	1	1.60679	13	-0.444621	-8.6193e-06	0.920416
2	0	0	0	0	295.532	0.462475	0.462604	-0.0221618	1	1.60676	13	-0.415952	-1.02521e-05	0.878556
2	0	0	1	0	296.832	0.449474	0.449937	-0.0254441	1	1.60673	13	-0.390387	-1.14482e-05	0.840323
2	0	0	1	0	298.132	0.436473	0.436316	-0.0279828	1	1.60669	13	-0.368076	-1.22094e-05	0.804392
2	0	0	0	0	299.432	0.423473	0.424572	-0.0301035	1	1.60665	13	-0.348382	-1.27811e-05	0.772954
2	0	0	0	0	300.732	0.410472	0.411103	-0.031628	1	1.60661	13	-0.330946	-1.30024e-05	0.742049
2	0	0	1	0	302.032	0.397471	0.398242	-0.0328818	1	1.60657	13	-0.315452	-1.30949e-05	0.713694
2	0	0	1	0	303.332	0.38447	0.384794	-0.0338813	1	1.60652	13	-0.301733	-1.30373e-05	0.686527
2	0	0	0	0	304.632	0.371469	0.372233	-0.0346152	1	1.60648	13	-0.289681	-1.28849e-05	0.661914
2	0	0	0	0	305.932	0.358468	0.358794	-0.0351826	1	1.60643	13	-0.27901	-1.26233e-05	0.637804
2	0	0	1	0	307.233	0.345467	0.345549	-0.0357229	1	1.60638	13	-0.269426	-1.2344e-05	0.614974
2	0	0	1	0	308.533	0.332466	0.331528	-0.0359879	1	1.60634	13	-0.260699	-1.1931e-05	0.592227
2	0	0	0	0	309.833	0.319465	0.320061	-0.0360859	1	1.60629	13	-0.252792	-1.15497e-05	0.572853
2	0	0	0	0	311.133	0.306464	0.306651	-0.0360639	1	1.60624	13	-0.245498	-1.10591e-05	0.552149
2	0	0	1	0	312.433	0.293463	0.294117	-0.0359691	1	1.60619	13	-0.238703	-1.05792e-05	0.53282
2	0	0	1	0	313.733	0.280462	0.280486	-0.0358426	1	1.60615	13	-0.232277	-1.00534e-05	0.512763
2	0	0	1	0	315.033	0.267461	0.266885	-0.0358268	1	1.6061	13	-0.226332	-9.56162e-06	0.493216
2	0	0	0	0	316.333	0.25446	0.253667	-0.0358414	1	1.60605	13	-0.220457	-9.0918e-06	0.474124
2	0	0	0	0	317.633	0.241459	0.240402	-0.0358878	1	1.60601	13	-0.215123	-8.62749e-06	0.455526
2	0	0	1	0	318.933	0.228459	0.22789	-0.0358071	1	1.60596	13	-0.210043	-8.16007e-06	0.437933
2	0	0	1	0	320.233	0.215458	0.214467	-0.0358145	1	1.60591	13	-0.205223	-7.68105e-06	0.41969
2	0	0	0	0	321.534	0.202457	0.202537	-0.0357955	1	1.60586	13	-0.2007	-7.24992e-06	0.403238
2	0	0	0	0	322.834	0.189456	0.189875	-0.0357407	1	1.60582	13	-0.196384	-6.78627e-06	0.386259
2	0	0	1	0	324.134	0.176455	0.176653	-0.0357261	1	1.60577	13	-0.192313	-6.31114e-06	0.368967
2	0	0	1	0	325.434	0.163454	0.16404	-0.035611	1	1.60572	13	-0.188489	-5.84162e-06	0.352529
2	0	0	0	0	326.734	0.150453	0.15063	-0.035512	1	1.60568	13	-0.184997	-5.34919e-06	0.335627
2	0	0	0	0	328.034	0.137452	0.137377	-0.0352739	1	1.60563	13	-0.181672	-4.84583e-06	0.319049
2	0	0	1	0	329.334	0.124451	0.124672	-0.0350369	1	1.60559	13	-0.178645	-4.36813e-06	0.303317
2	0	0	1	0	330.634	0.11145	0.112061	-0.0347406	1	1.60554	13	-0.175777	-3.89306e-06	0.287838
2	0	0	0	0	331.934	0.0984492	0.099076	-0.034366	1	1.6055	13	-0.173165	-3.40485e-06	0.272241
2	0	0	0	0	333.234	0.0854483	0.0862417	-0.0339624	1	1.60545	13	-0.170649	-2.92898e-06	0.25689
2	0	0	1	0	334.534	0.072448	0.0733806	-0.0335416	1	1.60541	13	-0.168474	-2.4613e-06	0.241855
2	0	0	1	0	335.835	0.0594464	0.0601233	-0.0331019	1	1.60536	13	-0.166282	-1.9902e-06	0.226406
2	0	0	1	0	337.135	0.0464455	0.0472901	-0.0326188	1	1.60532	13	-0.164241	-1.54255e-06	0.211531
2	0	0	0	0	338.435	0.0334446	0.0343551	-0.0320939	1	1.60528	13	-0.162496	-1.10259e-06	0.196851
2	0	0	0	0	339.735	0.0204436	0.0210868	-0.0315269	1	1.60524	13	-0.160692	-6.648e-07	0.181779
2	0	0	1	0	341.035	0.0074427	0.00731329	-0.0309899	1	1.6052	13	-0.158962	-2.26638e-07	0.166276
2	0	0	0	1	342.236	0.0045425	0.00472691	-0.0268323	2	1.60516	13	-0.158017	-1.26834e-07	0.162744
2	0	0	1	1	343.536	0.0175428	0.0179299	-0.0211172	2	1.60513	13	-0.158744	-3.7863e-07	0.176674
2	0	0	1	1	344.836	0.0305444	0.0308072	-0.0171343	2	1.60511	13	-0.159719	-5.2786e-07	0.190526
2	0	0	1	1	346.136	0.0435453	0.044102	-0.014081	2	1.60509	13	-0.160592	-6.21e-07	0.204694
2	0	0	0	1	347.436	0.0565462	0.0564289	-0.0116104	2	1.60507	13	-0.161469	-6.55164e-07	0.217898
2	0	0	0	1	348.736	0.0695472	0.0695837	-0.00958717	2	1.60506	13	-0.162171	-6.67111e-07	0.231755
2	0	0	1	1	350.036	0.0825481	0.0824529	-0.00785425	2	1.60504	13	-0.162746	-6.47606e-07	0.245199
2	0	0	1	1	351.336	0.095549	0.0951916	-0.00633229	2	1.60504	13	-0.163211	-6.02781e-07	0.258403
2	0	0	0	1	352.636	0.10855	0.108733	-0.00499959	2	1.60503	13	-0.163581	-5.43619e-07	0.272314
2	0	0	0	1	353.936	0.121551	0.122107	-0.00379796	2	1.60502	13	-0.163851	-4.63758e-07	0.285958
2	0	0	1	1	355.237	0.134552	0.135055	-0.00265597	2	1.60502	13	-0.16419	-3.58702e-07	0.299245
2	0	0	1	1	356.537	0.147553	0.147945	-0.0016145	2	1.60502	13	-0.164333	-2.38858e-07	0.312278
2	0	0	0	1	357.837	0.160554	0.160963	-0.000642421	2	1.60501	13	-0.164594	-1.03406e-07	0.325558
2	0	0	0	1	359.137	0.173555	0.173661	0.000324234	2	1.60501	13	-0.164697	5.63067e-08	0.338357
2	1	0	1	1	360.437	0.186556	0.186918	0.00127047	2	1.60502	13	-0.164822	2.37474e-07	0.351741
2	1	0	1	1	361.737	0.199556	0.199514	0.00221226	2	1.60502	13	-0.164998	4.41376e-07	0.364512
2	1	0	0	1	363.037	0.212557	0.212516	0.00320105	2	1.60502	13	-0.165081	6.80272e-07	0.377597
2	1	0	0	1	364.337	0.225558	0.225242	0.0042266	2	1.60503	13	-0.165256	9.52006e-07	0.390498
2	1	0	0	1	365.637	0.238559	0.238558	0.00530684	2	1.60503	13	-0.16548	1.26599e-06	0.404038
2	1	0	1	1	366.937	0.25156	0.25116	0.00644407	2	1.60504	13	-0.165719	1.61849e-06	0.41688
2	1	0	1	1	368.237	0.264561	0.265183	0.00763369	2	1.60505	13	-0.166062	2.02433e-06	0.431245
2	1	0	0	1	369.538	0.277562	0.278062	0.00893616	2	1.60506	13	-0.166572	2.48481e-06	0.444634
2	1	0	0	1	370.838	0.290563	0.290566	0.010344	2	1.60507	13	-0.167078	3.00561e-06	0.457645
2	1	0	1	1	372.138	0.303564	0.303771	0.0118721	2	1.60509	13	-0.167716	3.60641e-06	0.471487
2	1	0	1	1	373.438	0.316565	0.316768	0.0135266	2	1.60511	13	-0.168546	4.28479e-06	0.485314
2	1	0	0	1	374.738	0.329566	0.330111	0.0153141	2	1.60512	13	-0.169405	5.05534e-06	0.499516
2	1	0	0	1	376.038	0.342567	0.343513	0.0173451	2	1.60515	13	-0.170387	5.95827e-06	0.513901
2	1	0	1	1	377.338	0.355568	0.355512	0.0195169	2	1.60517	13	-0.171509	6.93849e-06	0.527021
2	1	0	1	1	378.638	0.368569	0.368959	0.0219604	2	1.6052	13	-0.172789	8.10249e-06	0.541748
2	1	0	0	1	379.938	0.38157	0.380936	0.0247528	2	1.60523	13	-0.174282	9.42922e-06	0.555217
2	1	0	0	1	381.238	0.39457	0.393986	0.0279623	2	1.60526	13	-0.176052	1.10167e-05	0.570038
2	1	0	1	1	382.539	0.407571	0.406664	0.0316301	2	1.6053	13	-0.178082	1.28629e-05	0.584747
2	1	0	1	1	383.839	0.420572	0.420663	0.0355551	2	1.60535	13	-0.180382	1.49567e-05	0.601045
2	1	0	1	1	385.139	0.433574	0.433595	0.0398593	2	1.6054	13	-0.182877	1.72828e-05	0.616472
2	1	0	0	1	386.439	0.446574	0.446628	0.044578	2	1.60545	13	-0.185757	1.99097e-05	0.632385
2	1	0	0	1	387.739	0.459575	0.459446	0.0496765	2	1.60551	13	-0.188817	2.28237e-05	0.648263
2	1	0	1	1	389.039	0.472576	0.472859	0.0551757	2	1.60558	13	-0.192179	2.60904e-05	0.665038
2	1	0	1	1	390.339	0.485577	0.485467	0.0612882	2	1.60566	13	-0.19589	2.97534e-05	0.681357
2	1	0	0	1	391.639	0.498578	0.498738	0.0681632	2	1.60575	13	-0.20004	3.39956e-05	0.698778
2	1	0	0	1	392.939	0.511579	0.511727	0.0757231	2	1.60584	13	-0.204512	3.87496e-05	0.71624
2	1	0	1	1	394.239	0.52458	0.525129	0.0844237	2	1.60595	13	-0.209518	4.43334e-05	0.734648
2	1	0	1	1	395.539	0.537581	0.537853	0.0943737	2	1.60606	13	-0.215108	5.07592e-05	0.752961
2	1	0	0	1	396.87	0.550882	0.55097	0.107089	2	1.6062	12	-0.22158	5.90029e-05	0.77255
2	1	0	0	1	398.17	0.563883	0.563833	0.122262	2	1.60635	12	-0.229174	6.89352e-05	0.793007
2	1	0	1	1	399.47	0.576884	0.577776	0.143253	2	1.60652	12	-0.238683	8.2768e-05	0.816459
2	1	0	1	1	400.77	0.589884	0.588976	0.176566	2	1.60673	12	-0.252329	0.000103993	0.841305
2	1	0	0	1	402.07	0.602885	0.603228	0.233206	2	1.607	12	-0.273437	0.000140677	0.876665
2	1	0	0	1	403.37	0.615886	0.615907	0.330315	2	1.60736	12	-0.308826	0.000203443	0.924733
2	1	0	1	1	404.67	0.628887	0.628843	0.486988	2	1.60788	12	-0.367655	0.000306239	0.996498
2	1	0	1	1	405.97	0.641888	0.642818	0.724443	2	1.60866	12	-0.46303	0.000465685	1.10585
2	1	0	1	1	407.285	0.65504	0.655434	1.06719	2	1.60983	12	-0.604981	0.000699472	1.26042
2	1	0	0	1	408.6	0.66819	0.668966	1.53861	2	1.61153	11	-0.749089	0.00102928	1.41806
2	1	0	0	1	409.9	0.681191	0.681947	2.15286	2	1.61392	11	-0.865308	0.00146813	1.54726
2	1	0	1	1	411.201	0.694192	0.693586	2.93852	2	1.61721	11	-1.05245	0.00203812	1.74604
2	1	0	1	1	412.501	0.707193	0.708135	3.91518	2	1.62165	11	-1.25308	0.00277247	1.96121
2	1	0	0	1	413.801	0.720194	0.720051	5.09773	2	1.6275	11	-1.32885	0.00367063	2.0489
2	1	0	0	1	415.101	0.733195	0.732605	6.48743	2	1.63501	11	-1.34394	0.00475273	2.07654
2	1	0	1	1	416.401	0.746196	0.745724	8.08536	2	1.64447	11	-1.35563	0.00602944	2.10135
2	1	0	1	1	417.701	0.759197	0.759537	9.88374	2	1.65613	11	-1.36588	0.00750707	2.12542
2	1	0	0	1	419.031	0.772498	0.772365	11.933	2	1.67063	10	-1.37563	0.00921661	2.148
2	1	0	0	1	420.331	0.785498	0.785991	14.1133	2	1.68755	10	-1.38477	0.011093	2.17076
2	1	0	1	1	421.631	0.798499	0.798949	16.4615	2	1.70743	10	-1.39399	0.0131519	2.19294
2	1	0	1	1	422.931	0.8115	0.81208	18.9546	2	1.73045	10	-1.40324	0.0153926	2.21532
2	1	0	0	1	424.232	0.824501	0.825276	21.5984	2	1.75682	10	-1.41265	0.0178246	2.23793
2	1	0	0	1	425.532	0.837502	0.838066	24.2965	2	1.78666	10	-1.42146	0.0203621	2.25953
2	1	0	1	1	426.832	0.850503	0.850949	27.0974	2	1.82008	10	-1.43031	0.0230585	2.28126
2	1	0	1	1	428.132	0.863504	0.864369	29.9575	2	1.8572	10	-1.43857	0.0258943	2.30294
2	1	0	1	1	429.432	0.876505	0.877195	32.8598	2	1.89806	10	-1.44668	0.0288245	2.32388
2	1	0	0	1	430.732	0.889506	0.889926	35.7119	2	1.94265	10	-1.45426	0.031781	2.34418
2	1	0	0	1	432.032	0.902507	0.903067	38.6331	2	1.99097	10	-1.4615	0.0348882	2.36457
2	1	0	1	1	433.332	0.915508	0.916373	41.495	2	2.04308	10	-1.46857	0.0380249	2.38494
2	1	0	1	1	434.632	0.928509	0.928205	44.2889	2	2.09887	10	-1.47519	0.0411092	2.40339
2	1	0	0	1	435.932	0.94151	0.941325	47.187	2	2.15842	10	-1.48176	0.0444183	2.42308
2	1	0	0	1	437.232	0.954511	0.953196	49.9218	2	2.22154	10	-1.48772	0.0475852	2.44092
2	1	0	1	1	438.533	0.967512	0.96739	52.6621	2	2.28818	10	-1.49344	0.0509448	2.46083
2	1	0	1	1	439.833	0.980513	0.980814	55.3486	2	2.3584	10	-1.49918	0.0542867	2.47999
2	1	0	0	1	441.133	0.993513	0.99422	58.0201	2	2.43209	10	-1.50459	0.0576848	2.49881
2	1	0	0	1	442.333	0.994413	0.994994	57.1332	2	2.50224	10	-1.50274	0.0568472	2.49774
2	1	0	1	1	443.633	0.981413	0.982339	52.5373	2	2.57343	10	-1.49377	0.0516094	2.4761
2	1	0	1	1	444.933	0.968412	0.968501	48.4592	2	2.63897	10	-1.4855	0.0469328	2.454
2	1	0	0	1	446.234	0.955411	0.95607	44.7418	2	2.69956	10	-1.47776	0.0427762	2.43383
2	1	0	0	1	447.534	0.94241	0.942663	41.1752	2	2.75535	10	-1.47018	0.0388143	2.41285
2	1	0	1	1	448.834	0.929409	0.929826	37.7376	2	2.8066	10	-1.4626	0.0350894	2.39242
2	1	0	1	1	450.134	0.916408	0.916297	34.5436	2	2.85358	10	-1.45521	0.0316522	2.3715
2	1	0	0	1	451.434	0.903407	0.903219	31.5905	2	2.89652	10	-1.44789	0.0285332	2.35111
2	1	0	0	1	452.734	0.890406	0.88971	28.7194	2	2.93569	10	-1.44066	0.0255519	2.33037
2	1	0	1	1	454.034	0.877404	0.877142	25.9946	2	2.97122	10	-1.4335	0.022801	2.31064
2	1	0	1	1	455.334	0.864404	0.863635	23.4264	2	3.00331	10	-1.4263	0.0202319	2.28993
2	1	0	1	1	456.634	0.851403	0.850955	21.007	2	3.03216	10	-1.41926	0.0178761	2.27021
2	1	0	0	1	457.934	0.838402	0.838433	18.7151	2	3.05796	10	-1.41204	0.0156913	2.25048
2	1	0	0	1	459.234	0.825401	0.825244	16.5759	2	3.08088	10	-1.40481	0.0136792	2.23006
2	1	0	1	1	460.535	0.8124	0.81265	14.5562	2	3.1011	10	-1.39723	0.0118291	2.20988
2	1	0	1	1	461.835	0.7994	0.799871	12.6885	2	3.11879	10	-1.3895	0.0101491	2.18937
2	1	0	0	1	463.135	0.786399	0.786801	10.9525	2	3.13414	10	-1.38137	0.00861745	2.16817
2	1	0	0	1	464.435	0.773398	0.774957	9.35893	2	3.14732	10	-1.37276	0.00725277	2.14772
2	1	0	1	1	465.735	0.760397	0.759896	7.90313	2	3.15853	10	-1.36378	0.00600556	2.12367
2	1	0	1	1	467.035	0.747396	0.748402	6.59566	2	3.16793	10	-1.35396	0.00493621	2.10236
2	1	0	0	1	468.335	0.734395	0.733777	5.43046	2	3.17573	10	-1.34301	0.00398474	2.07679
2	1	0	0	1	469.665	0.721094	0.720567	4.39998	2	3.18223	11	-1.33058	0.00317048	2.05114
2	1	0	1	1	470.965	0.708093	0.707906	3.51627	2	3.18736	11	-1.31605	0.00248919	2.02395
2	1	0	1	1	472.265	0.695092	0.695825	2.76542	2	3.19142	11	-1.2982	0.00192425	1.99402
2	1	0	0	1	473.566	0.682091	0.682284	2.1372	2	3.19459	11	-1.27396	0.00145818	1.95624
2	1	0	0	1	474.866	0.66909	0.668392	1.62222	2	3.19702	11	-1.23639	0.00108428	1.90478
2	1	0	0	1	476.166	0.656089	0.655498	1.20945	2	3.19885	11	-1.17555	0.000792794	1.83104
2	1	0	1	1	477.466	0.643088	0.642712	0.884377	2	3.2002	11	-1.09191	0.0005684	1.73462
2	1	0	1	1	478.766	0.630087	0.630568	0.633924	2	3.20118	11	-0.999215	0.000399732	1.62978
2	1	0	0	1	480.081	0.616936	0.61728	0.442894	2	3.20188	11	-0.908946	0.000273389	1.52623
2	1	0	0	1	481.396	0.603786	0.603521	0.304945	2	3.20236	12	-0.833792	0.000184041	1.43731
2	1	0	1	1	482.696	0.590784	0.590813	0.204681	2	3.20269	12	-0.774865	0.000120928	1.36568
2	1	0	1	1	483.996	0.577784	0.577418	0.1332	2	3.2029	12	-0.724107	7.69119e-05	1.30153
2	1	0	0	1	485.296	0.564783	0.564451	0.0830614	2	3.20304	12	-0.675596	4.68841e-05	1.24005
2	1	0	0	1	486.596	0.551782	0.551415	0.0480665	2	3.20312	12	-0.632388	2.65046e-05	1.1838
2	1	0	1	1	487.927	0.538481	0.538626	0.0237943	2	3.20317	13	-0.592985	1.28162e-05	1.13161
2	0	0	1	1	489.227	0.52548	0.525266	0.00658975	2	3.20318	13	-0.553405	3.46138e-06	1.07867
2	0	0	0	1	490.527	0.512479	0.512946	-0.00589843	2	3.20318	13	-0.513758	-3.02557e-06	1.0267
2	0	0	0	1	491.827	0.499478	0.50033	-0.0151806	2	3.20317	13	-0.47541	-7.59531e-06	0.97574
2	0	0	1	1	493.127	0.486477	0.487647	-0.0222491	2	3.20314	13	-0.439465	-1.08497e-05	0.927111
2	0	0	1	1	494.427	0.473476	0.474539	-0.0276673	2	3.2031	13	-0.40663	-1.31292e-05	0.881169
2	0	0	0	1	495.727	0.460475	0.461866	-0.0317398	2	3.20306	13	-0.377514	-1.46595e-05	0.839379
2	0	0	0	1	497.027	0.447474	0.448211	-0.034921	2	3.20302	13	-0.352406	-1.5652e-05	0.800617
2	0	0	0	1	498.327	0.434473	0.43522	-0.0374368	2	3.20297	13	-0.330841	-1.62932e-05	0.766061
2	0	0	1	1	499.627	0.421472	0.421596	-0.0393559	2	3.20292	13	-0.312261	-1.65923e-05	0.733857
2	0	0	1	1	500.927	0.408471	0.408354	-0.0408427	2	3.20286	13	-0.296274	-1.66783e-05	0.704628
2	0	0	0	1	502.228	0.395471	0.396163	-0.0419831	2	3.20281	13	-0.282203	-1.66322e-05	0.678366
2	0	0	0	1	503.528	0.38247	0.382879	-0.0428991	2	3.20275	13	-0.270077	-1.64252e-05	0.652956
2	0	0	1	1	504.828	0.369469	0.370071	-0.0434922	2	3.20269	13	-0.259256	-1.60952e-05	0.629327
2	0	0	1	1	506.128	0.356468	0.356487	-0.0438467	2	3.20263	13	-0.249928	-1.56307e-05	0.606414
2	0	0	0	1	507.428	0.343467	0.3437	-0.0441441	2	3.20258	13	-0.241314	-1.51723e-05	0.585014
2	0	0	0	1	508.728	0.330466	0.331041	-0.0441642	2	3.20252	13	-0.233924	-1.46202e-05	0.564965
2	0	0	1	1	510.028	0.317465	0.316733	-0.0440927	2	3.20246	13	-0.227076	-1.39656e-05	0.543809
2	0	0	1	1	511.328	0.304464	0.303724	-0.0439649	2	3.2024	13	-0.221051	-1.33532e-05	0.524775
2	0	0	0	1	512.628	0.291463	0.291451	-0.0437318	2	3.20235	13	-0.21542	-1.27457e-05	0.506872
2	0	0	0	1	513.928	0.278462	0.278144	-0.0436384	2	3.20229	13	-0.210335	-1.21378e-05	0.488479
2	0	0	1	1	515.229	0.265461	0.264925	-0.0434994	2	3.20223	13	-0.20543	-1.15241e-05	0.470355
2	0	0	1	1	516.529	0.25246	0.251792	-0.0433763	2	3.20217	13	-0.201026	-1.09218e-05	0.452818
2	0	0	1	1	517.829	0.239459	0.239166	-0.0432542	2	3.20212	13	-0.196726	-1.03449e-05	0.435892
2	0	0	0	1	519.129	0.226458	0.22582	-0.043204	2	3.20206	13	-0.192696	-9.75632e-06	0.418516
2	0	0	0	1	520.429	0.213457	0.212968	-0.0431436	2	3.202	13	-0.188824	-9.18819e-06	0.401792
2	0	0	1	1	521.729	0.200457	0.200328	-0.043102	2	3.20195	13	-0.185196	-8.63452e-06	0.385524
2	0	0	1	1	523.029	0.187456	0.187555	-0.0430795	2	3.20189	13	-0.181733	-8.07978e-06	0.369288
2	0	0	0	1	524.329	0.174455	0.174656	-0.0430004	2	3.20184	13	-0.178513	-7.51028e-06	0.353169
2	0	0	0	1	525.629	0.161454	0.161521	-0.042932	2	3.20178	13	-0.175383	-6.93443e-06	0.336904
2	0	0	1	1	526.929	0.148453	0.149155	-0.0427804	2	3.20172	13	-0.172501	-6.38092e-06	0.321656
2	0	0	1	1	528.229	0.135452	0.13553	-0.042608	2	3.20167	13	-0.16978	-5.77468e-06	0.30531
2	0	0	0	1	529.53	0.122451	0.123166	-0.0423918	2	3.20161	13	-0.16727	-5.22124e-06	0.290436
2	0	0	0	1	530.83	0.10945	0.109676	-0.0421138	2	3.20156	13	-0.164844	-4.61888e-06	0.274521
2	0	0	1	1	532.13	0.0964491	0.0963017	-0.0417486	2	3.2015	13	-0.162594	-4.02046e-06	0.258896
2	0	0	1	1	533.43	0.0834482	0.0834962	-0.041332	2	3.20145	13	-0.160505	-3.45106e-06	0.244001
2	0	0	0	1	534.73	0.0704472	0.0694627	-0.0409101	2	3.2014	13	-0.158458	-2.84172e-06	0.227921
2	0	0	0	1	536.03	0.0574463	0.0573989	-0.0404185	2	3.20134	13	-0.156551	-2.31998e-06	0.21395
2	0	0	1	1	537.33	0.0444454	0.0450879	-0.0398857	2	3.20129	13	-0.154794	-1.79836e-06	0.199882
2	0	0	1	1	538.63	0.0314444	0.0317475	-0.0392878	2	3.20124	13	-0.153111	-1.24729e-06	0.184858
2	0	0	1	1	539.93	0.0184435	0.0189472	-0.0387181	2	3.20119	13	-0.151607	-7.33599e-07	0.170555
2	0	0	0	1	541.23	0.00544256	0.00612357	-0.0380721	2	3.20114	13	-0.150185	-2.33138e-07	0.156309
2	0	0	1	0	542.431	0.00654264	0.00784605	-0.0323644	3	3.2011	13	-0.150178	-2.53933e-07	0.158024
2	0	0	0	0	543.731	0.0195436	0.0198981	-0.0261271	3	3.20106	13	-0.151866	-5.19879e-07	0.171764
2	0	0	0	0	545.031	0.0325445	0.0324362	-0.0216132	3	3.20103	13	-0.153512	-7.0105e-07	0.185949
2	0	0	1	0	546.331	0.0455454	0.0455687	-0.0180316	3	3.201	13	-0.155017	-8.21679e-07	0.200586
2	0	0	1	0	547.631	0.0585464	0.0590652	-0.015188	3	3.20098	13	-0.156257	-8.97082e-07	0.215323
2	0	0	1	0	548.931	0.0715473	0.0719503	-0.0128081	3	3.20096	13	-0.157391	-9.21548e-07	0.229342
2	0	0	0	0	550.232	0.0845482	0.0850393	-0.0107728	3	3.20095	13	-0.158237	-9.1611e-07	0.243276
2	0	0	0	0	551.532	0.0975492	0.0981494	-0.00901522	3	3.20093	13	-0.15905	-8.84839e-07	0.257199
2	0	0	1	0	552.832	0.11055	0.110939	-0.00744352	3	3.20092	13	-0.159568	-8.25777e-07	0.270507
2	0	0	1	0	554.132	0.123551	0.12386	-0.00604388	3	3.20091	13	-0.160118	-7.48598e-07	0.283979
2	0	0	0	0	555.432	0.136552	0.136162	-0.00475715	3	3.20091	13	-0.16046	-6.47743e-07	0.296621
2	0	0	0	0	556.732	0.149553	0.149481	-0.00357568	3	3.2009	13	-0.160841	-5.34497e-07	0.310322
2	0	0	1	0	558.032	0.162554	0.162754	-0.00245699	3	3.2009	13	-0.160971	-3.99884e-07	0.323725
2	0	0	1	0	559.332	0.175555	0.175004	-0.00140741	3	3.2009	13	-0.161205	-2.46302e-07	0.336209
2	0	0	0	0	560.632	0.188556	0.189069	-0.000326179	3	3.2009	13	-0.161432	-6.16704e-08	0.350501
2	0	0	0	0	561.932	0.201557	0.201726	0.000678595	3	3.2009	13	-0.161599	1.36891e-07	0.363326
2	0	0	1	0	563.233	0.214558	0.214458	0.00175747	3	3.2009	13	-0.161825	3.76903e-07	0.376283
2	0	0	1	0	564.533	0.227558	0.227748	0.0028288	3	3.2009	13	-0.16228	6.44254e-07	0.390029
2	0	0	0	0	565.833	0.240559	0.239675	0.00398207	3	3.2009	13	-0.162621	9.54404e-07	0.402296
2	0	0	0	0	567.133	0.25356	0.253268	0.00517324	3	3.20091	13	-0.163093	1.31022e-06	0.416361
2	0	0	1	0	568.433	0.266562	0.266545	0.00646193	3	3.20092	13	-0.163606	1.72239e-06	0.430151
2	1	0	1	0	569.733	0.279562	0.279566	0.00778559	3	3.20093	13	-0.1642	2.17659e-06	0.443766
2	1	0	1	0	571.033	0.292563	0.292794	0.00925579	3	3.20094	13	-0.164787	2.71004e-06	0.457581
2	1	0	0	0	572.333	0.305564	0.304936	0.0108123	3	3.20095	13	-0.165498	3.29707e-06	0.470434
2	1	0	0	0	573.633	0.318565	0.31845	0.0125672	3	3.20097	13	-0.166202	4.00202e-06	0.484652
2	1	0	1	0	574.933	0.331566	0.331004	0.0144454	3	3.20099	13	-0.167072	4.78148e-06	0.498076
2	1	0	1	0	576.233	0.344567	0.344374	0.016548	3	3.20101	13	-0.16816	5.69869e-06	0.512534
2	1	0	0	0	577.534	0.357568	0.357745	0.018909	3	3.20103	13	-0.169327	6.76462e-06	0.527073
2	1	0	0	0	578.834	0.370569	0.370655	0.0215604	3	3.20106	13	-0.170743	7.99148e-06	0.541398
2	1	0	1	0	580.134	0.38357	0.383468	0.0246064	3	3.20109	13	-0.172313	9.43576e-06	0.555781
2	1	0	1	0	581.434	0.396571	0.39728	0.0281189	3	3.20112	13	-0.173992	1.11711e-05	0.571271
2	1	0	0	0	582.734	0.409571	0.409464	0.0321102	3	3.20116	13	-0.175923	1.3148e-05	0.585387
2	1	0	0	0	584.034	0.422572	0.422948	0.0363991	3	3.20121	13	-0.178432	1.53949e-05	0.60138
2	1	0	1	0	585.334	0.435573	0.435964	0.0409956	3	3.20126	13	-0.180823	1.78726e-05	0.616786
2	1	0	1	0	586.634	0.448574	0.449299	0.046152	3	3.20131	13	-0.183882	2.0736e-05	0.633181
2	1	0	1	0	587.934	0.461574	0.461875	0.051608	3	3.20138	13	-0.186995	2.38364e-05	0.64887
2	1	0	0	0	589.234	0.474576	0.475537	0.0575758	3	3.20145	13	-0.190505	2.73794e-05	0.666042
2	1	0	0	0	590.534	0.487577	0.48752	0.0641906	3	3.20153	13	-0.194195	3.12942e-05	0.681715
2	1	0	1	0	591.835	0.500578	0.499275	0.0716026	3	3.20162	13	-0.198342	3.57494e-05	0.697617
2	1	0	1	0	593.135	0.513579	0.513805	0.0798386	3	3.20172	13	-0.202718	4.10215e-05	0.716524
2	1	0	0	0	594.435	0.52658	0.526713	0.0891217	3	3.20183	13	-0.207636	4.69415e-05	0.734349
2	1	0	0	0	595.765	0.539881	0.539673	0.100703	3	3.20196	12	-0.213229	5.43468e-05	0.752902
2	1	0	1	0	597.065	0.552882	0.552694	0.113429	3	3.2021	12	-0.219538	6.26916e-05	0.772233
2	1	0	1	0	598.365	0.565883	0.56572	0.129625	3	3.20226	12	-0.227278	7.33312e-05	0.792998
2	1	0	0	0	599.665	0.578884	0.578847	0.152885	3	3.20244	12	-0.237493	8.84969e-05	0.81634
2	1	0	0	0	600.965	0.591885	0.592009	0.190288	3	3.20267	12	-0.252447	0.000112652	0.844456
2	1	0	1	0	602.265	0.604886	0.605363	0.25447	3	3.20295	12	-0.276846	0.000154047	0.88221
2	1	0	1	0	603.565	0.617886	0.618081	0.363413	3	3.20335	12	-0.318105	0.000224619	0.936186
2	1	0	0	0	604.866	0.630887	0.630761	0.537456	3	3.20393	12	-0.387598	0.000339007	1.01836
2	1	0	0	0	606.166	0.643888	0.64303	0.798258	3	3.20479	12	-0.499376	0.000513304	1.14241
2	1	0	1	0	607.496	0.657189	0.657192	1.17557	3	3.20609	11	-0.655702	0.000772574	1.31289
2	1	0	1	0	608.796	0.67019	0.670604	1.68157	3	3.20794	11	-0.777403	0.00112767	1.44801
2	1	0	1	0	610.096	0.683192	0.683391	2.34412	3	3.21054	11	-0.905855	0.00160195	1.58925
2	1	0	0	0	611.396	0.696192	0.696211	3.18657	3	3.21412	11	-1.11631	0.00221853	1.81252
2	1	0	0	0	612.696	0.709193	0.708904	4.22779	3	3.21893	11	-1.30979	0.0029971	2.0187
2	1	0	1	0	613.996	0.722194	0.722061	5.47927	3	3.22522	11	-1.34303	0.00395637	2.06509
2	1	0	1	0	615.296	0.735195	0.734994	6.94113	3	3.23328	11	-1.35661	0.00510168	2.0916
2	1	0	0	0	616.596	0.748196	0.747906	8.6143	3	3.24338	11	-1.36764	0.00644269	2.11554
2	1	0	0	0	617.896	0.761197	0.761075	10.4941	3	3.25579	11	-1.37775	0.00798682	2.13883
2	1	0	1	0	619.227	0.774498	0.774006	12.6252	3	3.27115	10	-1.38785	0.00977197	2.16185
2	1	0	1	0	620.527	0.787499	0.788005	14.8999	3	3.28904	10	-1.3972	0.0117412	2.18521
2	1	0	0	0	621.827	0.8005	0.800504	17.3381	3	3.30999	10	-1.40673	0.0138792	2.20723
2	1	0	0	0	623.127	0.8135	0.814149	20.0279	3	3.33428	10	-1.41631	0.0163057	2.23046
2	1	0	1	0	624.427	0.826501	0.826338	22.7825	3	3.36211	10	-1.42572	0.0188261	2.25206
2	1	0	1	0	625.727	0.839502	0.839438	25.6413	3	3.3936	10	-1.43476	0.0215243	2.27419
2	1	0	0	0	627.027	0.852503	0.852707	28.5821	3	3.42887	10	-1.44376	0.0243722	2.29647
2	1	0	0	0	628.327	0.865504	0.86551	31.5455	3	3.46796	10	-1.45241	0.0273029	2.31792
2	1	0	1	0	629.627	0.878505	0.878688	34.5461	3	3.51094	10	-1.46079	0.0303552	2.33947
2	1	0	1	0	630.927	0.891506	0.891913	37.5794	3	3.55784	10	-1.4685	0.0335175	2.36041
2	1	0	1	0	632.227	0.904507	0.904494	40.6128	3	3.6087	10	-1.47615	0.036734	2.38065
2	1	0	0	0	633.528	0.917508	0.917515	43.6384	3	3.66354	10	-1.48357	0.0400389	2.40109
2	1	0	0	0	634.828	0.930509	0.930159	46.597	3	3.72221	10	-1.49043	0.0433426	2.42059
2	1	0	1	0	636.128	0.94351	0.943899	49.5924	3	3.78477	10	-1.4972	0.0468102	2.4411
2	1	0	1	0	637.428	0.956511	0.957247	52.4765	3	3.85115	10	-1.50323	0.050233	2.46048
2	1	0	0	0	638.728	0.969512	0.9696	55.5395	3	3.92136	10	-1.51	0.0538511	2.4796
2	1	0	0	0	640.028	0.982513	0.982459	58.4221	3	3.99549	10	-1.51571	0.0573973	2.49817
2	1	0	1	0	641.328	0.995514	0.996127	61.116	3	4.07324	10	-1.52101	0.0608793	2.51714
2	1	0	1	0	642.529	0.992413	0.992758	59.2544	3	4.14652	10	-1.51736	0.0588253	2.51011
2	1	0	0	0	643.829	0.979412	0.980643	54.8099	3	4.22058	10	-1.50823	0.0537489	2.48887
2	1	0	0	0	645.129	0.966412	0.966956	50.7262	3	4.2891	10	-1.49996	0.04905	2.46691
2	1	0	1	0	646.429	0.953411	0.954109	46.9166	3	4.35254	10	-1.49203	0.0447636	2.44614
2	1	0	1	0	647.729	0.94041	0.940915	43.3405	3	4.41117	10	-1.48455	0.0407798	2.42546
2	1	0	0	0	649.029	0.927409	0.928246	39.9127	3	4.46526	10	-1.4771	0.0370488	2.40535
2	1	0	0	0	650.329	0.914408	0.914929	36.7529	3	4.5151	10	-1.47015	0.0336263	2.38508
2	1	0	1	0	651.629	0.901407	0.901857	33.6326	3	4.56082	10	-1.46306	0.0303318	2.36492
2	1	0	1	0	652.929	0.888406	0.888983	30.6536	3	4.60259	10	-1.45573	0.0272506	2.34472
2	1	0	0	0	654.23	0.875405	0.87539	27.839	3	4.6406	10	-1.44855	0.02437	2.32394
2	1	0	0	0	655.53	0.862404	0.862313	25.1156	3	4.67501	10	-1.4412	0.0216575	2.30352
2	1	0	1	0	656.83	0.849404	0.849379	22.672	3	4.70614	10	-1.43436	0.0192571	2.28374
2	1	0	1	0	658.13	0.836402	0.836372	20.1807	3	4.73397	10	-1.42673	0.0168786	2.2631
2	1	0	1	0	659.43	0.823401	0.823437	17.8367	3	4.75866	10	-1.41909	0.0146874	2.24252
2	1	0	0	0	660.73	0.8104	0.810592	15.6127	3	4.78039	10	-1.41089	0.0126556	2.22148
2	1	0	0	0	662.03	0.797399	0.797549	13.5477	3	4.79932	10	-1.4028	0.010805	2.20035
2	1	0	1	0	663.33	0.784398	0.784317	11.6412	3	4.81567	10	-1.39423	0.00913036	2.17854
2	1	0	1	0	664.63	0.771397	0.771056	9.88288	3	4.82963	10	-1.38546	0.00762025	2.15652
2	1	0	0	0	665.93	0.758397	0.758294	8.2858	3	4.84141	10	-1.37584	0.00628307	2.13413
2	1	0	0	0	667.23	0.745396	0.745288	6.86055	3	4.85124	10	-1.36567	0.00511309	2.11096
2	1	0	1	0	668.531	0.732395	0.732705	5.60008	3	4.85931	10	-1.35438	0.0041032	2.08709
2	1	0	1	0	669.831	0.719394	0.719279	4.50229	3	4.86585	10	-1.34177	0.00323841	2.06105
2	1	0	0	0	671.161	0.706093	0.706419	3.55993	3	4.8712	11	-1.32645	0.0025148	2.03287
2	1	0	0	0	672.461	0.693092	0.692775	2.7729	3	4.8753	11	-1.30796	0.00192099	2.00073
2	1	0	1	0	673.761	0.680091	0.680446	2.12186	3	4.87846	11	-1.28237	0.00144381	1.96282
2	1	0	1	0	675.061	0.66709	0.667001	1.5948	3	4.88086	11	-1.24119	0.00106373	1.9082
2	1	0	0	0	676.361	0.654089	0.65424	1.17596	3	4.88265	11	-1.17131	0.000769359	1.82555
2	1	0	0	0	677.661	0.641088	0.641135	0.850889	3	4.88395	11	-1.07628	0.000545535	1.71742
2	1	0	1	0	678.961	0.628087	0.628079	0.602932	3	4.88489	11	-0.974661	0.000378689	1.60274
2	1	0	1	0	680.291	0.614786	0.615776	0.416315	3	4.88555	12	-0.881523	0.000256357	1.4973
2	1	0	1	0	681.591	0.601785	0.602329	0.282701	3	4.886	12	-0.810023	0.000170279	1.41235
2	1	0	0	0	682.892	0.588784	0.589637	0.18687	3	4.8863	12	-0.753201	0.000110185	1.34284
2	1	0	0	0	684.192	0.575783	0.576302	0.119352	3	4.8865	12	-0.699673	6.8783e-05	1.27598
2	1	0	1	0	685.492	0.562783	0.562979	0.0721163	3	4.88662	12	-0.649459	4.06e-05	1.21244
2	1	0	1	0	686.807	0.549632	0.550262	0.0429187	3	4.88669	12	-0.606711	2.36165e-05	1.15697
2	1	0	0	0	688.122	0.536481	0.536502	0.0161329	3	4.88672	13	-0.564539	8.65534e-06	1.10104
2	0	0	0	0	689.422	0.52348	0.523523	-0.000372058	3	4.88673	13	-0.521781	-1.94781e-07	1.0453
2	0	0	1	0	690.722	0.510479	0.511138	-0.0124606	3	4.88671	13	-0.479704	-6.3691e-06	0.990842
2	0	0	1	0	692.022	0.497478	0.497844	-0.0217148	3	4.88669	13	-0.439886	-1.08106e-05	0.937731
2	0	0	0	0	693.322	0.484477	0.48451	-0.0284727	3	4.88665	13	-0.403327	-1.37953e-05	0.887838
2	0	0	0	0	694.622	0.471476	0.471318	-0.0337879	3	4.88661	13	-0.371484	-1.59248e-05	0.842801
2	0	0	1	0	695.923	0.458475	0.45807	-0.0379557	3	4.88656	13	-0.344246	-1.73864e-05	0.802317
2	0	0	1	0	697.223	0.445474	0.445001	-0.0411066	3	4.88651	13	-0.321233	-1.82925e-05	0.766233
2	0	0	0	0	698.523	0.432473	0.431876	-0.0436945	3	4.88645	13	-0.301793	-1.88706e-05	0.733669
2	0	0	0	0	699.823	0.419472	0.419408	-0.0456075	3	4.88639	13	-0.285262	-1.91282e-05	0.70467
2	0	0	0	0	701.123	0.406471	0.406339	-0.0472369	3	4.88633	13	-0.27098	-1.91942e-05	0.677319
2	0	0	1	0	702.423	0.39347	0.393527	-0.0483482	3	4.88626	13	-0.25871	-1.90263e-05	0.652237
2	0	0	1	0	703.723	0.380469	0.379708	-0.0492574	3	4.8862	13	-0.24786	-1.87034e-05	0.627568
2	0	0	0	0	705.023	0.367469	0.367068	-0.0498048	3	4.88613	13	-0.238283	-1.82817e-05	0.60535
2	0	0	0	0	706.323	0.354468	0.353792	-0.0501406	3	4.88607	13	-0.229943	-1.77393e-05	0.583735
2	0	0	1	0	707.623	0.341467	0.341277	-0.0502831	3	4.886	13	-0.222495	-1.71605e-05	0.563772
2	0	0	1	0	708.923	0.328466	0.328096	-0.0502983	3	4.88594	13	-0.215898	-1.65027e-05	0.543993
2	0	0	0	0	710.224	0.315465	0.315723	-0.0501148	3	4.88587	13	-0.209957	-1.58224e-05	0.52568
2	0	0	0	0	711.524	0.302464	0.302373	-0.0497976	3	4.8858	13	-0.204698	-1.50575e-05	0.507072
2	0	0	1	0	712.824	0.289463	0.289482	-0.0495087	3	4.88574	13	-0.199796	-1.43319e-05	0.489278
2	0	0	1	0	714.124	0.276462	0.276681	-0.0492069	3	4.88567	13	-0.195343	-1.36146e-05	0.472024
2	0	0	0	0	715.424	0.263461	0.263799	-0.0489388	3	4.88561	13	-0.191192	-1.291e-05	0.454992
2	0	0	0	0	716.724	0.25046	0.250712	-0.0487593	3	4.88555	13	-0.18738	-1.22245e-05	0.438092
2	0	0	1	0	718.024	0.237459	0.238047	-0.0485855	3	4.88548	13	-0.183731	-1.15656e-05	0.421778
2	0	0	1	0	719.324	0.224458	0.224734	-0.0484566	3	4.88542	13	-0.180467	-1.08899e-05	0.405201
2	0	0	1	0	720.624	0.211457	0.211535	-0.0483927	3	4.88536	13	-0.177317	-1.02368e-05	0.388852
2	0	0	0	0	721.924	0.198456	0.198687	-0.0483117	3	4.88529	13	-0.17414	-9.59891e-06	0.372827
2	0	0	0	0	723.224	0.185455	0.185381	-0.0482583	3	4.88523	13	-0.171095	-8.9462e-06	0.356477
2	0	0	1	0	724.525	0.172455	0.173055	-0.0481796	3	4.88517	13	-0.168212	-8.3377e-06	0.341267
2	0	0	1	0	725.825	0.159454	0.159572	-0.0480807	3	4.8851	13	-0.165406	-7.67233e-06	0.324978
2	0	0	0	0	727.125	0.146453	0.146697	-0.0479748	3	4.88504	13	-0.162812	-7.03778e-06	0.309509
2	0	0	0	0	728.425	0.133452	0.133413	-0.0478224	3	4.88498	13	-0.160295	-6.38014e-06	0.293708
2	0	0	1	0	729.725	0.120451	0.120776	-0.0476357	3	4.88492	13	-0.158114	-5.75326e-06	0.27889
2	0	0	1	0	731.025	0.10745	0.107803	-0.0473344	3	4.88485	13	-0.155998	-5.10279e-06	0.263801
2	0	0	0	0	732.325	0.0944489	0.0945082	-0.0470201	3	4.88479	13	-0.154055	-4.44378e-06	0.248563
2	0	0	0	0	733.625	0.081448	0.0811741	-0.0465866	3	4.88473	13	-0.152181	-3.78163e-06	0.233355
2	0	0	1	0	734.925	0.0684471	0.0686794	-0.0461434	3	4.88467	13	-0.15041	-3.1691e-06	0.219089
2	0	0	1	0	736.225	0.0554461	0.0559354	-0.0456212	3	4.88461	13	-0.148838	-2.55184e-06	0.204773
2	0	0	0	0	737.526	0.0424452	0.0426353	-0.0450529	3	4.88455	13	-0.14736	-1.92084e-06	0.189995
2	0	0	0	0	738.826	0.0294443	0.0297575	-0.0444153	3	4.8845	13	-0.146059	-1.32169e-06	0.175816
2	0	0	1	0	740.126	0.0164433	0.0161708	-0.0437375	3	4.88444	13	-0.14481	-7.07272e-07	0.16098
2	0	0	1	0	741.426	0.00344242	0.00354569	-0.0430402	3	4.88438	13	-0.143609	-1.52607e-07	0.147154
2	0	0	0	1	742.626	-0.00855845	-0.00819541	-0.0424366	3	4.88433	13	-0.142443	3.47785e-07	0.134248
2	0	0	1	1	743.926	-0.0215594	-0.0218182	-0.0416811	3	4.88428	13	-0.141537	9.09406e-07	0.119719
2	0	0	1	1	745.226	-0.0345603	-0.034298	-0.0409791	3	4.88422	13	-0.140594	1.4055e-06	0.106296
2	0	0	0	1	746.527	-0.0475613	-0.0474845	-0.0402907	3	4.88417	13	-0.139796	1.91319e-06	0.0923117
2	0	0	0	1	747.827	-0.0605622	-0.0608356	-0.0396357	3	4.88412	13	-0.138961	2.41126e-06	0.0781255
2	0	0	1	1	749.127	-0.0735631	-0.0727625	-0.0390511	3	4.88407	13	-0.138259	2.84146e-06	0.0654963
2	0	0	1	1	750.427	-0.0865641	-0.0858121	-0.0385447	3	4.88402	13	-0.137541	3.3076e-06	0.051729
2	0	0	0	1	751.727	-0.099565	-0.0998478	-0.0380474	3	4.88397	13	-0.136646	3.79895e-06	0.0367981
2	0	0	0	1	753.027	-0.112566	-0.112528	-0.0376829	3	4.88392	13	-0.136066	4.24038e-06	0.0235378
2	0	0	1	1	754.327	-0.125567	-0.125982	-0.0373828	3	4.88387	13	-0.135151	4.70956e-06	0.00916865
2	0	0	1	1	755.627	-0.138568	-0.138615	-0.0372592	3	4.88382	13	-0.134364	5.16467e-06	-0.00425076
2	0	0	0	1	756.927	-0.151569	-0.151791	-0.0371653	3	4.88377	13	-0.133667	5.64135e-06	-0.0181238
2	0	0	0	1	758.227	-0.16457	-0.165126	-0.0371578	3	4.88372	13	-0.132816	6.13571e-06	-0.0323101
2	0	0	1	1	759.527	-0.17757	-0.177833	-0.0372316	3	4.88367	13	-0.131979	6.621e-06	-0.0458538
2	0	0	1	1	760.828	-0.190572	-0.190566	-0.0373828	3	4.88362	13	-0.131097	7.12389e-06	-0.0594696
2	0	0	1	1	762.128	-0.203573	-0.203343	-0.037572	3	4.88358	13	-0.130142	7.64001e-06	-0.0732009
2	0	0	0	1	763.428	-0.216573	-0.216989	-0.0378573	3	4.88353	13	-0.129094	8.21463e-06	-0.0878957
2	0	0	0	1	764.728	-0.229574	-0.229976	-0.038173	3	4.88348	13	-0.128061	8.77888e-06	-0.101915
2	0	0	1	1	766.028	-0.242575	-0.243172	-0.038561	3	4.88343	13	-0.127077	9.37698e-06	-0.116096
2	0	0	1	1	767.328	-0.255576	-0.255619	-0.0389833	3	4.88338	13	-0.125882	9.9649e-06	-0.129737
2	0	0	0	1	768.628	-0.268577	-0.268293	-0.0394553	3	4.88333	13	-0.124751	1.05856e-05	-0.143542
2	0	0	0	1	769.928	-0.281578	-0.280982	-0.0400053	3	4.88327	13	-0.123602	1.12408e-05	-0.15738
2	0	0	1	1	771.228	-0.294579	-0.29407	-0.0405952	3	4.88322	13	-0.122467	1.19378e-05	-0.171603
2	0	0	1	1	772.528	-0.30758	-0.30694	-0.0412448	3	4.88317	13	-0.121189	1.26597e-05	-0.185752
2	0	0	0	1	773.829	-0.320581	-0.320213	-0.0419768	3	4.88311	13	-0.1199	1.34415e-05	-0.200313
2	0	0	0	1	775.129	-0.333582	-0.33312	-0.0427261	3	4.88306	13	-0.118679	1.42329e-05	-0.214441
2	0	0	1	1	776.429	-0.346583	-0.346238	-0.0435388	3	4.883	13	-0.117325	1.50748e-05	-0.228913
2	0	0	1	1	777.729	-0.359584	-0.359176	-0.0443731	3	4.88294	13	-0.115954	1.59378e-05	-0.243222
2	0	0	0	1	779.029	-0.372585	-0.372481	-0.0453466	3	4.88288	13	-0.114434	1.68907e-05	-0.258046
2	0	0	0	1	780.329	-0.385586	-0.385655	-0.0463031	3	4.88282	13	-0.113022	1.78571e-05	-0.272633
2	0	0	0	1	781.629	-0.398587	-0.398998	-0.0473089	3	4.88276	13	-0.111443	1.88762e-05	-0.287555
2	0	0	1	1	782.929	-0.411588	-0.411514	-0.0483745	3	4.8827	13	-0.109917	1.99068e-05	-0.301597
2	0	0	1	1	784.229	-0.424588	-0.424644	-0.0494924	3	4.88264	13	-0.10829	2.10167e-05	-0.316354
2	0	0	0	1	785.529	-0.437589	-0.43737	-0.0506722	3	4.88257	13	-0.106732	2.21625e-05	-0.330638
2	0	0	0	1	786.829	-0.45059	-0.450197	-0.0519452	3	4.8825	13	-0.10494	2.33856e-05	-0.345257
2	0	0	1	1	788.13	-0.463591	-0.463989	-0.0532895	3	4.88243	13	-0.10308	2.47257e-05	-0.360909
2	0	0	1	1	789.43	-0.476592	-0.477425	-0.054666	3	4.88236	13	-0.101233	2.60989e-05	-0.376192
2	0	0	0	1	790.73	-0.489593	-0.489955	-0.0561938	3	4.88229	13	-0.0993148	2.75325e-05	-0.39064
2	0	0	0	1	792.03	-0.502594	-0.503503	-0.0577707	3	4.88222	13	-0.0971323	2.90877e-05	-0.40637
2	0	0	1	1	793.33	-0.515595	-0.515721	-0.0594512	3	4.88214	13	-0.0951085	3.06603e-05	-0.420613
2	0	0	1	1	794.63	-0.528596	-0.529033	-0.0612379	3	4.88206	13	-0.0927216	3.23969e-05	-0.436312
2	0	0	0	1	795.93	-0.541597	-0.541304	-0.0631209	3	4.88198	13	-0.0903639	3.41676e-05	-0.45094
2	0	0	0	1	797.23	-0.554598	-0.554199	-0.0650827	3	4.88189	13	-0.0879227	3.60688e-05	-0.466276
2	0	0	1	1	798.53	-0.567599	-0.567412	-0.0672332	3	4.8818	13	-0.0853684	3.81489e-05	-0.482043
2	0	0	1	1	799.83	-0.5806	-0.580592	-0.0695686	3	4.88171	13	-0.0825377	4.0391e-05	-0.498054
2	0	0	1	1	801.13	-0.593601	-0.593289	-0.0721797	3	4.88162	13	-0.0795947	4.28235e-05	-0.513695
2	0	0	0	1	802.431	-0.606602	-0.606438	-0.0749464	3	4.88152	13	-0.0764711	4.54503e-05	-0.529967
2	0	0	0	1	803.731	-0.619602	-0.619538	-0.0781261	3	4.88142	13	-0.0730538	4.84021e-05	-0.546484
2	0	0	1	1	803.956	-0.621853	-0.622169	-0.0841307	3	4.8814	13	-0.0729165	5.23435e-05	-0.549253