File: Data/2022_01_04 NiNx Ti electrode1_04_CP_C05.mpt
EC-Lab ASCII FILE
Nb header lines : 54

Chronopotentiometry

Run on channel : 5 (SN 30436)
User :
CE vs. WE compliance from -10 V to 10 V
Electrode connection : standard
Potential control : Ewe
Ewe ctrl range : min = -2.50 V, max = 2.50 V
Safety Limits :
	Do not start on E overload
Acquisition started on : 01/04/2023 12:17:22.870
Technique started on : 01/04/2023 12:29:22.413
Loaded Setting File :  NONE
Saved on :
	File : 2022_01_04 NiNx Ti electrode1_04_CP_C05.mpr
	Directory : C:\Users\grupogalan\Documents\EC-Lab\Data\Scott\
	Host : 169.254.104.159
Device : VSP (SN 1176)
Address : USB
EC-Lab for windows v11.46 (software)
Internet server v11.40 (firmware)
Command interpretor v11.40 (firmware)
Electrode material :
Initial state :
Electrolyte :
Comments :
Electrode surface area : 0.000 cm²
Characteristic mass : 0.001 g
Equivalent Weight : 0.000 g/eq.
Density : 0.000 g/cm3
Volume (V) : 0.001 cm³
Cycle Definition : Charge/Discharge alternance
Ns                  0                   1                   2                   3                   4                   5                   6                   7                   8                   9                   10                  11                  12
Is                  10.000              18.000              32.000              56.000              100.000             178.000             316.000             562.000             1.000               1.778               3.162               5.623               10.000
unit Is             µA                  µA                  µA                  µA                  µA                  µA                  µA                  µA                  mA                  mA                  mA                  mA                  mA
vs.                 <None>              <None>              <None>              <None>              <None>              <None>              <None>              <None>              <None>              <None>              <None>              <None>              <None>
ts (h:m:s)          0:03:0.0000         0:03:0.0000         0:03:0.0000         0:03:0.0000         0:03:0.0000         0:03:0.0000         0:03:0.0000         0:03:0.0000         0:03:0.0000         0:03:0.0000         0:03:0.0000         0:03:0.0000         0:03:0.0000
EM (V)              pass                pass                pass                pass                pass                pass                pass                pass                pass                pass                pass                pass                pass
dQM                 500.000             900.000             1.600               2.800               5.000               8.900               15.800              28.100              50.000              88.900              158.100             281.150             500.000
unit dQM            nA.h                nA.h                µA.h                µA.h                µA.h                µA.h                µA.h                µA.h                µA.h                µA.h                µA.h                µA.h                µA.h
record              <Ewe>               <Ewe>               <Ewe>               <Ewe>               <Ewe>               <Ewe>               <Ewe>               <Ewe>               <Ewe>               <Ewe>               <Ewe>               <Ewe>               <Ewe>
dEs (mV)            0.00                0.00                0.00                0.00                0.00                0.00                0.00                0.00                0.00                0.00                0.00                0.00                0.00
dts (s)             1.0000              1.0000              1.0000              1.0000              1.0000              1.0000              1.0000              1.0000              1.0000              1.0000              1.0000              1.0000              1.0000
E range min (V)     -2.500              -2.500              -2.500              -2.500              -2.500              -2.500              -2.500              -2.500              -2.500              -2.500              -2.500              -2.500              -2.500
E range max (V)     2.500               2.500               2.500               2.500               2.500               2.500               2.500               2.500               2.500               2.500               2.500               2.500               2.500
I Range             10 mA               10 mA               10 mA               10 mA               10 mA               10 mA               10 mA               10 mA               10 mA               10 mA               10 mA               10 mA               10 mA
Bandwidth           5                   5                   5                   5                   5                   5                   5                   5                   5                   5                   5                   5                   5
goto Ns'            0                   0                   0                   0                   0                   0                   0                   0                   0                   0                   0                   0                   0
nc cycles           0                   0                   0                   0                   0                   0                   0                   0                   0                   0                   0                   0                   0

mode	ox/red	error	control changes	Ns changes	counter inc.	Ns	time/s	control/mA	<Ewe>/V	I/mA	dQ/C	(Q-Qo)/C	half cycle	Q charge/discharge/mA.h	I Range	Energy charge/W.h	Energy discharge/W.h	Capacitance charge/µF	Capacitance discharge/µF	Q discharge/mA.h	Q charge/mA.h	Capacity/mA.h	Efficiency/%	cycle number	P/W
1	1	0	1	0	0	0	719.543	0.01	0.254727	0.00980302	9.28658e-06	9.28658e-06	0	2.57961e-06	11	6.57094e-10	0.000000000000000E+000	0.000000000000000E+000	0.000000000000000E+000	0.000000000000000E+000	2.57961e-06	2.57961e-06	0.0000000E+000	0.000000000000000E+000	2.49709e-06
1	1	0	1	0	0	0	731.543	0.01	0.412333	0.0104393	0.00012618	0.00012618	0	3.50499e-05	11	1.31847e-08	0.000000000000000E+000	800.601	0.000000000000000E+000	0.000000000000000E+000	3.50499e-05	3.50499e-05	0.0000000E+000	0.000000000000000E+000	4.30446e-06
1	1	0	1	0	0	0	743.543	0.01	0.417531	0.00954851	0.000242433	0.000242433	0	6.73425e-05	11	2.65998e-08	0.000000000000000E+000	1489.1	0.000000000000000E+000	0.000000000000000E+000	6.73425e-05	6.73425e-05	0.0000000E+000	0.000000000000000E+000	3.9868e-06
1	1	0	1	0	0	0	755.543	0.01	0.421069	0.00923037	0.000358209	0.000358209	0	9.95026e-05	11	4.00914e-08	0.000000000000000E+000	2153.44	0.000000000000000E+000	0.000000000000000E+000	9.95026e-05	9.95026e-05	0.0000000E+000	0.000000000000000E+000	3.88662e-06
1	1	0	1	0	0	0	767.543	0.01	0.424088	0.00891223	0.000473419	0.000473419	0	0.000131505	11	5.362e-08	0.000000000000000E+000	2795.32	0.000000000000000E+000	0.000000000000000E+000	0.000131505	0.000131505	0.0000000E+000	0.000000000000000E+000	3.77957e-06
1	1	0	1	0	0	0	779.543	0.01	0.426919	0.00980302	0.000588171	0.000588171	0	0.000163381	11	6.71873e-08	0.000000000000000E+000	3415.77	0.000000000000000E+000	0.000000000000000E+000	0.000163381	0.000163381	0.0000000E+000	0.000000000000000E+000	4.1851e-06
1	1	0	1	0	0	0	791.543	0.01	0.429585	0.009294	0.000702649	0.000702649	0	0.00019518	11	8.08088e-08	0.000000000000000E+000	4018.38	0.000000000000000E+000	0.000000000000000E+000	0.00019518	0.00019518	0.0000000E+000	0.000000000000000E+000	3.99256e-06
1	1	0	1	0	0	0	803.543	0.01	0.432136	0.00891223	0.000817583	0.000817583	0	0.000227106	11	9.45688e-08	0.000000000000000E+000	4608.44	0.000000000000000E+000	0.000000000000000E+000	0.000227106	0.000227106	0.0000000E+000	0.000000000000000E+000	3.8513e-06
1	1	0	1	0	0	0	815.543	0.01	0.434365	0.0101212	0.000932078	0.000932078	0	0.00025891	11	1.08352e-07	0.000000000000000E+000	5188.62	0.000000000000000E+000	0.000000000000000E+000	0.00025891	0.00025891	0.0000000E+000	0.000000000000000E+000	4.39628e-06
1	1	0	1	0	0	0	827.543	0.01	0.436264	0.00967576	0.00104675	0.00104675	0	0.000290765	11	1.22223e-07	0.000000000000000E+000	5766.05	0.000000000000000E+000	0.000000000000000E+000	0.000290765	0.000290765	0.0000000E+000	0.000000000000000E+000	4.22119e-06
1	1	0	1	0	0	0	839.543	0.01	0.437586	0.00993028	0.00116154	0.00116154	0	0.00032265	11	1.36158e-07	0.000000000000000E+000	6352.08	0.000000000000000E+000	0.000000000000000E+000	0.00032265	0.00032265	0.0000000E+000	0.000000000000000E+000	4.34535e-06
1	1	0	1	0	0	0	851.543	0.01	0.43843	0.00986665	0.00127623	0.00127623	0	0.000354508	11	1.50115e-07	0.000000000000000E+000	6947.23	0.000000000000000E+000	0.000000000000000E+000	0.000354508	0.000354508	0.0000000E+000	0.000000000000000E+000	4.32583e-06
1	1	0	1	0	0	0	863.543	0.01	0.438566	0.00935762	0.00139084	0.00139084	0	0.000386344	11	1.64076e-07	0.000000000000000E+000	7565.5	0.000000000000000E+000	0.000000000000000E+000	0.000386344	0.000386344	0.0000000E+000	0.000000000000000E+000	4.10394e-06
1	1	0	1	0	0	0	875.543	0.01	0.437879	0.00980302	0.00150514	0.00150514	0	0.000418094	11	1.77991e-07	0.000000000000000E+000	8217.95	0.000000000000000E+000	0.000000000000000E+000	0.000418094	0.000418094	0.0000000E+000	0.000000000000000E+000	4.29254e-06
1	1	0	1	0	0	0	887.543	0.01	0.436154	0.00954851	0.00161979	0.00161979	0	0.000449942	11	1.9191e-07	0.000000000000000E+000	8928.02	0.000000000000000E+000	0.000000000000000E+000	0.000449942	0.000449942	0.0000000E+000	0.000000000000000E+000	4.16462e-06
1	1	0	1	0	0	0	898.596	0.01	0.433046	0.00954851	0.00172527	0.00172527	0	0.000479242	11	2.04643e-07	0.000000000000000E+000	9675.18	0.000000000000000E+000	0.000000000000000E+000	0.000479242	0.000479242	0.0000000E+000	0.000000000000000E+000	4.13494e-06
1	1	0	0	0	0	1	910.596	0.018	0.445529	0.0168657	0.000201748	0.00192702	0	0.000535283	11	2.29491e-07	0.000000000000000E+000	10099.5	0.000000000000000E+000	0.000000000000000E+000	0.000535283	0.000535283	0.0000000E+000	0.000000000000000E+000	7.51417e-06
1	1	0	0	0	0	1	922.596	0.018	0.446915	0.0164203	0.000403381	0.00212865	0	0.000591292	11	2.54492e-07	0.000000000000000E+000	11075.8	0.000000000000000E+000	0.000000000000000E+000	0.000591292	0.000591292	0.0000000E+000	0.000000000000000E+000	7.33849e-06
1	1	0	0	0	0	1	934.596	0.018	0.447726	0.0161022	0.000604865	0.00233013	0	0.00064726	11	2.7953e-07	0.000000000000000E+000	12073.2	0.000000000000000E+000	0.000000000000000E+000	0.00064726	0.00064726	0.0000000E+000	0.000000000000000E+000	7.20937e-06
1	1	0	0	0	0	1	946.596	0.018	0.448001	0.0166112	0.000806431	0.0025317	0	0.00070325	11	3.04608e-07	0.000000000000000E+000	13099	0.000000000000000E+000	0.000000000000000E+000	0.00070325	0.00070325	0.0000000E+000	0.000000000000000E+000	7.44184e-06
1	1	0	0	0	0	1	958.596	0.018	0.44775	0.0164839	0.0010082	0.00273347	0	0.000759296	11	3.29712e-07	0.000000000000000E+000	14161.3	0.000000000000000E+000	0.000000000000000E+000	0.000759296	0.000759296	0.0000000E+000	0.000000000000000E+000	7.38069e-06
1	1	0	0	0	0	1	970.596	0.018	0.446927	0.0164203	0.00121005	0.00293532	0	0.000815366	11	3.54796e-07	0.000000000000000E+000	15272.2	0.000000000000000E+000	0.000000000000000E+000	0.000815366	0.000815366	0.0000000E+000	0.000000000000000E+000	7.33868e-06
1	1	0	0	0	0	1	982.596	0.018	0.445435	0.0171202	0.00141211	0.00313738	0	0.000871494	11	3.7984e-07	0.000000000000000E+000	16451.2	0.000000000000000E+000	0.000000000000000E+000	0.000871494	0.000871494	0.0000000E+000	0.000000000000000E+000	7.62594e-06
1	1	0	0	0	0	1	994.596	0.018	0.442765	0.0166112	0.00161404	0.00333931	0	0.000927585	11	4.04748e-07	0.000000000000000E+000	17758.6	0.000000000000000E+000	0.000000000000000E+000	0.000927585	0.000927585	0.0000000E+000	0.000000000000000E+000	7.35486e-06
1	1	0	0	0	0	1	1006.6	0.018	0.439057	0.0171839	0.00181634	0.00354161	0	0.000983781	11	4.2952e-07	0.000000000000000E+000	19213.3	0.000000000000000E+000	0.000000000000000E+000	0.000983781	0.000983781	0.0000000E+000	0.000000000000000E+000	7.5447e-06
1	1	0	0	0	0	1	1018.6	0.018	0.434397	0.0168657	0.00201914	0.00374441	0	0.00104011	11	4.54117e-07	0.000000000000000E+000	20840.4	0.000000000000000E+000	0.000000000000000E+000	0.00104011	0.00104011	0.0000000E+000	0.000000000000000E+000	7.32642e-06
1	1	0	0	0	0	1	1030.6	0.018	0.428892	0.018011	0.00222144	0.00394671	0	0.00109631	11	4.78364e-07	0.000000000000000E+000	22660.7	0.000000000000000E+000	0.000000000000000E+000	0.00109631	0.00109631	0.0000000E+000	0.000000000000000E+000	7.72478e-06
1	1	0	0	0	0	1	1042.6	0.018	0.423009	0.0171839	0.00242372	0.00414899	0	0.0011525	11	5.02285e-07	0.000000000000000E+000	24654.9	0.000000000000000E+000	0.000000000000000E+000	0.0011525	0.0011525	0.0000000E+000	0.000000000000000E+000	7.26892e-06
1	1	0	0	0	0	1	1054.6	0.018	0.416855	0.0170566	0.00262604	0.00435131	0	0.0012087	11	5.25872e-07	0.000000000000000E+000	26838.7	0.000000000000000E+000	0.000000000000000E+000	0.0012087	0.0012087	0.0000000E+000	0.000000000000000E+000	7.11012e-06
1	1	0	0	0	0	1	1066.6	0.018	0.410545	0.0173747	0.0028282	0.00455347	0	0.00126485	11	5.4909e-07	0.000000000000000E+000	29222.9	0.000000000000000E+000	0.000000000000000E+000	0.00126485	0.00126485	0.0000000E+000	0.000000000000000E+000	7.13311e-06
1	1	0	0	0	0	1	1078.6	0.018	0.404308	0.0169293	0.00303013	0.00475539	0	0.00132094	11	5.71929e-07	0.000000000000000E+000	31791.4	0.000000000000000E+000	0.000000000000000E+000	0.00132094	0.00132094	0.0000000E+000	0.000000000000000E+000	6.84466e-06
1	1	0	1	0	0	2	1089.6	0.032	0.439663	0.031691	0.000340958	0.00509636	0	0.00141565	11	6.12572e-07	0.000000000000000E+000	27557.3	0.000000000000000E+000	0.000000000000000E+000	0.00141565	0.00141565	0.0000000E+000	0.000000000000000E+000	1.39334e-05
1	1	0	1	0	0	2	1101.6	0.032	0.44986	0.0303548	0.000712917	0.00546831	0	0.00151898	11	6.58647e-07	0.000000000000000E+000	28023.4	0.000000000000000E+000	0.000000000000000E+000	0.00151898	0.00151898	0.0000000E+000	0.000000000000000E+000	1.36554e-05
1	1	0	1	0	0	2	1113.6	0.032	0.453371	0.0310547	0.00108487	0.00584027	0	0.0016223	11	7.05356e-07	0.000000000000000E+000	29400.6	0.000000000000000E+000	0.000000000000000E+000	0.0016223	0.0016223	0.0000000E+000	0.000000000000000E+000	1.40793e-05
1	1	0	1	0	0	2	1125.6	0.032	0.455316	0.0311184	0.00145655	0.00621195	0	0.00172554	11	7.52277e-07	0.000000000000000E+000	30968.5	0.000000000000000E+000	0.000000000000000E+000	0.00172554	0.00172554	0.0000000E+000	0.000000000000000E+000	1.41687e-05
1	1	0	1	0	0	2	1137.6	0.032	0.456976	0.0308639	0.00182834	0.00658373	0	0.00182882	11	7.99393e-07	0.000000000000000E+000	32552.5	0.000000000000000E+000	0.000000000000000E+000	0.00182882	0.00182882	0.0000000E+000	0.000000000000000E+000	1.41041e-05
1	1	0	1	0	0	2	1149.6	0.032	0.45845	0.0315001	0.00220007	0.00695547	0	0.00193207	11	8.46662e-07	0.000000000000000E+000	34141.6	0.000000000000000E+000	0.000000000000000E+000	0.00193207	0.00193207	0.0000000E+000	0.000000000000000E+000	1.44412e-05
1	1	0	1	0	0	2	1161.6	0.032	0.459948	0.0310547	0.00257218	0.00732758	0	0.00203544	11	8.94135e-07	0.000000000000000E+000	35705.7	0.000000000000000E+000	0.000000000000000E+000	0.00203544	0.00203544	0.0000000E+000	0.000000000000000E+000	1.42836e-05
1	1	0	1	0	0	2	1173.6	0.032	0.461481	0.0309911	0.00294417	0.00769957	0	0.00213877	11	9.41748e-07	0.000000000000000E+000	37240.1	0.000000000000000E+000	0.000000000000000E+000	0.00213877	0.00213877	0.0000000E+000	0.000000000000000E+000	1.43018e-05
1	1	0	1	0	0	2	1185.6	0.032	0.462986	0.0309911	0.00331622	0.00807162	0	0.00224212	11	9.89525e-07	0.000000000000000E+000	38757.6	0.000000000000000E+000	0.000000000000000E+000	0.00224212	0.00224212	0.0000000E+000	0.000000000000000E+000	1.43484e-05
1	1	0	1	0	0	2	1197.6	0.032	0.464511	0.0307366	0.00368815	0.00844355	0	0.00234543	11	1.03744e-06	0.000000000000000E+000	40248.8	0.000000000000000E+000	0.000000000000000E+000	0.00234543	0.00234543	0.0000000E+000	0.000000000000000E+000	1.42775e-05
1	1	0	1	0	0	2	1209.6	0.032	0.466123	0.0304821	0.0040604	0.0088158	0	0.00244883	11	1.08557e-06	0.000000000000000E+000	41702.7	0.000000000000000E+000	0.000000000000000E+000	0.00244883	0.00244883	0.0000000E+000	0.000000000000000E+000	1.42084e-05
1	1	0	1	0	0	2	1221.6	0.032	0.467585	0.0309275	0.00443255	0.00918795	0	0.00255221	11	1.13383e-06	0.000000000000000E+000	43164.5	0.000000000000000E+000	0.000000000000000E+000	0.00255221	0.00255221	0.0000000E+000	0.000000000000000E+000	1.44612e-05
1	1	0	1	0	0	2	1233.6	0.032	0.469378	0.0310547	0.00480466	0.00956006	0	0.00265557	11	1.18226e-06	0.000000000000000E+000	44537.5	0.000000000000000E+000	0.000000000000000E+000	0.00265557	0.00265557	0.0000000E+000	0.000000000000000E+000	1.45764e-05
1	1	0	1	0	0	2	1245.6	0.032	0.471228	0.0303548	0.00517687	0.00993227	0	0.00275896	11	1.23089e-06	0.000000000000000E+000	45876.3	0.000000000000000E+000	0.000000000000000E+000	0.00275896	0.00275896	0.0000000E+000	0.000000000000000E+000	1.4304e-05
1	1	0	1	0	0	2	1257.6	0.032	0.473089	0.031182	0.00554898	0.0103044	0	0.00286233	11	1.2797e-06	0.000000000000000E+000	47189.3	0.000000000000000E+000	0.000000000000000E+000	0.00286233	0.00286233	0.0000000E+000	0.000000000000000E+000	1.47519e-05
1	1	0	0	0	0	3	1268.6	0.056	0.524592	0.0557424	0.000553079	0.0108885	0	0.00302458	11	1.36167e-06	0.000000000000000E+000	40347.8	0.000000000000000E+000	0.000000000000000E+000	0.00302458	0.00302458	0.0000000E+000	0.000000000000000E+000	2.9242e-05
1	1	0	0	0	0	3	1280.6	0.056	0.552805	0.0551697	0.00121643	0.0115518	0	0.00320884	11	1.46132e-06	0.000000000000000E+000	38754.3	0.000000000000000E+000	0.000000000000000E+000	0.00320884	0.00320884	0.0000000E+000	0.000000000000000E+000	3.04981e-05
1	1	0	0	0	0	3	1292.6	0.056	0.572418	0.0552333	0.00187954	0.0122149	0	0.00339304	11	1.56523e-06	0.000000000000000E+000	38449.1	0.000000000000000E+000	0.000000000000000E+000	0.00339304	0.00339304	0.0000000E+000	0.000000000000000E+000	3.16165e-05
1	1	0	0	0	0	3	1304.6	0.056	0.583184	0.0551061	0.00254254	0.0128779	0	0.0035772	11	1.67183e-06	0.000000000000000E+000	39207.3	0.000000000000000E+000	0.000000000000000E+000	0.0035772	0.0035772	0.0000000E+000	0.000000000000000E+000	3.2137e-05
1	1	0	0	0	0	3	1316.6	0.056	0.591417	0.0554878	0.00320554	0.0135409	0	0.00376137	11	1.78006e-06	0.000000000000000E+000	40217.8	0.000000000000000E+000	0.000000000000000E+000	0.00376137	0.00376137	0.0000000E+000	0.000000000000000E+000	3.28165e-05
1	1	0	0	0	0	3	1328.6	0.056	0.598389	0.0555515	0.00386839	0.0142038	0	0.0039455	11	1.88969e-06	0.000000000000000E+000	41330.6	0.000000000000000E+000	0.000000000000000E+000	0.0039455	0.0039455	0.0000000E+000	0.000000000000000E+000	3.32414e-05
1	1	0	0	0	0	3	1340.6	0.056	0.602906	0.0555515	0.00453102	0.0148664	0	0.00412956	11	2.00031e-06	0.000000000000000E+000	42697.6	0.000000000000000E+000	0.000000000000000E+000	0.00412956	0.00412956	0.0000000E+000	0.000000000000000E+000	3.34923e-05
1	1	0	0	0	0	3	1352.6	0.056	0.605697	0.0545334	0.00519368	0.0155291	0	0.00431363	11	2.11158e-06	0.000000000000000E+000	44246.1	0.000000000000000E+000	0.000000000000000E+000	0.00431363	0.00431363	0.0000000E+000	0.000000000000000E+000	3.30307e-05
1	1	0	0	0	0	3	1364.6	0.056	0.60752	0.0556787	0.00585618	0.0161916	0	0.00449766	11	2.22324e-06	0.000000000000000E+000	45895.4	0.000000000000000E+000	0.000000000000000E+000	0.00449766	0.00449766	0.0000000E+000	0.000000000000000E+000	3.38259e-05
1	1	0	0	0	0	3	1376.6	0.056	0.60881	0.0556787	0.00651899	0.0168544	0	0.00468177	11	2.33523e-06	0.000000000000000E+000	47600	0.000000000000000E+000	0.000000000000000E+000	0.00468177	0.00468177	0.0000000E+000	0.000000000000000E+000	3.38978e-05
1	1	0	0	0	0	3	1388.6	0.056	0.609734	0.0556787	0.00718143	0.0175168	0	0.00486578	11	2.44735e-06	0.000000000000000E+000	49342.1	0.000000000000000E+000	0.000000000000000E+000	0.00486578	0.00486578	0.0000000E+000	0.000000000000000E+000	3.39492e-05
1	1	0	0	0	0	3	1400.6	0.056	0.610415	0.0552333	0.00784378	0.0181792	0	0.00504977	11	2.5596e-06	0.000000000000000E+000	51109.8	0.000000000000000E+000	0.000000000000000E+000	0.00504977	0.00504977	0.0000000E+000	0.000000000000000E+000	3.37153e-05
1	1	0	0	0	0	3	1412.6	0.056	0.610953	0.0549152	0.00850592	0.0188413	0	0.0052337	11	2.67192e-06	0.000000000000000E+000	52891.4	0.000000000000000E+000	0.000000000000000E+000	0.0052337	0.0052337	0.0000000E+000	0.000000000000000E+000	3.35506e-05
1	1	0	0	0	0	3	1424.6	0.056	0.611326	0.055297	0.00916805	0.0195034	0	0.00541762	11	2.78433e-06	0.000000000000000E+000	54692.9	0.000000000000000E+000	0.000000000000000E+000	0.00541762	0.00541762	0.0000000E+000	0.000000000000000E+000	3.38044e-05
1	1	0	0	0	0	3	1436.6	0.056	0.611656	0.0551697	0.00983033	0.0201657	0	0.00560159	11	2.89683e-06	0.000000000000000E+000	56497.8	0.000000000000000E+000	0.000000000000000E+000	0.00560159	0.00560159	0.0000000E+000	0.000000000000000E+000	3.37449e-05
1	1	0	1	0	0	4	1447.6	0.1	0.637566	0.0988821	0.000889266	0.0211654	0	0.00587929	11	3.07284e-06	0.000000000000000E+000	55285.4	0.000000000000000E+000	0.000000000000000E+000	0.00587929	0.00587929	0.0000000E+000	0.000000000000000E+000	6.30439e-05
1	1	0	1	0	0	4	1459.6	0.1	0.638218	0.0991366	0.00207522	0.0223514	0	0.00620872	11	3.28299e-06	0.000000000000000E+000	58283.9	0.000000000000000E+000	0.000000000000000E+000	0.00620872	0.00620872	0.0000000E+000	0.000000000000000E+000	6.32708e-05
1	1	0	1	0	0	4	1471.6	0.1	0.638583	0.0991366	0.00326111	0.0235373	0	0.00653813	11	3.4933e-06	0.000000000000000E+000	61317.9	0.000000000000000E+000	0.000000000000000E+000	0.00653813	0.00653813	0.0000000E+000	0.000000000000000E+000	6.3307e-05
1	1	0	1	0	0	4	1483.6	0.1	0.638695	0.0993275	0.00444697	0.0247231	0	0.00686754	11	3.70368e-06	0.000000000000000E+000	64388.5	0.000000000000000E+000	0.000000000000000E+000	0.00686754	0.00686754	0.0000000E+000	0.000000000000000E+000	6.344e-05
1	1	0	1	0	0	4	1495.6	0.1	0.638716	0.0989457	0.00563294	0.0259091	0	0.00719697	11	3.9141e-06	0.000000000000000E+000	67473.5	0.000000000000000E+000	0.000000000000000E+000	0.00719697	0.00719697	0.0000000E+000	0.000000000000000E+000	6.31982e-05
1	1	0	1	0	0	4	1507.6	0.1	0.638709	0.0991366	0.00681896	0.0270951	0	0.00752643	11	4.12452e-06	0.000000000000000E+000	70563.5	0.000000000000000E+000	0.000000000000000E+000	0.00752643	0.00752643	0.0000000E+000	0.000000000000000E+000	6.33194e-05
1	1	0	1	0	0	4	1519.6	0.1	0.638704	0.0986912	0.00800488	0.028281	0	0.00785585	11	4.33492e-06	0.000000000000000E+000	73652.9	0.000000000000000E+000	0.000000000000000E+000	0.00785585	0.00785585	0.0000000E+000	0.000000000000000E+000	6.30345e-05
1	1	0	1	0	0	4	1531.6	0.1	0.638657	0.099073	0.00919092	0.0294671	0	0.0081853	11	4.54534e-06	0.000000000000000E+000	76751.2	0.000000000000000E+000	0.000000000000000E+000	0.0081853	0.0081853	0.0000000E+000	0.000000000000000E+000	6.32736e-05
1	1	0	1	0	0	4	1543.6	0.1	0.63868	0.0996456	0.0103777	0.0306539	0	0.00851497	11	4.75588e-06	0.000000000000000E+000	79837.5	0.000000000000000E+000	0.000000000000000E+000	0.00851497	0.00851497	0.0000000E+000	0.000000000000000E+000	6.36417e-05
1	1	0	1	0	0	4	1555.6	0.1	0.638661	0.0988821	0.0115641	0.0318403	0	0.00884453	11	4.96636e-06	0.000000000000000E+000	82931.6	0.000000000000000E+000	0.000000000000000E+000	0.00884453	0.00884453	0.0000000E+000	0.000000000000000E+000	6.31521e-05
1	1	0	1	0	0	4	1567.6	0.1	0.638691	0.0975459	0.0127508	0.0330269	0	0.00917415	11	5.17688e-06	0.000000000000000E+000	86015.5	0.000000000000000E+000	0.000000000000000E+000	0.00917415	0.00917415	0.0000000E+000	0.000000000000000E+000	6.23017e-05
1	1	0	1	0	0	4	1579.6	0.1	0.638602	0.0990093	0.0139368	0.0342129	0	0.0095036	11	5.38727e-06	0.000000000000000E+000	89125.1	0.000000000000000E+000	0.000000000000000E+000	0.0095036	0.0095036	0.0000000E+000	0.000000000000000E+000	6.32276e-05
1	1	0	1	0	0	4	1591.6	0.1	0.638534	0.0986912	0.0151225	0.0353987	0	0.00983297	11	5.5976e-06	0.000000000000000E+000	92230.3	0.000000000000000E+000	0.000000000000000E+000	0.00983297	0.00983297	0.0000000E+000	0.000000000000000E+000	6.30177e-05
1	1	0	1	0	0	4	1603.6	0.1	0.638455	0.0982458	0.0163089	0.036585	0	0.0101625	11	5.80802e-06	0.000000000000000E+000	95341	0.000000000000000E+000	0.000000000000000E+000	0.0101625	0.0101625	0.0000000E+000	0.000000000000000E+000	6.27255e-05
1	1	0	1	0	0	4	1615.6	0.1	0.638404	0.0990093	0.0174951	0.0377713	0	0.010492	11	6.01839e-06	0.000000000000000E+000	98445.3	0.000000000000000E+000	0.000000000000000E+000	0.010492	0.010492	0.0000000E+000	0.000000000000000E+000	6.3208e-05
1	1	0	0	0	0	5	1626.6	0.178	0.662252	0.177144	0.0014185	0.0394863	0	0.0109684	11	6.33174e-06	0.000000000000000E+000	96892.6	0.000000000000000E+000	0.000000000000000E+000	0.0109684	0.0109684	0.0000000E+000	0.000000000000000E+000	0.000117314
1	1	0	0	0	0	5	1638.6	0.178	0.662555	0.177908	0.00354605	0.0416138	0	0.0115594	11	6.72324e-06	0.000000000000000E+000	102038	0.000000000000000E+000	0.000000000000000E+000	0.0115594	0.0115594	0.0000000E+000	0.000000000000000E+000	0.000117874
1	1	0	0	0	0	5	1650.6	0.178	0.662711	0.177208	0.00567372	0.0437415	0	0.0121504	11	7.11488e-06	0.000000000000000E+000	107214	0.000000000000000E+000	0.000000000000000E+000	0.0121504	0.0121504	0.0000000E+000	0.000000000000000E+000	0.000117438
1	1	0	0	0	0	5	1662.6	0.178	0.662787	0.177335	0.00780154	0.0458693	0	0.0127415	11	7.5066e-06	0.000000000000000E+000	112408	0.000000000000000E+000	0.000000000000000E+000	0.0127415	0.0127415	0.0000000E+000	0.000000000000000E+000	0.000117535
1	1	0	0	0	0	5	1674.6	0.178	0.662797	0.176699	0.00992902	0.0479968	0	0.0133324	11	7.89829e-06	0.000000000000000E+000	117619	0.000000000000000E+000	0.000000000000000E+000	0.0133324	0.0133324	0.0000000E+000	0.000000000000000E+000	0.000117116
1	1	0	0	0	0	5	1686.6	0.178	0.662818	0.177335	0.0120567	0.0501244	0	0.0139235	11	8.29002e-06	0.000000000000000E+000	122827	0.000000000000000E+000	0.000000000000000E+000	0.0139235	0.0139235	0.0000000E+000	0.000000000000000E+000	0.000117541
1	1	0	0	0	0	5	1698.6	0.178	0.662851	0.177208	0.0141843	0.0522521	0	0.0145145	11	8.68177e-06	0.000000000000000E+000	128030	0.000000000000000E+000	0.000000000000000E+000	0.0145145	0.0145145	0.0000000E+000	0.000000000000000E+000	0.000117462
1	1	0	0	0	0	5	1710.6	0.178	0.662868	0.17689	0.0163119	0.0543797	0	0.0151055	11	9.07352e-06	0.000000000000000E+000	133237	0.000000000000000E+000	0.000000000000000E+000	0.0151055	0.0151055	0.0000000E+000	0.000000000000000E+000	0.000117255
1	1	0	0	0	0	5	1722.6	0.178	0.662872	0.177463	0.0184395	0.0565073	0	0.0156965	11	9.46528e-06	0.000000000000000E+000	138449	0.000000000000000E+000	0.000000000000000E+000	0.0156965	0.0156965	0.0000000E+000	0.000000000000000E+000	0.000117635
1	1	0	0	0	0	5	1734.6	0.178	0.662854	0.176953	0.0205675	0.0586352	0	0.0162876	11	9.8571e-06	0.000000000000000E+000	143669	0.000000000000000E+000	0.000000000000000E+000	0.0162876	0.0162876	0.0000000E+000	0.000000000000000E+000	0.000117294
1	1	0	0	0	0	5	1746.6	0.178	0.662858	0.177208	0.0226954	0.0607631	0	0.0168787	11	1.02489e-05	0.000000000000000E+000	148881	0.000000000000000E+000	0.000000000000000E+000	0.0168787	0.0168787	0.0000000E+000	0.000000000000000E+000	0.000117464
1	1	0	0	0	0	5	1758.6	0.178	0.662829	0.177972	0.0248233	0.0628911	0	0.0174697	11	1.06407e-05	0.000000000000000E+000	154106	0.000000000000000E+000	0.000000000000000E+000	0.0174697	0.0174697	0.0000000E+000	0.000000000000000E+000	0.000117965
1	1	0	0	0	0	5	1770.6	0.178	0.662858	0.176508	0.0269513	0.0650191	0	0.0180609	11	1.10325e-05	0.000000000000000E+000	159309	0.000000000000000E+000	0.000000000000000E+000	0.0180609	0.0180609	0.0000000E+000	0.000000000000000E+000	0.000117
1	1	0	0	0	0	5	1782.6	0.178	0.662796	0.177463	0.0290796	0.0671473	0	0.018652	11	1.14244e-05	0.000000000000000E+000	164549	0.000000000000000E+000	0.000000000000000E+000	0.018652	0.018652	0.0000000E+000	0.000000000000000E+000	0.000117621
1	1	0	0	0	0	5	1794.6	0.178	0.662779	0.177399	0.0312084	0.0692761	0	0.0192434	11	1.18163e-05	0.000000000000000E+000	169773	0.000000000000000E+000	0.000000000000000E+000	0.0192434	0.0192434	0.0000000E+000	0.000000000000000E+000	0.000117576
1	1	0	1	0	0	6	1805.6	0.316	0.689619	0.315408	0.00220432	0.07219	0	0.0200528	11	1.2369e-05	0.000000000000000E+000	165995	0.000000000000000E+000	0.000000000000000E+000	0.0200528	0.0200528	0.0000000E+000	0.000000000000000E+000	0.000217511
1	1	0	1	0	0	6	1817.6	0.316	0.690033	0.314962	0.00598308	0.0759687	0	0.0211024	11	1.30931e-05	0.000000000000000E+000	174518	0.000000000000000E+000	0.000000000000000E+000	0.0211024	0.0211024	0.0000000E+000	0.000000000000000E+000	0.000217335
1	1	0	1	0	0	6	1829.6	0.316	0.690334	0.314899	0.00976204	0.0797477	0	0.0221521	11	1.38176e-05	0.000000000000000E+000	183072	0.000000000000000E+000	0.000000000000000E+000	0.0221521	0.0221521	0.0000000E+000	0.000000000000000E+000	0.000217385
1	1	0	1	0	0	6	1841.6	0.316	0.690532	0.316108	0.013541	0.0835267	0	0.0232018	11	1.45424e-05	0.000000000000000E+000	191660	0.000000000000000E+000	0.000000000000000E+000	0.0232018	0.0232018	0.0000000E+000	0.000000000000000E+000	0.000218283
1	1	0	1	0	0	6	1853.6	0.316	0.690791	0.314835	0.0173197	0.0873054	0	0.0242515	11	1.52674e-05	0.000000000000000E+000	200212	0.000000000000000E+000	0.000000000000000E+000	0.0242515	0.0242515	0.0000000E+000	0.000000000000000E+000	0.000217485
1	1	0	1	0	0	6	1865.6	0.316	0.690872	0.314263	0.0210985	0.0910841	0	0.0253011	11	1.59925e-05	0.000000000000000E+000	208839	0.000000000000000E+000	0.000000000000000E+000	0.0253011	0.0253011	0.0000000E+000	0.000000000000000E+000	0.000217115
1	1	0	1	0	0	6	1877.6	0.316	0.690989	0.314771	0.0248773	0.094863	0	0.0263508	11	1.67177e-05	0.000000000000000E+000	217445	0.000000000000000E+000	0.000000000000000E+000	0.0263508	0.0263508	0.0000000E+000	0.000000000000000E+000	0.000217504
1	1	0	1	0	0	6	1889.6	0.316	0.691041	0.314899	0.028656	0.0986416	0	0.0274005	11	1.7443e-05	0.000000000000000E+000	226079	0.000000000000000E+000	0.000000000000000E+000	0.0274005	0.0274005	0.0000000E+000	0.000000000000000E+000	0.000217608
1	1	0	1	0	0	6	1901.6	0.316	0.691116	0.314835	0.0324346	0.10242	0	0.0284501	11	1.81684e-05	0.000000000000000E+000	234699	0.000000000000000E+000	0.000000000000000E+000	0.0284501	0.0284501	0.0000000E+000	0.000000000000000E+000	0.000217588
1	1	0	1	0	0	6	1913.6	0.316	0.691181	0.31509	0.0362132	0.106199	0	0.0294997	11	1.88939e-05	0.000000000000000E+000	243322	0.000000000000000E+000	0.000000000000000E+000	0.0294997	0.0294997	0.0000000E+000	0.000000000000000E+000	0.000217784
1	1	0	1	0	0	6	1925.6	0.316	0.691241	0.314835	0.0399922	0.109978	0	0.0305494	11	1.96195e-05	0.000000000000000E+000	251945	0.000000000000000E+000	0.000000000000000E+000	0.0305494	0.0305494	0.0000000E+000	0.000000000000000E+000	0.000217627
1	1	0	1	0	0	6	1937.6	0.316	0.691265	0.314581	0.0437714	0.113757	0	0.0315992	11	2.03451e-05	0.000000000000000E+000	260589	0.000000000000000E+000	0.000000000000000E+000	0.0315992	0.0315992	0.0000000E+000	0.000000000000000E+000	0.000217458
1	1	0	1	0	0	6	1949.6	0.316	0.691281	0.315535	0.0475504	0.117536	0	0.0326489	11	2.10707e-05	0.000000000000000E+000	269236	0.000000000000000E+000	0.000000000000000E+000	0.0326489	0.0326489	0.0000000E+000	0.000000000000000E+000	0.000218123
1	1	0	1	0	0	6	1961.6	0.316	0.691321	0.315599	0.0513294	0.121315	0	0.0336986	11	2.17964e-05	0.000000000000000E+000	277867	0.000000000000000E+000	0.000000000000000E+000	0.0336986	0.0336986	0.0000000E+000	0.000000000000000E+000	0.00021818
1	1	0	1	0	0	6	1973.6	0.316	0.691379	0.315281	0.0551081	0.125094	0	0.0347483	11	2.25221e-05	0.000000000000000E+000	286483	0.000000000000000E+000	0.000000000000000E+000	0.0347483	0.0347483	0.0000000E+000	0.000000000000000E+000	0.000217978
1	1	0	0	0	0	7	1984.6	0.562	0.725923	0.560566	0.00336576	0.130034	0	0.0361206	11	2.35028e-05	0.000000000000000E+000	275966	0.000000000000000E+000	0.000000000000000E+000	0.0361206	0.0361206	0.0000000E+000	0.000000000000000E+000	0.000406928
1	1	0	0	0	0	7	1996.6	0.562	0.726515	0.561139	0.0100971	0.136765	0	0.0379904	11	2.48608e-05	0.000000000000000E+000	289887	0.000000000000000E+000	0.000000000000000E+000	0.0379904	0.0379904	0.0000000E+000	0.000000000000000E+000	0.000407676
1	1	0	0	0	0	7	2008.6	0.562	0.726935	0.561902	0.0168284	0.143497	0	0.0398602	11	2.62197e-05	0.000000000000000E+000	303884	0.000000000000000E+000	0.000000000000000E+000	0.0398602	0.0398602	0.0000000E+000	0.000000000000000E+000	0.000408466
1	1	0	0	0	0	7	2020.6	0.562	0.727214	0.561266	0.0235597	0.150228	0	0.04173	11	2.75792e-05	0.000000000000000E+000	317951	0.000000000000000E+000	0.000000000000000E+000	0.04173	0.04173	0.0000000E+000	0.000000000000000E+000	0.000408161
1	1	0	0	0	0	7	2032.6	0.562	0.727447	0.561457	0.0302912	0.15696	0	0.0435999	11	2.89392e-05	0.000000000000000E+000	332034	0.000000000000000E+000	0.000000000000000E+000	0.0435999	0.0435999	0.0000000E+000	0.000000000000000E+000	0.00040843
1	1	0	0	0	0	7	2044.6	0.562	0.727619	0.561648	0.0370226	0.163691	0	0.0454697	11	3.02996e-05	0.000000000000000E+000	346149	0.000000000000000E+000	0.000000000000000E+000	0.0454697	0.0454697	0.0000000E+000	0.000000000000000E+000	0.000408665
1	1	0	0	0	0	7	2056.6	0.562	0.727812	0.561139	0.043754	0.170422	0	0.0473395	11	3.16604e-05	0.000000000000000E+000	360236	0.000000000000000E+000	0.000000000000000E+000	0.0473395	0.0473395	0.0000000E+000	0.000000000000000E+000	0.000408403
1	1	0	0	0	0	7	2068.6	0.562	0.728051	0.560057	0.0504854	0.177154	0	0.0492094	11	3.30215e-05	0.000000000000000E+000	374275	0.000000000000000E+000	0.000000000000000E+000	0.0492094	0.0492094	0.0000000E+000	0.000000000000000E+000	0.00040775
1	1	0	0	0	0	7	2080.6	0.562	0.728204	0.560821	0.0572167	0.183885	0	0.0510792	11	3.43829e-05	0.000000000000000E+000	388371	0.000000000000000E+000	0.000000000000000E+000	0.0510792	0.0510792	0.0000000E+000	0.000000000000000E+000	0.000408392
1	1	0	0	0	0	7	2092.6	0.562	0.728316	0.560184	0.0639482	0.190616	0	0.052949	11	3.57447e-05	0.000000000000000E+000	402493	0.000000000000000E+000	0.000000000000000E+000	0.052949	0.052949	0.0000000E+000	0.000000000000000E+000	0.000407991
1	1	0	0	0	0	7	2104.6	0.562	0.728415	0.560248	0.0706798	0.197348	0	0.0548189	11	3.71067e-05	0.000000000000000E+000	416620	0.000000000000000E+000	0.000000000000000E+000	0.0548189	0.0548189	0.0000000E+000	0.000000000000000E+000	0.000408093
1	1	0	0	0	0	7	2116.6	0.562	0.728464	0.561011	0.077411	0.204079	0	0.0566887	11	3.84689e-05	0.000000000000000E+000	430785	0.000000000000000E+000	0.000000000000000E+000	0.0566887	0.0566887	0.0000000E+000	0.000000000000000E+000	0.000408677
1	1	0	0	0	0	7	2128.6	0.562	0.728589	0.560821	0.0841421	0.21081	0	0.0585584	11	3.9831e-05	0.000000000000000E+000	444877	0.000000000000000E+000	0.000000000000000E+000	0.0585584	0.0585584	0.0000000E+000	0.000000000000000E+000	0.000408608
1	1	0	0	0	0	7	2140.6	0.562	0.7287	0.560248	0.090873	0.217541	0	0.0604281	11	4.11933e-05	0.000000000000000E+000	458974	0.000000000000000E+000	0.000000000000000E+000	0.0604281	0.0604281	0.0000000E+000	0.000000000000000E+000	0.000408253
1	1	0	0	0	0	7	2152.6	0.562	0.728788	0.561266	0.097604	0.224272	0	0.0622978	11	4.25559e-05	0.000000000000000E+000	473086	0.000000000000000E+000	0.000000000000000E+000	0.0622978	0.0622978	0.0000000E+000	0.000000000000000E+000	0.000409044
1	1	0	1	0	0	8	2163.6	1	0.775815	0.999153	0.00499614	0.232634	0	0.0646206	11	4.43127e-05	0.000000000000000E+000	446438	0.000000000000000E+000	0.000000000000000E+000	0.0646206	0.0646206	0.0000000E+000	0.000000000000000E+000	0.000775158
1	1	0	1	0	0	8	2175.6	1	0.776813	1.00017	0.0169873	0.244625	0	0.0679514	11	4.68988e-05	0.000000000000000E+000	468553	0.000000000000000E+000	0.000000000000000E+000	0.0679514	0.0679514	0.0000000E+000	0.000000000000000E+000	0.000776946
1	1	0	1	0	0	8	2187.6	1	0.777586	0.999726	0.0289782	0.256616	0	0.0712823	11	4.94877e-05	0.000000000000000E+000	490794	0.000000000000000E+000	0.000000000000000E+000	0.0712823	0.0712823	0.0000000E+000	0.000000000000000E+000	0.000777373
1	1	0	1	0	0	8	2199.6	1	0.778027	0.999217	0.0409693	0.268607	0	0.0746131	11	5.20785e-05	0.000000000000000E+000	513294	0.000000000000000E+000	0.000000000000000E+000	0.0746131	0.0746131	0.0000000E+000	0.000000000000000E+000	0.000777418
1	1	0	1	0	0	8	2211.6	1	0.778502	0.999726	0.05296	0.280598	0	0.0779439	11	5.46709e-05	0.000000000000000E+000	535722	0.000000000000000E+000	0.000000000000000E+000	0.0779439	0.0779439	0.0000000E+000	0.000000000000000E+000	0.000778289
1	1	0	1	0	0	8	2223.6	1	0.778919	0.999535	0.064951	0.292589	0	0.0812747	11	5.72646e-05	0.000000000000000E+000	558171	0.000000000000000E+000	0.000000000000000E+000	0.0812747	0.0812747	0.0000000E+000	0.000000000000000E+000	0.000778557
1	1	0	1	0	0	8	2235.6	1	0.779291	0.99928	0.076942	0.30458	0	0.0846055	11	5.98597e-05	0.000000000000000E+000	580634	0.000000000000000E+000	0.000000000000000E+000	0.0846055	0.0846055	0.0000000E+000	0.000000000000000E+000	0.00077873
1	1	0	1	0	0	8	2247.6	1	0.779565	0.999726	0.088933	0.316571	0	0.0879364	11	6.24557e-05	0.000000000000000E+000	603178	0.000000000000000E+000	0.000000000000000E+000	0.0879364	0.0879364	0.0000000E+000	0.000000000000000E+000	0.000779351
1	1	0	1	0	0	8	2259.6	1	0.779798	0.999535	0.100924	0.328562	0	0.0912671	11	6.50524e-05	0.000000000000000E+000	625747	0.000000000000000E+000	0.000000000000000E+000	0.0912671	0.0912671	0.0000000E+000	0.000000000000000E+000	0.000779435
1	1	0	1	0	0	8	2271.6	1	0.779987	0.999153	0.112915	0.340552	0	0.0945979	11	6.76502e-05	0.000000000000000E+000	648349	0.000000000000000E+000	0.000000000000000E+000	0.0945979	0.0945979	0.0000000E+000	0.000000000000000E+000	0.000779327
1	1	0	1	0	0	8	2283.6	1	0.780398	0.999789	0.124905	0.352543	0	0.0979287	11	7.02489e-05	0.000000000000000E+000	670653	0.000000000000000E+000	0.000000000000000E+000	0.0979287	0.0979287	0.0000000E+000	0.000000000000000E+000	0.000780234
1	1	0	1	0	0	8	2295.6	1	0.780789	0.998708	0.136896	0.364534	0	0.101259	11	7.28489e-05	0.000000000000000E+000	692948	0.000000000000000E+000	0.000000000000000E+000	0.101259	0.101259	0.0000000E+000	0.000000000000000E+000	0.00077978
1	1	0	1	0	0	8	2307.6	1	0.781004	0.99998	0.148887	0.376525	0	0.10459	11	7.54498e-05	0.000000000000000E+000	715450	0.000000000000000E+000	0.000000000000000E+000	0.10459	0.10459	0.0000000E+000	0.000000000000000E+000	0.000780989
1	1	0	1	0	0	8	2319.6	1	0.781283	0.999408	0.160878	0.388516	0	0.107921	11	7.80517e-05	0.000000000000000E+000	737844	0.000000000000000E+000	0.000000000000000E+000	0.107921	0.107921	0.0000000E+000	0.000000000000000E+000	0.00078082
1	1	0	1	0	0	8	2331.6	1	0.781488	0.999917	0.17287	0.400508	0	0.111252	11	8.06543e-05	0.000000000000000E+000	760320	0.000000000000000E+000	0.000000000000000E+000	0.111252	0.111252	0.0000000E+000	0.000000000000000E+000	0.000781423
1	1	0	0	0	0	9	2342.6	1.778	0.842173	1.77732	0.00710698	0.41461	0	0.115169	11	8.3833e-05	0.000000000000000E+000	705783	0.000000000000000E+000	0.000000000000000E+000	0.115169	0.115169	0.0000000E+000	0.000000000000000E+000	0.00149681
1	1	0	0	0	0	9	2354.6	1.778	0.844702	1.7758	0.0284286	0.435932	0	0.121092	11	8.88298e-05	0.000000000000000E+000	738898	0.000000000000000E+000	0.000000000000000E+000	0.121092	0.121092	0.0000000E+000	0.000000000000000E+000	0.00150002
1	1	0	0	0	0	9	2366.6	1.778	0.845839	1.77726	0.0497502	0.457253	0	0.127015	11	9.38368e-05	0.000000000000000E+000	773547	0.000000000000000E+000	0.000000000000000E+000	0.127015	0.127015	0.0000000E+000	0.000000000000000E+000	0.00150327
1	1	0	0	0	0	9	2378.6	1.778	0.847245	1.77745	0.0710716	0.478575	0	0.132937	11	9.88512e-05	0.000000000000000E+000	807695	0.000000000000000E+000	0.000000000000000E+000	0.132937	0.132937	0.0000000E+000	0.000000000000000E+000	0.00150594
1	1	0	0	0	0	9	2390.6	1.778	0.848055	1.77624	0.0923933	0.499896	0	0.13886	11	0.000103872	0.000000000000000E+000	842529	0.000000000000000E+000	0.000000000000000E+000	0.13886	0.13886	0.0000000E+000	0.000000000000000E+000	0.00150635
1	1	0	0	0	0	9	2402.6	1.778	0.848914	1.77675	0.113715	0.521218	0	0.144783	11	0.000108897	0.000000000000000E+000	877194	0.000000000000000E+000	0.000000000000000E+000	0.144783	0.144783	0.0000000E+000	0.000000000000000E+000	0.00150831
1	1	0	0	0	0	9	2414.6	1.778	0.849843	1.77662	0.135036	0.542539	0	0.150705	11	0.000113928	0.000000000000000E+000	911652	0.000000000000000E+000	0.000000000000000E+000	0.150705	0.150705	0.0000000E+000	0.000000000000000E+000	0.00150985
1	1	0	0	0	0	9	2426.6	1.778	0.850691	1.77662	0.156357	0.56386	0	0.156628	11	0.000118964	0.000000000000000E+000	946129	0.000000000000000E+000	0.000000000000000E+000	0.156628	0.156628	0.0000000E+000	0.000000000000000E+000	0.00151136
1	1	0	0	0	0	9	2438.6	1.778	0.851667	1.77656	0.177678	0.585181	0	0.16255	11	0.000124006	0.000000000000000E+000	980300	0.000000000000000E+000	0.000000000000000E+000	0.16255	0.16255	0.0000000E+000	0.000000000000000E+000	0.00151304
1	1	0	0	0	0	9	2450.6	1.778	0.85232	1.77732	0.199	0.606502	0	0.168473	11	0.000129051	0.000000000000000E+000	1.01491e+06	0.000000000000000E+000	0.000000000000000E+000	0.168473	0.168473	0.0000000E+000	0.000000000000000E+000	0.00151485
1	1	0	0	0	0	9	2462.6	1.778	0.852995	1.77675	0.220321	0.627824	0	0.174396	11	0.000134101	0.000000000000000E+000	1.0494e+06	0.000000000000000E+000	0.000000000000000E+000	0.174396	0.174396	0.0000000E+000	0.000000000000000E+000	0.00151556
1	1	0	0	0	0	9	2474.6	1.778	0.853407	1.77694	0.241642	0.649145	0	0.180318	11	0.000139154	0.000000000000000E+000	1.08429e+06	0.000000000000000E+000	0.000000000000000E+000	0.180318	0.180318	0.0000000E+000	0.000000000000000E+000	0.00151645
1	1	0	0	0	0	9	2486.6	1.778	0.853975	1.77707	0.262964	0.670467	0	0.186241	11	0.000144209	0.000000000000000E+000	1.11885e+06	0.000000000000000E+000	0.000000000000000E+000	0.186241	0.186241	0.0000000E+000	0.000000000000000E+000	0.00151757
1	1	0	0	0	0	9	2498.6	1.778	0.854433	1.77777	0.284285	0.691788	0	0.192163	11	0.000149268	0.000000000000000E+000	1.15354e+06	0.000000000000000E+000	0.000000000000000E+000	0.192163	0.192163	0.0000000E+000	0.000000000000000E+000	0.00151898
1	1	0	0	0	0	9	2510.6	1.778	0.854711	1.77688	0.305607	0.71311	0	0.198086	11	0.00015433	0.000000000000000E+000	1.18855e+06	0.000000000000000E+000	0.000000000000000E+000	0.198086	0.198086	0.0000000E+000	0.000000000000000E+000	0.00151872
1	1	0	1	0	0	10	2521.6	3.162	0.929069	3.16148	0.00948226	0.736807	0	0.204669	11	0.000160147	0.000000000000000E+000	1.09263e+06	0.000000000000000E+000	0.000000000000000E+000	0.204669	0.204669	0.0000000E+000	0.000000000000000E+000	0.00293724
1	1	0	1	0	0	10	2533.6	3.162	0.936276	3.16085	0.047413	0.774738	0	0.215205	11	0.000169983	0.000000000000000E+000	1.13673e+06	0.000000000000000E+000	0.000000000000000E+000	0.215205	0.215205	0.0000000E+000	0.000000000000000E+000	0.00295943
1	1	0	1	0	0	10	2545.6	3.162	0.940865	3.16059	0.0853435	0.812668	0	0.225741	11	0.000179875	0.000000000000000E+000	1.18441e+06	0.000000000000000E+000	0.000000000000000E+000	0.225741	0.225741	0.0000000E+000	0.000000000000000E+000	0.00297369
1	1	0	1	0	0	10	2557.6	3.162	0.944426	3.15996	0.123274	0.850599	0	0.236277	11	0.000189809	0.000000000000000E+000	1.23329e+06	0.000000000000000E+000	0.000000000000000E+000	0.236277	0.236277	0.0000000E+000	0.000000000000000E+000	0.00298434
1	1	0	1	0	0	10	2569.6	3.162	0.947066	3.16104	0.161204	0.888529	0	0.246814	11	0.000199773	0.000000000000000E+000	1.28337e+06	0.000000000000000E+000	0.000000000000000E+000	0.246814	0.246814	0.0000000E+000	0.000000000000000E+000	0.00299371
1	1	0	1	0	0	10	2581.6	3.162	0.949551	3.16117	0.199135	0.92646	0	0.25735	11	0.000209765	0.000000000000000E+000	1.33337e+06	0.000000000000000E+000	0.000000000000000E+000	0.25735	0.25735	0.0000000E+000	0.000000000000000E+000	0.00300169
1	1	0	1	0	0	10	2593.6	3.162	0.951862	3.1611	0.237066	0.964391	0	0.267886	11	0.000219781	0.000000000000000E+000	1.38336e+06	0.000000000000000E+000	0.000000000000000E+000	0.267886	0.267886	0.0000000E+000	0.000000000000000E+000	0.00300893
1	1	0	1	0	0	10	2605.6	3.162	0.95406	3.16104	0.274997	1.00232	0	0.278423	11	0.000229824	0.000000000000000E+000	1.43325e+06	0.000000000000000E+000	0.000000000000000E+000	0.278423	0.278423	0.0000000E+000	0.000000000000000E+000	0.00301582
1	1	0	1	0	0	10	2617.6	3.162	0.955577	3.16161	0.312927	1.04025	0	0.288959	11	0.000239885	0.000000000000000E+000	1.48427e+06	0.000000000000000E+000	0.000000000000000E+000	0.288959	0.288959	0.0000000E+000	0.000000000000000E+000	0.00302116
1	1	0	1	0	0	10	2629.6	3.162	0.957276	3.1611	0.350857	1.07818	0	0.299495	11	0.000249961	0.000000000000000E+000	1.53467e+06	0.000000000000000E+000	0.000000000000000E+000	0.299495	0.299495	0.0000000E+000	0.000000000000000E+000	0.00302605
1	1	0	1	0	0	10	2641.6	3.162	0.958442	3.16097	0.388788	1.11611	0	0.310031	11	0.000260056	0.000000000000000E+000	1.58603e+06	0.000000000000000E+000	0.000000000000000E+000	0.310031	0.310031	0.0000000E+000	0.000000000000000E+000	0.00302961
1	1	0	1	0	0	10	2653.6	3.162	0.959804	3.16078	0.426718	1.15404	0	0.320568	11	0.000270164	0.000000000000000E+000	1.63676e+06	0.000000000000000E+000	0.000000000000000E+000	0.320568	0.320568	0.0000000E+000	0.000000000000000E+000	0.00303373
1	1	0	1	0	0	10	2665.6	3.162	0.96117	3.16097	0.464649	1.19197	0	0.331104	11	0.000280287	0.000000000000000E+000	1.68729e+06	0.000000000000000E+000	0.000000000000000E+000	0.331104	0.331104	0.0000000E+000	0.000000000000000E+000	0.00303824
1	1	0	1	0	0	10	2677.6	3.162	0.962505	3.16167	0.50258	1.2299	0	0.34164	11	0.000290421	0.000000000000000E+000	1.7377e+06	0.000000000000000E+000	0.000000000000000E+000	0.34164	0.34164	0.0000000E+000	0.000000000000000E+000	0.00304313
1	1	0	1	0	0	10	2689.6	3.162	0.963759	3.16097	0.54051	1.26783	0	0.352176	11	0.000300571	0.000000000000000E+000	1.78812e+06	0.000000000000000E+000	0.000000000000000E+000	0.352176	0.352176	0.0000000E+000	0.000000000000000E+000	0.00304642
1	1	0	0	0	0	11	2700.6	5.623	1.06553	5.62096	0.011242	1.30753	0	0.363201	11	0.000311507	0.000000000000000E+000	1.61262e+06	0.000000000000000E+000	0.000000000000000E+000	0.363201	0.363201	0.0000000E+000	0.000000000000000E+000	0.00598931
1	1	0	0	0	0	11	2712.6	5.623	1.08318	5.62102	0.0786975	1.37498	0	0.381939	11	0.000331678	0.000000000000000E+000	1.6597e+06	0.000000000000000E+000	0.000000000000000E+000	0.381939	0.381939	0.0000000E+000	0.000000000000000E+000	0.00608857
1	1	0	0	0	0	11	2724.6	5.623	1.09107	5.62108	0.146152	1.44244	0	0.400677	11	0.000352056	0.000000000000000E+000	1.7247e+06	0.000000000000000E+000	0.000000000000000E+000	0.400677	0.400677	0.0000000E+000	0.000000000000000E+000	0.00613298
1	1	0	0	0	0	11	2736.6	5.623	1.09757	5.62185	0.213608	1.50989	0	0.419414	11	0.000372576	0.000000000000000E+000	1.79142e+06	0.000000000000000E+000	0.000000000000000E+000	0.419414	0.419414	0.0000000E+000	0.000000000000000E+000	0.0061704
1	1	0	0	0	0	11	2748.6	5.623	1.10269	5.62147	0.281063	1.57735	0	0.438152	11	0.000393195	0.000000000000000E+000	1.86016e+06	0.000000000000000E+000	0.000000000000000E+000	0.438152	0.438152	0.0000000E+000	0.000000000000000E+000	0.00619873
1	1	0	0	0	0	11	2760.6	5.623	1.10651	5.62166	0.348518	1.6448	0	0.456889	11	0.000413905	0.000000000000000E+000	1.931e+06	0.000000000000000E+000	0.000000000000000E+000	0.456889	0.456889	0.0000000E+000	0.000000000000000E+000	0.00622044
1	1	0	0	0	0	11	2772.6	5.623	1.11006	5.62127	0.415974	1.71226	0	0.475627	11	0.000434679	0.000000000000000E+000	2.00185e+06	0.000000000000000E+000	0.000000000000000E+000	0.475627	0.475627	0.0000000E+000	0.000000000000000E+000	0.00623997
1	1	0	0	0	0	11	2784.6	5.623	1.11297	5.62083	0.483429	1.77971	0	0.494365	11	0.000455509	0.000000000000000E+000	2.07368e+06	0.000000000000000E+000	0.000000000000000E+000	0.494365	0.494365	0.0000000E+000	0.000000000000000E+000	0.00625579
1	1	0	0	0	0	11	2796.6	5.623	1.11578	5.62204	0.550884	1.84717	0	0.513102	11	0.00047639	0.000000000000000E+000	2.14523e+06	0.000000000000000E+000	0.000000000000000E+000	0.513102	0.513102	0.0000000E+000	0.000000000000000E+000	0.00627298
1	1	0	0	0	0	11	2808.6	5.623	1.1177	5.6207	0.618339	1.91462	0	0.53184	11	0.000497317	0.000000000000000E+000	2.21865e+06	0.000000000000000E+000	0.000000000000000E+000	0.53184	0.53184	0.0000000E+000	0.000000000000000E+000	0.00628223
1	1	0	0	0	0	11	2820.6	5.623	1.11975	5.62134	0.685795	1.98208	0	0.550577	11	0.000518273	0.000000000000000E+000	2.29137e+06	0.000000000000000E+000	0.000000000000000E+000	0.550577	0.550577	0.0000000E+000	0.000000000000000E+000	0.00629447
1	1	0	0	0	0	11	2832.6	5.623	1.1217	5.62147	0.75325	2.04953	0	0.569315	11	0.00053927	0.000000000000000E+000	2.36402e+06	0.000000000000000E+000	0.000000000000000E+000	0.569315	0.569315	0.0000000E+000	0.000000000000000E+000	0.00630558
1	1	0	0	0	0	11	2844.6	5.623	1.12252	5.6221	0.820706	2.11699	0	0.588052	11	0.000560293	0.000000000000000E+000	2.4395e+06	0.000000000000000E+000	0.000000000000000E+000	0.588052	0.588052	0.0000000E+000	0.000000000000000E+000	0.00631095
1	1	0	0	0	0	11	2856.6	5.623	1.12454	5.6214	0.888161	2.18444	0	0.60679	11	0.000581351	0.000000000000000E+000	2.51138e+06	0.000000000000000E+000	0.000000000000000E+000	0.60679	0.60679	0.0000000E+000	0.000000000000000E+000	0.00632152
1	1	0	0	0	0	11	2868.6	5.623	1.1264	5.62178	0.955616	2.2519	0	0.625528	11	0.00060244	0.000000000000000E+000	2.58343e+06	0.000000000000000E+000	0.000000000000000E+000	0.625528	0.625528	0.0000000E+000	0.000000000000000E+000	0.00633235
1	1	0	1	1	0	12	2879.6	10	1.24611	9.99875	0.00999827	2.31811	0	0.64392	11	0.000623491	0.000000000000000E+000	2.33825e+06	0.000000000000000E+000	0.000000000000000E+000	0.64392	0.64392	0.0000000E+000	0.000000000000000E+000	0.0124596
1	1	0	1	0	0	12	2891.6	10	1.25638	9.99913	0.129988	2.4381	0	0.67725	11	0.000665284	0.000000000000000E+000	2.43407e+06	0.000000000000000E+000	0.000000000000000E+000	0.67725	0.67725	0.0000000E+000	0.000000000000000E+000	0.0125627
1	1	0	1	0	0	12	2903.6	10	1.26011	9.99913	0.249978	2.55809	0	0.710581	11	0.000707229	0.000000000000000E+000	2.5444e+06	0.000000000000000E+000	0.000000000000000E+000	0.710581	0.710581	0.0000000E+000	0.000000000000000E+000	0.0126
1	1	0	1	0	0	12	2915.6	10	1.26304	9.99856	0.369968	2.67808	0	0.743911	11	0.000749278	0.000000000000000E+000	2.656e+06	0.000000000000000E+000	0.000000000000000E+000	0.743911	0.743911	0.0000000E+000	0.000000000000000E+000	0.0126286
1	1	0	1	0	0	12	2927.6	10	1.26415	9.99957	0.489958	2.79807	0	0.777242	11	0.000791376	0.000000000000000E+000	2.77194e+06	0.000000000000000E+000	0.000000000000000E+000	0.777242	0.777242	0.0000000E+000	0.000000000000000E+000	0.012641
1	1	0	1	0	0	12	2939.6	10	1.26508	9.99932	0.609947	2.91806	0	0.810572	11	0.000833518	0.000000000000000E+000	2.88815e+06	0.000000000000000E+000	0.000000000000000E+000	0.810572	0.810572	0.0000000E+000	0.000000000000000E+000	0.01265
1	1	0	1	0	0	12	2951.6	10	1.26494	9.99945	0.729937	3.03805	0	0.843903	11	0.000875682	0.000000000000000E+000	3.00734e+06	0.000000000000000E+000	0.000000000000000E+000	0.843903	0.843903	0.0000000E+000	0.000000000000000E+000	0.0126487
1	1	0	1	0	0	12	2963.6	10	1.26475	9.9997	0.849927	3.15804	0	0.877233	11	0.000917845	0.000000000000000E+000	3.1267e+06	0.000000000000000E+000	0.000000000000000E+000	0.877233	0.877233	0.0000000E+000	0.000000000000000E+000	0.0126471
1	1	0	1	0	0	12	2975.6	10	1.26494	9.99989	0.969917	3.27803	0	0.910564	11	0.000960002	0.000000000000000E+000	3.24488e+06	0.000000000000000E+000	0.000000000000000E+000	0.910564	0.910564	0.0000000E+000	0.000000000000000E+000	0.0126493
1	1	0	1	0	0	12	2987.6	10	1.26464	9.99849	1.08991	3.39802	0	0.943894	11	0.00100217	0.000000000000000E+000	3.36467e+06	0.000000000000000E+000	0.000000000000000E+000	0.943894	0.943894	0.0000000E+000	0.000000000000000E+000	0.0126445
1	1	0	1	0	0	12	2999.6	10	1.2647	9.99919	1.2099	3.51801	0	0.977225	11	0.00104434	0.000000000000000E+000	3.48325e+06	0.000000000000000E+000	0.000000000000000E+000	0.977225	0.977225	0.0000000E+000	0.000000000000000E+000	0.012646
1	1	0	1	0	0	12	3011.6	10	1.26483	9.99875	1.32989	3.638	0	1.01056	11	0.00108649	0.000000000000000E+000	3.60161e+06	0.000000000000000E+000	0.000000000000000E+000	1.01056	1.01056	0.0000000E+000	0.000000000000000E+000	0.0126467
1	1	0	1	0	0	12	3023.6	10	1.26474	9.9997	1.44988	3.75799	0	1.04389	11	0.00112864	0.000000000000000E+000	3.72073e+06	0.000000000000000E+000	0.000000000000000E+000	1.04389	1.04389	0.0000000E+000	0.000000000000000E+000	0.012647
1	1	0	1	0	0	12	3035.6	10	1.26475	9.99919	1.56987	3.87798	0	1.07722	11	0.00117079	0.000000000000000E+000	3.83948e+06	0.000000000000000E+000	0.000000000000000E+000	1.07722	1.07722	0.0000000E+000	0.000000000000000E+000	0.0126465
1	1	0	1	0	0	12	3047.6	10	1.26387	9.99926	1.68986	3.99797	0	1.11055	11	0.00121292	0.000000000000000E+000	3.96174e+06	0.000000000000000E+000	0.000000000000000E+000	1.11055	1.11055	0.0000000E+000	0.000000000000000E+000	0.0126378
1	1	0	1	0	0	12	3058.6	10	1.26352	9.99881	1.79985	4.10796	0	1.1411	11	0.00125154	0.000000000000000E+000	4.07217e+06	0.000000000000000E+000	0.000000000000000E+000	1.1411	1.1411	0.0000000E+000	0.000000000000000E+000	0.0126337