File: Data/2022_01_04 NiNx Ti electrode1_02_CV_C05.mpt
EC-Lab ASCII FILE
Nb header lines : 61

Cyclic Voltammetry

Run on channel : 5 (SN 30436)
User :
CE vs. WE compliance from -10 V to 10 V
Electrode connection : standard
Potential control : Ewe
Ewe ctrl range : min = -2.50 V, max = 2.50 V
Safety Limits :
	Do not start on E overload
Acquisition started on : 01/04/2023 12:17:22.870
Technique started on : 01/04/2023 12:18:44.191
Loaded Setting File :  NONE
Saved on :
	File : 2022_01_04 NiNx Ti electrode1_02_CV_C05.mpr
	Directory : C:\Users\grupogalan\Documents\EC-Lab\Data\Scott\
	Host : 169.254.104.159
Device : VSP (SN 1176)
Address : USB
EC-Lab for windows v11.46 (software)
Internet server v11.40 (firmware)
Command interpretor v11.40 (firmware)
Electrode material :
Initial state :
Electrolyte :
Comments :
Electrode surface area : 0.000 cm²
Characteristic mass : 0.001 g
Equivalent Weight : 0.000 g/eq.
Density : 0.000 g/cm3
Volume (V) : 0.001 cm³
Cycle Definition : Charge/Discharge alternance
Ei (V)              0.000
vs.                 Eoc
dE/dt               10.000
dE/dt unit          mV/s
E1 (V)              1.000
vs.                 Ref
Step percent        50
N                   10
E range min (V)     -2.500
E range max (V)     2.500
I Range             Auto
I Range min         Unset
I Range max         Unset
I Range init        Unset
Bandwidth           5
E2 (V)              0.000
vs.                 Ref
nc cycles           2
Reverse Scan        1
Ef (V)              0.000
vs.                 Eoc

Modify on : 01/04/2023 12:19
vs.                 Ref

mode	ox/red	error	control changes	counter inc.	time/s	control/V	Ewe/V	<I>/mA	cycle number	(Q-Qo)/C	I Range	P/W
2	0	0	1	0	81.3206	-0.188491	-0.189048	-0.0400743	1	0.0000000E+000	13	7.57595e-06
2	1	0	0	0	82.2358	-0.17934	-0.179448	0.000595657	1	7.30796e-07	13	-1.0689e-07
2	1	0	1	0	83.136	-0.170339	-0.170433	0.000608301	1	1.44168e-06	13	-1.03674e-07
2	1	0	1	0	84.036	-0.161338	-0.161386	0.000660705	1	2.19465e-06	13	-1.06629e-07
2	1	0	0	0	84.9362	-0.152336	-0.152347	0.000702896	1	2.98965e-06	13	-1.07084e-07
2	1	0	1	0	85.8364	-0.143335	-0.143373	0.000725416	1	3.82718e-06	13	-1.04005e-07
2	1	0	1	0	86.7364	-0.134334	-0.134446	0.000823107	1	4.71355e-06	13	-1.10664e-07
2	1	0	0	0	87.6366	-0.125333	-0.12542	0.000887783	1	5.65479e-06	13	-1.11346e-07
2	1	0	1	0	88.5368	-0.116331	-0.116445	0.000949088	1	6.65458e-06	13	-1.10516e-07
2	1	0	1	0	89.4368	-0.10733	-0.107439	0.00102477	1	7.72405e-06	13	-1.101e-07
2	1	0	0	0	90.337	-0.0983288	-0.098443	0.00112889	1	8.88089e-06	13	-1.11131e-07
2	1	0	0	0	91.237	-0.0893276	-0.0894241	0.00124679	1	1.01405e-05	13	-1.11493e-07
2	1	0	1	0	92.1372	-0.0803263	-0.0805081	0.00131853	1	1.14979e-05	13	-1.06152e-07
2	1	0	0	0	93.0374	-0.071325	-0.0714128	0.00140034	1	1.29307e-05	13	-1.00002e-07
2	1	0	0	0	93.9374	-0.0623238	-0.0623515	0.00146153	1	1.44159e-05	13	-9.11287e-08
2	1	0	1	0	94.8376	-0.0533225	-0.0535682	0.00150258	1	1.59442e-05	13	-8.04905e-08
2	1	0	0	0	95.7378	-0.0443212	-0.044352	0.00152442	1	1.75104e-05	13	-6.76111e-08
2	1	0	0	0	96.6378	-0.03532	-0.0354201	0.00155484	1	1.91173e-05	13	-5.50725e-08
2	1	0	1	0	97.538	-0.0263187	-0.0265402	0.00160589	1	2.07722e-05	13	-4.26207e-08
2	1	0	1	0	98.4381	-0.0173168	-0.0174546	0.00170749	1	2.24778e-05	13	-2.98035e-08
2	1	0	0	0	99.3382	-0.00831619	-0.0084526	0.00172779	1	2.42379e-05	13	-1.46043e-08
2	1	0	1	0	100.238	0.000685073	0.000666044	0.00179067	1	2.60588e-05	13	1.19266e-09
2	1	0	1	0	101.138	0.00968633	0.00965415	0.00188023	1	2.79329e-05	13	1.8152e-08
2	1	0	0	0	102.039	0.0186876	0.0185934	0.00193318	1	2.98652e-05	13	3.59444e-08
2	1	0	1	0	102.939	0.0276888	0.0275699	0.00200099	1	3.18641e-05	13	5.51669e-08
2	1	0	1	0	103.839	0.0366901	0.036594	0.00209846	1	3.3928e-05	13	7.67912e-08
2	1	0	0	0	104.739	0.0456914	0.0456044	0.00215038	1	3.60632e-05	13	9.80667e-08
2	1	0	1	0	105.639	0.0546917	0.0545874	0.00217824	1	3.82778e-05	13	1.18904e-07
2	1	0	1	0	106.539	0.0636939	0.0636029	0.00229461	1	4.05677e-05	13	1.45944e-07
2	1	0	0	0	107.439	0.0726951	0.0726398	0.00239165	1	4.29348e-05	13	1.73729e-07
2	1	0	0	0	108.339	0.0816964	0.081699	0.00250202	1	4.53908e-05	13	2.04412e-07
2	1	0	1	0	109.24	0.0906977	0.0907116	0.00260627	1	4.79326e-05	13	2.36418e-07
2	1	0	0	0	110.14	0.0996989	0.0996402	0.00269899	1	5.05638e-05	13	2.68927e-07
2	1	0	0	0	111.04	0.1087	0.108602	0.00280623	1	5.32828e-05	13	3.04762e-07
2	1	0	1	0	111.94	0.117701	0.117597	0.00285401	1	5.60918e-05	13	3.35624e-07
2	1	0	0	0	112.84	0.126703	0.126616	0.00301303	1	5.9003e-05	13	3.81498e-07
2	1	0	0	0	113.74	0.135704	0.13564	0.0030739	1	6.20185e-05	13	4.16945e-07
2	1	0	1	0	114.64	0.144705	0.144609	0.00322279	1	6.51451e-05	13	4.66046e-07
2	1	0	1	0	115.541	0.153707	0.153587	0.00335599	1	6.83882e-05	13	5.15437e-07
2	1	0	0	0	116.441	0.162708	0.162568	0.00346926	1	7.17547e-05	13	5.63989e-07
2	1	0	1	0	117.341	0.171709	0.171595	0.0035852	1	7.52481e-05	13	6.15203e-07
2	1	0	1	0	118.241	0.18071	0.180634	0.00377166	1	7.88786e-05	13	6.8129e-07
2	1	0	0	0	119.141	0.189712	0.189651	0.00389901	1	8.26529e-05	13	7.3945e-07
2	1	0	1	0	120.041	0.198713	0.198586	0.00410043	1	8.65811e-05	13	8.14287e-07
2	1	0	1	0	120.941	0.207714	0.207576	0.00430224	1	9.06785e-05	13	8.93042e-07
2	1	0	0	0	121.841	0.216715	0.216636	0.00446829	1	9.49515e-05	13	9.67993e-07
2	1	0	1	0	122.742	0.225716	0.225558	0.00463424	1	9.94134e-05	13	1.04529e-06
2	1	0	1	0	123.642	0.234718	0.234595	0.00487574	1	0.000104084	13	1.14383e-06
2	1	0	0	0	124.542	0.243719	0.243647	0.00511118	1	0.000108965	13	1.24533e-06
2	1	0	0	0	125.442	0.25272	0.252683	0.00538146	1	0.000114074	13	1.3598e-06
2	1	0	1	0	126.342	0.261722	0.261563	0.00564024	1	0.000119433	13	1.47528e-06
2	1	0	0	0	127.242	0.270723	0.27056	0.00590436	1	0.000125052	13	1.59748e-06
2	1	0	0	0	128.142	0.279724	0.279616	0.00622735	1	0.000130944	13	1.74126e-06
2	1	0	1	0	129.042	0.288725	0.288652	0.0065399	1	0.000137123	13	1.88776e-06
2	1	0	0	0	129.943	0.297727	0.297667	0.00690154	1	0.000143602	13	2.05436e-06
2	1	0	0	0	130.843	0.306728	0.306527	0.00720879	1	0.000150388	13	2.20969e-06
2	1	0	1	0	131.743	0.315729	0.315585	0.00757182	1	0.000157499	13	2.38955e-06
2	1	0	1	0	132.643	0.324731	0.324585	0.00789755	1	0.000164945	13	2.56343e-06
2	1	0	0	0	133.543	0.333732	0.333611	0.00832484	1	0.000172748	13	2.77726e-06
2	1	0	1	0	134.443	0.342733	0.342618	0.00871782	1	0.000180919	13	2.98688e-06
2	1	0	1	0	135.343	0.351734	0.351536	0.00913785	1	0.000189478	13	3.21228e-06
2	1	0	0	0	136.243	0.360735	0.360611	0.00960704	1	0.000198451	13	3.46441e-06
2	1	0	1	0	137.144	0.369737	0.369615	0.0100526	1	0.000207856	13	3.71559e-06
2	1	0	1	0	138.044	0.378738	0.378469	0.0106125	1	0.000217719	13	4.01649e-06
2	1	0	0	0	138.944	0.387739	0.387656	0.0111647	1	0.000228083	13	4.32806e-06
2	1	0	1	0	139.844	0.39674	0.396592	0.011773	1	0.000238984	13	4.66906e-06
2	1	0	1	0	140.744	0.405742	0.405571	0.0123992	1	0.000250471	13	5.02875e-06
2	1	0	0	0	141.644	0.414743	0.41475	0.0132469	1	0.000262635	13	5.49415e-06
2	1	0	0	0	142.544	0.423744	0.423596	0.014484	1	0.000275669	13	6.13534e-06
2	1	0	1	0	143.444	0.432745	0.432612	0.0194601	1	0.000291077	13	8.41869e-06
2	1	0	0	0	144.345	0.441747	0.4417	0.0326065	1	0.000314846	13	1.44023e-05
2	1	0	0	0	145.245	0.450748	0.450867	0.0481787	1	0.000352031	13	2.17222e-05
2	1	0	1	0	146.145	0.459749	0.459596	0.0618637	1	0.000402629	13	2.84323e-05
2	1	0	0	0	147.045	0.468751	0.468703	0.0702692	1	0.000463391	13	3.29354e-05
2	1	0	0	0	147.945	0.477752	0.477745	0.075799	1	0.0005303	13	3.62126e-05
2	1	0	1	0	148.845	0.486753	0.486761	0.0805555	1	0.000601694	13	3.92113e-05
2	1	0	1	0	149.745	0.495754	0.49565	0.0857448	1	0.000677556	13	4.24994e-05
2	1	0	0	0	150.645	0.504756	0.504601	0.0919378	1	0.000758643	13	4.6392e-05
2	1	0	1	0	151.576	0.514057	0.514035	0.0997289	1	0.000849244	12	5.12642e-05
2	1	0	1	0	152.476	0.523058	0.523005	0.107342	1	0.000943402	12	5.61403e-05
2	1	0	0	0	153.376	0.532059	0.531999	0.114309	1	0.00104424	12	6.08125e-05
2	1	0	1	0	154.276	0.541061	0.540961	0.119738	1	0.00115072	12	6.47736e-05
2	1	0	1	0	155.176	0.550062	0.549954	0.12332	1	0.00126123	12	6.78201e-05
2	1	0	0	0	156.076	0.559063	0.558958	0.125671	1	0.00137447	12	7.02449e-05
2	1	0	1	0	156.976	0.568064	0.56795	0.1274	1	0.00148944	12	7.2357e-05
2	1	0	1	0	157.876	0.577066	0.576905	0.128695	1	0.00160574	12	7.42447e-05
2	1	0	0	0	158.777	0.586067	0.585991	0.130672	1	0.00172352	12	7.65723e-05
2	1	0	0	0	159.677	0.595068	0.594924	0.133119	1	0.0018433	12	7.91957e-05
2	1	0	1	0	160.577	0.604069	0.603975	0.136674	1	0.00196584	12	8.25478e-05
2	1	0	0	0	161.477	0.613071	0.612992	0.141634	1	0.00209215	12	8.68205e-05
2	1	0	0	0	162.377	0.622072	0.622006	0.147912	1	0.0022235	12	9.2002e-05
2	1	0	1	0	163.277	0.631073	0.631014	0.156303	1	0.00236147	12	9.86296e-05
2	1	0	0	0	164.177	0.640074	0.640032	0.166842	1	0.00250788	12	0.000106784
2	1	0	0	0	165.077	0.649076	0.648999	0.180639	1	0.00266523	12	0.000117234
2	1	0	1	0	165.978	0.658077	0.6581	0.198154	1	0.00283671	12	0.000130405
2	1	0	1	0	166.878	0.667078	0.666984	0.219938	1	0.00302589	12	0.000146695
2	1	0	0	0	167.778	0.676079	0.676079	0.244399	1	0.00323602	12	0.000165233
2	1	0	1	0	168.678	0.685081	0.68508	0.271102	1	0.00346919	12	0.000185726
2	1	0	1	0	169.578	0.694082	0.693959	0.300529	1	0.00372749	12	0.000208555
2	1	0	0	0	170.478	0.703083	0.703035	0.336229	1	0.00401496	12	0.000236381
2	1	0	1	0	171.378	0.712085	0.712017	0.378709	1	0.00433746	12	0.000269647
2	1	0	1	0	172.278	0.721086	0.721101	0.428887	1	0.00470162	12	0.000309271
2	1	0	0	0	173.179	0.730087	0.730032	0.486426	1	0.00511434	12	0.000355106
2	1	0	1	0	174.079	0.739088	0.738998	0.549467	1	0.00558134	12	0.000406055
2	1	0	1	0	174.979	0.74809	0.748069	0.619362	1	0.00610841	12	0.000463326
2	1	0	0	0	175.879	0.757091	0.757008	0.696629	1	0.00670176	12	0.000527354
2	1	0	0	0	176.779	0.766092	0.766146	0.777433	1	0.00736575	12	0.000595627
2	1	0	1	0	177.679	0.775093	0.775182	0.86241	1	0.00810492	12	0.000668525
2	1	0	0	0	178.579	0.784095	0.783996	0.953783	1	0.00892381	12	0.000747762
2	1	0	0	0	179.479	0.793096	0.793105	1.05089	1	0.00982701	12	0.000833469
2	1	0	1	0	180.41	0.802397	0.802371	1.15581	1	0.0108551	11	0.000927392
2	1	0	0	0	181.31	0.811398	0.811313	1.26514	1	0.0119458	11	0.00102643
2	1	0	0	0	182.21	0.8204	0.820469	1.38077	1	0.0131376	11	0.00113288
2	1	0	1	0	183.11	0.829401	0.829397	1.5008	1	0.0144359	11	0.00124476
2	1	0	1	0	184.01	0.838402	0.838476	1.62624	1	0.0158443	11	0.00136356
2	1	0	0	0	184.91	0.847403	0.847442	1.75415	1	0.0173666	11	0.00148654
2	1	0	1	0	185.81	0.856405	0.856479	1.8892	1	0.019008	11	0.00161806
2	1	0	1	0	186.71	0.865406	0.865471	2.03034	1	0.0207738	11	0.0017572
2	1	0	0	0	187.611	0.874407	0.874493	2.17341	1	0.0226668	11	0.00190064
2	1	0	1	0	188.511	0.883408	0.883491	2.32341	1	0.0246925	11	0.00205271
2	1	0	1	0	189.411	0.89241	0.892482	2.47613	1	0.0268541	11	0.00220991
2	1	0	0	0	190.311	0.901411	0.901521	2.63245	1	0.0291544	11	0.00237321
2	1	0	1	0	191.211	0.910412	0.910509	2.79389	1	0.0315968	11	0.00254386
2	1	0	1	0	192.111	0.919414	0.919485	2.95334	1	0.0341844	11	0.00271556
2	1	0	0	0	193.011	0.928415	0.928519	3.11884	1	0.0369201	11	0.0028959
2	1	0	0	0	193.911	0.937416	0.937431	3.28002	1	0.0398001	11	0.00307479
2	1	0	1	0	194.812	0.946417	0.94661	3.43818	1	0.0428263	11	0.00325461
2	1	0	0	0	195.712	0.955419	0.955484	3.60452	1	0.046	11	0.00344406
2	1	0	0	0	196.612	0.96442	0.964463	3.7704	1	0.0493212	11	0.00363641
2	1	0	1	0	197.512	0.973421	0.973383	3.9462	1	0.0527926	11	0.00384116
2	1	0	0	0	198.412	0.982422	0.982557	4.11661	1	0.0564205	11	0.0040448
2	1	0	0	0	199.312	0.991424	0.991507	4.2765	1	0.0601999	11	0.00424018
2	1	0	1	0	200.168	0.999975	0.999999	4.43088	1	0.063927	11	0.00443088
2	1	0	0	0	201.023	0.991424	0.99145	4.08058	1	0.0675567	11	0.0040457
2	1	0	0	0	201.923	0.982422	0.982465	3.78801	1	0.07109	11	0.00372159
2	1	0	1	0	202.823	0.973421	0.973465	3.53642	1	0.0743831	11	0.00344258
2	1	0	0	0	203.723	0.96442	0.964438	3.30942	1	0.0774595	11	0.00319173
2	1	0	0	0	204.623	0.955419	0.955588	3.09264	1	0.0803372	11	0.00295529
2	1	0	1	0	205.524	0.946417	0.946354	2.89596	1	0.0830299	11	0.0027406
2	1	0	0	0	206.424	0.937416	0.937449	2.7109	1	0.085551	11	0.00254133
2	1	0	0	0	207.324	0.928415	0.928504	2.53819	1	0.0879116	11	0.00235672
2	1	0	1	0	208.224	0.919414	0.919422	2.37304	1	0.0901213	11	0.00218183
2	1	0	1	0	209.124	0.910411	0.91039	2.22129	1	0.0921877	11	0.00202224
2	1	0	0	0	210.024	0.901411	0.901473	2.07489	1	0.0941186	11	0.00187046
2	1	0	1	0	210.924	0.89241	0.892372	1.93758	1	0.0959237	11	0.00172905
2	1	0	1	0	211.824	0.883409	0.883424	1.80182	1	0.0976049	11	0.00159177
2	1	0	0	0	212.725	0.874407	0.874385	1.67564	1	0.0991683	11	0.00146516
2	1	0	1	0	213.625	0.865406	0.865403	1.5545	1	0.10062	11	0.00134527
2	1	0	1	0	214.525	0.856405	0.856398	1.44234	1	0.101967	11	0.00123522
2	1	0	0	0	215.425	0.847403	0.847413	1.33381	1	0.103215	11	0.00113029
2	1	0	1	0	216.325	0.838403	0.838342	1.22967	1	0.104367	11	0.00103088
2	1	0	1	0	217.225	0.829401	0.829453	1.13159	1	0.105428	11	0.000938601
2	1	0	0	0	218.125	0.8204	0.820362	1.03869	1	0.106403	11	0.000852099
2	1	0	0	0	219.025	0.811398	0.811356	0.950969	1	0.107297	11	0.000771574
2	1	0	1	0	219.926	0.802397	0.802375	0.869015	1	0.108114	11	0.000697276
2	1	0	0	0	220.826	0.793396	0.793333	0.791609	1	0.10886	11	0.00062801
2	1	0	0	0	221.726	0.784395	0.784317	0.718825	1	0.109538	11	0.000563787
2	1	0	1	0	222.626	0.775393	0.775221	0.650212	1	0.110153	11	0.000504058
2	1	0	0	0	223.526	0.766392	0.766205	0.585671	1	0.110707	11	0.000448744
2	1	0	0	0	224.426	0.757391	0.757288	0.525404	1	0.111206	11	0.000397883
2	1	0	1	0	225.326	0.74839	0.748272	0.468357	1	0.111652	11	0.000350459
2	1	0	1	0	226.257	0.739088	0.738949	0.413785	1	0.112061	12	0.000305766
2	1	0	0	0	227.157	0.730087	0.729995	0.363886	1	0.112409	12	0.000265635
2	1	0	1	0	228.057	0.721086	0.720932	0.317082	1	0.112714	12	0.000228595
2	1	0	1	0	228.957	0.712085	0.711965	0.273486	1	0.112978	12	0.000194712
2	1	0	0	0	229.857	0.703083	0.702953	0.233349	1	0.113205	12	0.000164033
2	1	0	1	0	230.757	0.694082	0.694057	0.19645	1	0.113397	12	0.000136348
2	1	0	1	0	231.657	0.685081	0.684951	0.163248	1	0.113557	12	0.000111817
2	1	0	0	0	232.557	0.676079	0.676059	0.133744	1	0.11369	12	9.04188e-05
2	1	0	1	0	233.458	0.667078	0.666967	0.107831	1	0.113797	12	7.19195e-05
2	1	0	1	0	234.358	0.658077	0.657931	0.0854754	1	0.113883	12	5.62369e-05
2	1	0	0	0	235.258	0.649076	0.648918	0.0666615	1	0.11395	12	4.32579e-05
2	1	0	0	0	236.158	0.640074	0.639931	0.0509755	1	0.114001	12	3.26208e-05
2	1	0	1	0	237.088	0.630773	0.630621	0.0380538	1	0.114041	13	2.39975e-05
2	1	0	0	0	237.988	0.621772	0.621577	0.0279118	1	0.114069	13	1.73493e-05
2	1	0	0	0	238.888	0.612771	0.61265	0.0198962	1	0.11409	13	1.21894e-05
2	1	0	1	0	239.788	0.603769	0.603584	0.0137379	1	0.114104	13	8.29199e-06
2	1	0	0	0	240.689	0.594768	0.59468	0.00882417	1	0.114112	13	5.24756e-06
2	0	0	0	0	241.589	0.585767	0.585657	0.00487223	1	0.114117	13	2.85346e-06
2	0	0	1	0	242.489	0.576766	0.576582	0.00182028	1	0.114119	13	1.04954e-06
2	0	0	1	0	243.389	0.567765	0.567625	-0.00073274	1	0.114119	13	-4.15922e-07
2	0	0	0	0	244.289	0.558763	0.558675	-0.00318408	1	0.114116	13	-1.77887e-06
2	0	0	1	0	245.189	0.549762	0.549619	-0.00521524	1	0.114111	13	-2.8664e-06
2	0	0	1	0	246.089	0.540761	0.540643	-0.00724724	1	0.114104	13	-3.91817e-06
2	0	0	0	0	246.989	0.531759	0.531587	-0.00887562	1	0.114096	13	-4.71816e-06
2	0	0	1	0	247.89	0.522758	0.522582	-0.0104977	1	0.114086	13	-5.48592e-06
2	0	0	1	0	248.79	0.513757	0.513602	-0.0121029	1	0.114075	13	-6.2161e-06
2	0	0	0	0	249.69	0.504756	0.504708	-0.0134319	1	0.114062	13	-6.77918e-06
2	0	0	1	0	250.59	0.495754	0.495701	-0.0149126	1	0.114048	13	-7.3922e-06
2	0	0	1	0	251.49	0.486753	0.486654	-0.0162748	1	0.114033	13	-7.92019e-06
2	0	0	0	0	252.39	0.477752	0.477612	-0.0175908	1	0.114017	13	-8.40159e-06
2	0	0	0	0	253.29	0.46875	0.468593	-0.0191602	1	0.113999	13	-8.97834e-06
2	0	0	1	0	254.19	0.459749	0.459714	-0.0204844	1	0.11398	13	-9.41695e-06
2	0	0	0	0	255.091	0.450748	0.450677	-0.0219704	1	0.11396	13	-9.90156e-06
2	0	0	0	0	255.991	0.441747	0.441515	-0.0236986	1	0.113939	13	-1.04633e-05
2	0	0	1	0	256.891	0.432745	0.4327	-0.0256932	1	0.113915	13	-1.11174e-05
2	0	0	0	0	257.791	0.423744	0.42364	-0.0281157	1	0.11389	13	-1.19109e-05
2	0	0	0	0	258.691	0.414743	0.414617	-0.031281	1	0.113862	13	-1.29697e-05
2	0	0	1	0	259.591	0.405742	0.405661	-0.0360223	1	0.113831	13	-1.46129e-05
2	0	0	1	0	260.491	0.39674	0.39672	-0.0426158	1	0.113795	13	-1.69065e-05
2	0	0	0	0	261.391	0.387739	0.387638	-0.0519295	1	0.113751	13	-2.01299e-05
2	0	0	1	0	262.292	0.378738	0.378597	-0.0653437	1	0.113698	13	-2.47389e-05
2	0	0	1	0	263.192	0.369737	0.369701	-0.084658	1	0.11363	13	-3.12982e-05
2	0	0	0	0	264.122	0.360435	0.360346	-0.130225	1	0.113533	12	-4.69259e-05
2	0	0	1	0	265.022	0.351434	0.351363	-0.227861	1	0.11337	12	-8.00619e-05
2	0	0	1	0	265.922	0.342433	0.342455	-0.262827	1	0.113142	12	-9.00065e-05
2	0	0	0	0	266.822	0.333432	0.333338	-0.2369	1	0.112914	12	-7.89677e-05
2	0	0	1	0	267.722	0.32443	0.324381	-0.198747	1	0.112716	12	-6.44699e-05
2	0	0	1	0	268.622	0.315429	0.315372	-0.162379	1	0.112553	12	-5.12096e-05
2	0	0	0	0	269.523	0.306428	0.306378	-0.125752	1	0.112422	12	-3.85276e-05
2	0	0	0	0	270.423	0.297427	0.29734	-0.0840306	1	0.112327	12	-2.49857e-05
2	0	0	1	0	271.323	0.288425	0.288362	-0.0510164	1	0.112268	12	-1.47112e-05
2	0	0	0	0	272.253	0.279124	0.278956	-0.0368593	1	0.112227	13	-1.02821e-05
2	0	0	0	0	273.153	0.270123	0.270006	-0.0292824	1	0.112197	13	-7.90641e-06
2	0	0	1	0	274.053	0.261121	0.261077	-0.0241508	1	0.112172	13	-6.30523e-06
2	0	0	0	0	274.953	0.25212	0.252017	-0.0200613	1	0.112152	13	-5.05578e-06
2	0	0	0	0	275.853	0.243119	0.243022	-0.0170566	1	0.112135	13	-4.14513e-06
2	0	0	1	0	276.754	0.234118	0.234064	-0.0149014	1	0.11212	13	-3.48787e-06
2	0	0	1	0	277.654	0.225117	0.22505	-0.0134478	1	0.112107	13	-3.02643e-06
2	0	0	0	0	278.554	0.216115	0.216014	-0.0124651	1	0.112095	13	-2.69264e-06
2	0	0	1	0	279.454	0.207114	0.207082	-0.0115512	1	0.112084	13	-2.39206e-06
2	0	0	1	0	280.354	0.198113	0.197988	-0.010758	1	0.112073	13	-2.12995e-06
2	0	0	0	0	281.254	0.189111	0.189076	-0.0100326	1	0.112064	13	-1.89693e-06
2	0	0	1	0	282.154	0.18011	0.18006	-0.00940208	1	0.112054	13	-1.69294e-06
2	0	0	1	0	283.054	0.171109	0.170992	-0.00886363	1	0.112046	13	-1.51561e-06
2	0	0	0	0	283.955	0.162108	0.162024	-0.00843369	1	0.112038	13	-1.36646e-06
2	0	0	1	0	284.855	0.153106	0.153034	-0.00805642	1	0.11203	13	-1.23291e-06
2	0	0	1	0	285.755	0.144105	0.14403	-0.0076668	1	0.112023	13	-1.10425e-06
2	0	0	0	0	286.655	0.135104	0.135016	-0.00733095	1	0.112016	13	-9.89799e-07
2	0	0	1	0	287.555	0.126102	0.126023	-0.00706586	1	0.112009	13	-8.9046e-07
2	0	0	1	0	288.455	0.117101	0.117059	-0.00678568	1	0.112003	13	-7.94326e-07
2	0	0	0	0	289.355	0.1081	0.107984	-0.0065155	1	0.111996	13	-7.03571e-07
2	0	0	0	0	290.255	0.0990988	0.0990066	-0.00632471	1	0.11199	13	-6.26188e-07
2	0	0	1	0	291.156	0.0900976	0.089974	-0.00610648	1	0.111984	13	-5.49424e-07
2	0	0	0	0	292.056	0.0810963	0.0809837	-0.00591276	1	0.111979	13	-4.78837e-07
2	0	0	0	0	292.956	0.0720951	0.0720402	-0.00573322	1	0.111973	13	-4.13022e-07
2	0	0	1	0	293.856	0.0630938	0.0630171	-0.00550751	1	0.111968	13	-3.47067e-07
2	0	0	1	0	294.756	0.0540932	0.0541029	-0.00534314	1	0.111963	13	-2.8908e-07
2	0	0	0	0	295.656	0.0450913	0.0450982	-0.00519387	1	0.111958	13	-2.34234e-07
2	0	0	1	0	296.556	0.03609	0.0359509	-0.00505408	1	0.111953	13	-1.81699e-07
2	0	0	1	0	297.456	0.0270888	0.0271124	-0.00490638	1	0.111949	13	-1.33024e-07
2	0	0	0	0	298.357	0.0180875	0.0179503	-0.00475833	1	0.111944	13	-8.54134e-08
2	0	0	1	0	299.257	0.00908625	0.00903647	-0.00460102	1	0.11194	13	-4.1577e-08
2	0	0	1	0	300.132	0.000335024	0.00039966	-0.00452149	1	0.111935	13	-1.80706e-09
2	0	0	0	1	300.917	0.00758604	0.00748061	-0.00277005	2	0.111933	13	-2.07217e-08
2	0	0	1	1	301.818	0.0165873	0.0164401	-0.00215538	2	0.111931	13	-3.54346e-08
2	0	0	1	1	302.718	0.025589	0.0255041	-0.001721	2	0.111929	13	-4.38924e-08
2	0	0	0	1	303.618	0.0345898	0.0344513	-0.00144828	2	0.111928	13	-4.9895e-08
2	0	0	1	1	304.518	0.0435911	0.0434914	-0.00114459	2	0.111927	13	-4.97797e-08
2	0	0	1	1	305.418	0.0525923	0.0524689	-0.000925335	2	0.111926	13	-4.85513e-08
2	0	0	0	1	306.318	0.0615936	0.0614846	-0.000728807	2	0.111926	13	-4.48104e-08
2	0	0	1	1	307.218	0.0705948	0.0704907	-0.000548463	2	0.111925	13	-3.86616e-08
2	0	0	1	1	308.118	0.0795961	0.0794693	-0.000379475	2	0.111925	13	-3.01566e-08
2	0	0	0	1	309.019	0.0885974	0.0884605	-0.000234426	2	0.111925	13	-2.07374e-08
2	0	0	1	1	309.919	0.0975986	0.0974794	-8.91414e-05	2	0.111925	13	-8.68945e-09
2	0	0	1	1	310.819	0.1066	0.106456	3.54862e-05	2	0.111925	13	3.77772e-09
2	0	0	0	1	311.719	0.115601	0.115388	0.000143472	2	0.111926	13	1.65549e-08
2	0	0	0	1	312.619	0.124602	0.124477	0.000288576	2	0.111926	13	3.5921e-08
2	0	0	1	1	313.519	0.133604	0.133529	0.000385831	2	0.111926	13	5.15198e-08
2	0	0	0	1	314.419	0.142605	0.142453	0.000523905	2	0.111927	13	7.46318e-08
2	0	0	0	1	315.319	0.151606	0.151546	0.000642311	2	0.111928	13	9.73397e-08
2	0	0	1	1	316.22	0.160607	0.160534	0.000788285	2	0.111929	13	1.26547e-07
2	0	0	0	1	317.12	0.169609	0.169409	0.000892875	2	0.111929	13	1.51261e-07
2	0	0	0	1	318.02	0.17861	0.178541	0.00103337	2	0.111931	13	1.84499e-07
2	0	0	1	1	318.92	0.187611	0.187445	0.00118153	2	0.111932	13	2.21473e-07
2	0	0	1	1	319.82	0.196613	0.19644	0.00134992	2	0.111933	13	2.6518e-07
2	0	0	0	1	320.72	0.205614	0.205534	0.00152328	2	0.111935	13	3.13085e-07
2	0	0	1	1	321.62	0.214615	0.214473	0.00171331	2	0.111936	13	3.67459e-07
2	0	0	1	1	322.52	0.223616	0.223575	0.00189545	2	0.111938	13	4.23775e-07
2	0	0	0	1	323.421	0.232617	0.232485	0.00209483	2	0.11194	13	4.87015e-07
2	0	0	1	1	324.321	0.241619	0.241562	0.00229088	2	0.111942	13	5.53389e-07
2	0	0	1	1	325.221	0.25062	0.250549	0.00247506	2	0.111945	13	6.20125e-07
2	0	0	0	1	326.121	0.259621	0.259595	0.00271823	2	0.111947	13	7.05639e-07
2	0	0	1	1	327.021	0.268623	0.268529	0.00289231	2	0.11195	13	7.76669e-07
2	0	0	1	1	327.921	0.277624	0.277472	0.00306669	2	0.111953	13	8.50921e-07
2	0	0	0	1	328.821	0.286625	0.286539	0.00329785	2	0.111957	13	9.44964e-07
2	0	0	0	1	329.721	0.295626	0.295553	0.00348969	2	0.11196	13	1.03139e-06
2	0	0	1	1	330.622	0.304628	0.304393	0.00371617	2	0.111964	13	1.13117e-06
2	0	0	0	1	331.522	0.313629	0.313597	0.00391626	2	0.111967	13	1.22813e-06
2	0	0	0	1	332.422	0.32263	0.322496	0.00406282	2	0.111971	13	1.31024e-06
2	0	0	1	1	333.322	0.331631	0.331617	0.00432444	2	0.111976	13	1.43406e-06
2	0	0	0	1	334.222	0.340633	0.340523	0.0045352	2	0.11198	13	1.54434e-06
2	0	0	0	1	335.122	0.349634	0.349553	0.00478251	2	0.111985	13	1.67174e-06
2	1	0	1	1	336.022	0.358635	0.358654	0.00505718	2	0.11199	13	1.81378e-06
2	1	0	1	1	336.922	0.367637	0.36756	0.00537805	2	0.111995	13	1.97676e-06
2	1	0	0	1	337.823	0.376638	0.376683	0.0057686	2	0.112001	13	2.17293e-06
2	1	0	1	1	338.723	0.385639	0.385675	0.00628413	2	0.112007	13	2.42363e-06
2	1	0	1	1	339.623	0.39464	0.394614	0.00702419	2	0.112013	13	2.77184e-06
2	1	0	0	1	340.523	0.403641	0.403622	0.00996379	2	0.112021	13	4.02161e-06
2	1	0	1	1	341.423	0.412643	0.412604	0.0329472	2	0.112039	13	1.35941e-05
2	1	0	1	1	342.323	0.421644	0.421586	0.0763961	2	0.112089	13	3.22075e-05
2	1	0	0	1	343.253	0.430945	0.430927	0.106382	2	0.112177	12	4.5843e-05
2	1	0	1	1	344.154	0.439947	0.439919	0.119604	2	0.11228	12	5.26159e-05
2	1	0	1	1	345.054	0.448948	0.448948	0.129798	2	0.112393	12	5.82728e-05
2	1	0	0	1	345.954	0.457949	0.457914	0.145694	2	0.112517	12	6.67155e-05
2	1	0	0	1	346.854	0.46695	0.466933	0.166433	2	0.112659	12	7.77131e-05
2	1	0	1	1	347.754	0.475951	0.475944	0.178607	2	0.112816	12	8.50068e-05
2	1	0	0	1	348.654	0.484953	0.484954	0.179729	2	0.112979	12	8.71601e-05
2	1	0	0	1	349.554	0.493954	0.493894	0.164257	2	0.113136	12	8.11253e-05
2	1	0	1	1	350.454	0.502955	0.502897	0.139987	2	0.113275	12	7.03992e-05
2	1	0	0	1	351.355	0.511957	0.511913	0.118302	2	0.113391	12	6.05605e-05
2	1	0	0	1	352.255	0.520958	0.520886	0.102717	2	0.113492	12	5.35039e-05
2	1	0	1	1	353.155	0.529959	0.529981	0.0910129	2	0.11358	12	4.82351e-05
2	1	0	1	1	354.055	0.538961	0.538935	0.0815938	2	0.113658	12	4.39738e-05
2	1	0	0	1	354.955	0.547962	0.547983	0.0739568	2	0.11373	12	4.05271e-05
2	1	0	1	1	355.855	0.556963	0.556925	0.0681493	2	0.113795	12	3.79541e-05
2	1	0	1	1	356.755	0.565964	0.56596	0.0643814	2	0.113855	12	3.64373e-05
2	1	0	0	1	357.655	0.574965	0.574896	0.0628931	2	0.113914	12	3.6157e-05
2	1	0	1	1	358.556	0.583967	0.584011	0.0642622	2	0.113972	12	3.75298e-05
2	1	0	1	1	359.456	0.592968	0.592991	0.070664	2	0.114033	12	4.19031e-05
2	1	0	0	1	360.356	0.601969	0.601977	0.0821654	2	0.114103	12	4.94617e-05
2	1	0	1	1	361.256	0.61097	0.610956	0.0902897	2	0.114183	12	5.5163e-05
2	1	0	1	1	362.156	0.619972	0.619905	0.0889014	2	0.114265	12	5.51104e-05
2	1	0	0	1	363.056	0.628973	0.628881	0.0872706	2	0.114345	12	5.48828e-05
2	1	0	0	1	363.956	0.637974	0.63794	0.0914609	2	0.114427	12	5.83466e-05
2	1	0	1	1	364.856	0.646975	0.647013	0.102371	2	0.114515	12	6.62353e-05
2	1	0	0	1	365.757	0.655977	0.655942	0.119555	2	0.114615	12	7.84212e-05
2	1	0	0	1	366.657	0.664978	0.664985	0.142607	2	0.114734	12	9.48315e-05
2	1	0	1	1	367.557	0.673979	0.673995	0.171693	2	0.114876	12	0.00011572
2	1	0	0	1	368.457	0.68298	0.682972	0.206465	2	0.115047	12	0.00014101
2	1	0	0	1	369.357	0.691982	0.69196	0.246624	2	0.115252	12	0.000170654
2	1	0	1	1	370.257	0.700983	0.700998	0.291493	2	0.115495	12	0.000204336
2	1	0	1	1	371.157	0.709984	0.710026	0.341901	2	0.115781	12	0.000242759
2	1	0	0	1	372.057	0.718986	0.719005	0.398007	2	0.116115	12	0.000286169
2	1	0	1	1	372.958	0.727987	0.728002	0.459846	2	0.116502	12	0.000334769
2	1	0	1	1	373.858	0.736988	0.736909	0.527351	2	0.116947	12	0.000388609
2	1	0	0	1	374.758	0.745989	0.746007	0.598419	2	0.117455	12	0.000446424
2	1	0	1	1	375.658	0.754991	0.755012	0.672732	2	0.118027	12	0.00050792
2	1	0	1	1	376.558	0.763992	0.763953	0.754393	2	0.118671	12	0.000576321
2	1	0	0	1	377.458	0.772993	0.772976	0.840593	2	0.11939	12	0.000649758
2	1	0	1	1	378.358	0.781994	0.782033	0.932239	2	0.120188	12	0.000729042
2	1	0	1	1	379.258	0.790996	0.79099	1.02888	2	0.121072	12	0.00081383
2	1	0	0	1	380.189	0.800297	0.800334	1.13298	2	0.122079	11	0.000906763
2	1	0	0	1	381.089	0.809298	0.809289	1.2416	2	0.123148	11	0.00100482
2	1	0	1	1	381.989	0.818299	0.818348	1.35623	2	0.124318	11	0.00110987
2	1	0	0	1	382.889	0.827301	0.82732	1.47543	2	0.125593	11	0.00122065
2	1	0	0	1	383.789	0.836302	0.836346	1.60065	2	0.126979	11	0.0013387
2	1	0	1	1	384.689	0.845303	0.845361	1.73217	2	0.12848	11	0.00146431
2	1	0	0	1	385.589	0.854304	0.854497	1.87086	2	0.130103	11	0.00159865
2	1	0	0	1	386.489	0.863306	0.863384	2.01247	2	0.131852	11	0.00173753
2	1	0	1	1	387.39	0.872307	0.872454	2.16098	2	0.133732	11	0.00188536
2	1	0	1	1	388.29	0.881309	0.881453	2.31189	2	0.135746	11	0.00203782
2	1	0	0	1	389.19	0.890309	0.890333	2.47337	2	0.1379	11	0.00220212
2	1	0	1	1	390.09	0.899311	0.89932	2.63315	2	0.140198	11	0.00236805
2	1	0	1	1	390.99	0.908312	0.908442	2.79647	2	0.142643	11	0.00254043
2	1	0	0	1	391.89	0.917313	0.917337	2.96217	2	0.145236	11	0.00271731
2	1	0	1	1	392.79	0.926314	0.92642	3.13533	2	0.147982	11	0.00290463
2	1	0	1	1	393.69	0.935316	0.935306	3.30922	2	0.150884	11	0.00309514
2	1	0	0	1	394.591	0.944317	0.944371	3.48714	2	0.153946	11	0.00329315
2	1	0	1	1	395.491	0.953317	0.953382	3.665	2	0.157164	11	0.00349414
2	1	0	1	1	396.391	0.962319	0.962441	3.84399	2	0.160547	11	0.00369961
2	1	0	0	1	397.291	0.971321	0.971331	4.01761	2	0.164087	11	0.00390243
2	1	0	0	1	398.191	0.980322	0.980333	4.18937	2	0.167782	11	0.00410697
2	1	0	1	1	399.091	0.989323	0.989442	4.35674	2	0.171631	11	0.00431075
2	1	0	0	1	399.991	0.998325	0.99831	4.54212	2	0.175643	11	0.00453444
2	1	0	1	1	400.712	0.994424	0.994375	4.34409	2	0.178867	11	0.00431966
2	1	0	1	1	401.612	0.985423	0.985484	4.02875	2	0.182628	11	0.00397027
2	1	0	0	1	402.512	0.976421	0.976342	3.76656	2	0.186134	11	0.00367746
2	1	0	1	1	403.412	0.96742	0.967384	3.52419	2	0.189411	11	0.00340925
2	1	0	1	1	404.312	0.958419	0.958453	3.30643	2	0.19248	11	0.00316906
2	1	0	0	1	405.213	0.949418	0.949359	3.09484	2	0.195359	11	0.00293812
2	1	0	0	1	406.113	0.940416	0.940449	2.8997	2	0.198055	11	0.00272702
2	1	0	1	1	407.013	0.931415	0.931484	2.71885	2	0.200581	11	0.00253257
2	1	0	0	1	407.913	0.922414	0.922374	2.54163	2	0.202946	11	0.00234433
2	1	0	0	1	408.813	0.913413	0.913468	2.37331	2	0.205155	11	0.00216794
2	1	0	1	1	409.713	0.904411	0.904445	2.21361	2	0.207217	11	0.00200209
2	1	0	1	1	410.613	0.895411	0.89553	2.06117	2	0.209139	11	0.00184584
2	1	0	0	1	411.513	0.886409	0.886498	1.91653	2	0.210926	11	0.001699
2	1	0	1	1	412.414	0.877408	0.877437	1.77765	2	0.212587	11	0.00155977
2	1	0	1	1	413.314	0.868406	0.868523	1.64651	2	0.214126	11	0.00143004
2	1	0	0	1	414.214	0.859405	0.859464	1.52258	2	0.21555	11	0.00130861
2	1	0	1	1	415.114	0.850404	0.850432	1.4049	2	0.216866	11	0.00119477
2	1	0	1	1	416.014	0.841403	0.841401	1.29374	2	0.218079	11	0.00108855
2	1	0	0	1	416.914	0.832401	0.832451	1.18931	2	0.219194	11	0.000990039
2	1	0	1	1	417.814	0.8234	0.823521	1.09108	2	0.220219	11	0.000898527
2	1	0	1	1	418.714	0.814399	0.814327	0.998206	2	0.221158	11	0.000812867
2	1	0	0	1	419.615	0.805398	0.805366	0.91234	2	0.222016	11	0.000734768
2	1	0	1	1	420.515	0.796396	0.79644	0.832299	2	0.222799	11	0.000662876
2	1	0	1	1	421.415	0.787395	0.787341	0.756073	2	0.223513	11	0.000595288
2	1	0	0	1	422.315	0.778394	0.778425	0.684947	2	0.224159	11	0.00053318
2	1	0	0	1	423.215	0.769393	0.769379	0.617638	2	0.224744	11	0.000475198
2	1	0	1	1	424.115	0.760391	0.760415	0.554111	2	0.22527	11	0.000421354
2	1	0	0	1	425.015	0.75139	0.751351	0.495034	2	0.225741	11	0.000371944
2	1	0	0	1	425.945	0.742089	0.742094	0.438244	2	0.226173	12	0.000325218
2	1	0	1	1	426.846	0.733088	0.733144	0.385853	2	0.226542	12	0.000282886
2	1	0	0	1	427.746	0.724086	0.724137	0.336763	2	0.226866	12	0.000243862
2	1	0	0	1	428.646	0.715085	0.715092	0.290998	2	0.227147	12	0.00020809
2	1	0	1	1	429.546	0.706084	0.706049	0.248866	2	0.227389	12	0.000175711
2	1	0	1	1	430.446	0.697082	0.697038	0.210112	2	0.227594	12	0.000146456
2	1	0	0	1	431.346	0.688081	0.688047	0.174939	2	0.227766	12	0.000120366
2	1	0	1	1	432.246	0.67908	0.679039	0.143519	2	0.227908	12	9.74549e-05
2	1	0	1	1	433.146	0.670079	0.670145	0.115944	2	0.228023	12	7.76996e-05
2	1	0	0	1	434.047	0.661077	0.661035	0.0919058	2	0.228115	12	6.0753e-05
2	1	0	1	1	434.947	0.652076	0.652018	0.0716192	2	0.228187	12	4.66971e-05
2	1	0	1	1	435.847	0.643075	0.643078	0.0546887	2	0.228243	12	3.51691e-05
2	1	0	0	1	436.777	0.633774	0.633716	0.0404835	2	0.228286	13	2.56551e-05
2	1	0	1	1	437.677	0.624773	0.624726	0.0294406	2	0.228316	13	1.83923e-05
2	1	0	1	1	438.577	0.615771	0.615739	0.0206831	2	0.228337	13	1.27354e-05
2	1	0	0	1	439.477	0.60677	0.606728	0.0137924	2	0.228351	13	8.36825e-06
2	1	0	0	1	440.377	0.597769	0.597806	0.00840618	2	0.22836	13	5.02527e-06
2	0	0	1	1	441.278	0.588767	0.58876	0.00407356	2	0.228365	13	2.39835e-06
2	0	0	0	1	442.178	0.579766	0.579714	0.000749823	2	0.228366	13	4.34683e-07
2	0	0	0	1	443.078	0.570765	0.570768	-0.00213036	2	0.228364	13	-1.21594e-06
2	0	0	1	1	443.978	0.561763	0.561601	-0.00471688	2	0.22836	13	-2.64901e-06
2	0	0	0	1	444.878	0.552762	0.552695	-0.00675852	2	0.228354	13	-3.7354e-06
2	0	0	0	1	445.778	0.543761	0.543718	-0.00890298	2	0.228345	13	-4.84071e-06
2	0	0	1	1	446.678	0.53476	0.534757	-0.0107354	2	0.228336	13	-5.74085e-06
2	0	0	1	1	447.578	0.525759	0.525806	-0.0123392	2	0.228324	13	-6.48801e-06
2	0	0	0	1	448.479	0.516757	0.516785	-0.0139656	2	0.228311	13	-7.21724e-06
2	0	0	1	1	449.379	0.507756	0.507726	-0.0154666	2	0.228297	13	-7.85281e-06
2	0	0	1	1	450.279	0.498755	0.49873	-0.0168622	2	0.228281	13	-8.40968e-06
2	0	0	0	1	451.179	0.489753	0.489774	-0.0182272	2	0.228264	13	-8.9272e-06
2	0	0	1	1	452.079	0.480752	0.480784	-0.0194707	2	0.228246	13	-9.36119e-06
2	0	0	1	1	452.979	0.471751	0.471769	-0.0207567	2	0.228227	13	-9.79237e-06
2	0	0	0	1	453.879	0.46275	0.462773	-0.0222866	2	0.228207	13	-1.03136e-05
2	0	0	1	1	454.779	0.453748	0.453719	-0.0239345	2	0.228185	13	-1.08595e-05
2	0	0	1	1	455.68	0.444747	0.444725	-0.0255641	2	0.228162	13	-1.1369e-05
2	0	0	0	1	456.58	0.435746	0.435699	-0.0273248	2	0.228137	13	-1.19054e-05
2	0	0	0	1	457.48	0.426745	0.426745	-0.0295782	2	0.22811	13	-1.26223e-05
2	0	0	1	1	458.38	0.417743	0.417696	-0.0325139	2	0.228081	13	-1.35809e-05
2	0	0	0	1	459.28	0.408742	0.408751	-0.0363448	2	0.228049	13	-1.4856e-05
2	0	0	0	1	460.18	0.399741	0.399696	-0.0419904	2	0.228013	13	-1.67834e-05
2	0	0	1	1	461.08	0.39074	0.390643	-0.0502491	2	0.227971	13	-1.96295e-05
2	0	0	0	1	461.981	0.381738	0.38169	-0.0627811	2	0.227919	13	-2.39629e-05
2	0	0	0	1	462.881	0.372737	0.372862	-0.0801753	2	0.227854	13	-2.98943e-05
2	0	0	1	1	463.811	0.363436	0.363383	-0.109401	2	0.227767	12	-3.97545e-05
2	0	0	1	1	464.711	0.354435	0.354382	-0.186955	2	0.227636	12	-6.62533e-05
2	0	0	0	1	465.611	0.345433	0.34547	-0.24355	2	0.227435	12	-8.41392e-05
2	0	0	1	1	466.511	0.336432	0.336342	-0.232788	2	0.227217	12	-7.82962e-05
2	0	0	1	1	467.411	0.327431	0.327328	-0.20251	2	0.22702	12	-6.62873e-05
2	0	0	0	1	468.311	0.318429	0.318369	-0.169448	2	0.226852	12	-5.39468e-05
2	0	0	1	1	469.212	0.309428	0.309303	-0.136877	2	0.226714	12	-4.23365e-05
2	0	0	1	1	470.112	0.300427	0.300407	-0.103591	2	0.226605	12	-3.11196e-05
2	0	0	0	1	471.012	0.291426	0.291349	-0.0740026	2	0.226525	12	-2.15606e-05
2	0	0	1	1	471.912	0.282424	0.282403	-0.0558687	2	0.226467	12	-1.57775e-05
2	0	0	1	1	472.812	0.273423	0.273234	-0.0446618	2	0.226422	12	-1.22031e-05
2	0	0	0	1	473.742	0.264122	0.264141	-0.036845	2	0.226384	13	-9.73228e-06
2	0	0	0	1	474.642	0.255121	0.255087	-0.0315186	2	0.226352	13	-8.03998e-06
2	0	0	1	1	475.542	0.246119	0.246008	-0.027415	2	0.226326	13	-6.7443e-06
2	0	0	0	1	476.443	0.237118	0.237128	-0.0243074	2	0.226302	13	-5.76395e-06
2	0	0	0	1	477.343	0.228117	0.227985	-0.02223	2	0.226281	13	-5.06809e-06
2	0	0	1	1	478.243	0.219116	0.219001	-0.0203526	2	0.226261	13	-4.45724e-06
2	0	0	0	1	479.143	0.210114	0.210235	-0.0183638	2	0.226244	13	-3.86071e-06
2	0	0	0	1	480.043	0.201113	0.200968	-0.0164606	2	0.226228	13	-3.30805e-06
2	0	0	1	1	480.943	0.192112	0.191962	-0.0149219	2	0.226213	13	-2.86444e-06
2	0	0	1	1	481.843	0.18311	0.183098	-0.0134847	2	0.226201	13	-2.46901e-06
2	0	0	0	1	482.743	0.174109	0.173976	-0.0124718	2	0.226189	13	-2.1698e-06
2	0	0	1	1	483.644	0.165108	0.165051	-0.011635	2	0.226178	13	-1.92037e-06
2	0	0	1	1	484.544	0.156107	0.156096	-0.0109814	2	0.226167	13	-1.71415e-06
2	0	0	0	1	485.444	0.147106	0.146962	-0.0105184	2	0.226157	13	-1.5458e-06
2	0	0	1	1	486.344	0.138104	0.138001	-0.0100663	2	0.226148	13	-1.38915e-06
2	0	0	1	1	487.244	0.129103	0.129039	-0.00971244	2	0.226139	13	-1.25328e-06
2	0	0	0	1	488.144	0.120102	0.120047	-0.00937421	2	0.22613	13	-1.12534e-06
2	0	0	1	1	489.044	0.111101	0.11102	-0.00894628	2	0.226122	13	-9.93213e-07
2	0	0	1	1	489.944	0.102099	0.102037	-0.00858871	2	0.226114	13	-8.76363e-07
2	0	0	0	1	490.845	0.093098	0.0930124	-0.00817345	2	0.226106	13	-7.60232e-07
2	0	0	0	1	491.745	0.0840967	0.0839288	-0.00767687	2	0.226099	13	-6.4431e-07
2	0	0	1	1	492.645	0.0750955	0.0750776	-0.00733852	2	0.226092	13	-5.50958e-07
2	0	0	0	1	493.545	0.0660942	0.0659855	-0.0070355	2	0.226085	13	-4.64241e-07
2	0	0	0	1	494.445	0.057093	0.0569677	-0.00678473	2	0.226079	13	-3.86511e-07
2	0	0	1	1	495.345	0.0480917	0.047969	-0.00660937	2	0.226072	13	-3.17045e-07
2	0	0	0	1	496.245	0.0390904	0.0390562	-0.00640596	2	0.226066	13	-2.50193e-07
2	0	0	0	1	497.145	0.0300892	0.0299599	-0.00621498	2	0.226061	13	-1.862e-07
2	0	0	1	1	498.046	0.0210879	0.0209877	-0.00606349	2	0.226055	13	-1.27259e-07
2	0	0	1	1	498.946	0.0120867	0.0119211	-0.00595476	2	0.226049	13	-7.09871e-08
2	0	0	0	1	499.846	0.00308541	0.00298073	-0.00577802	2	0.226044	13	-1.72227e-08
2	0	0	1	0	500.606	0.00458562	0.00444531	-0.00406591	3	0.22604	13	-1.80742e-08
2	0	0	0	0	501.507	0.0135869	0.0134982	-0.00313702	3	0.226037	13	-4.23439e-08
2	0	0	0	0	502.407	0.0225881	0.0225223	-0.00249633	3	0.226035	13	-5.62231e-08
2	0	0	1	0	503.307	0.0315894	0.0315073	-0.00205603	3	0.226033	13	-6.47799e-08
2	0	0	0	0	504.207	0.0405906	0.0404943	-0.00169895	3	0.226031	13	-6.87978e-08
2	0	0	0	0	505.107	0.0495919	0.0494866	-0.00134656	3	0.22603	13	-6.66365e-08
2	0	0	1	0	506.007	0.0585932	0.0585108	-0.0011014	3	0.226029	13	-6.44435e-08
2	0	0	1	0	506.907	0.0675944	0.0676645	-0.000852521	3	0.226028	13	-5.76854e-08
2	1	0	0	0	507.807	0.0765957	0.076434	-0.000662299	3	0.226028	13	-5.06221e-08
2	1	0	1	0	508.708	0.0855969	0.0856683	-0.000460311	3	0.226027	13	-3.94341e-08
2	1	0	1	0	509.608	0.0945982	0.0944908	-0.000251955	3	0.226027	13	-2.38075e-08
2	1	0	0	0	510.508	0.103599	0.103463	-0.000125052	3	0.226027	13	-1.29383e-08
2	1	0	1	0	511.408	0.112601	0.112529	5.10744e-05	3	0.226027	13	5.74733e-09
2	1	0	1	0	512.308	0.121602	0.121487	0.000234872	3	0.226027	13	2.85338e-08
2	1	0	0	0	513.208	0.130603	0.13029	0.000332937	3	0.226028	13	4.33785e-08
2	1	0	1	0	514.108	0.139605	0.139553	0.00050658	3	0.226028	13	7.06947e-08
2	1	0	1	0	515.008	0.148606	0.148343	0.000636903	3	0.226029	13	9.44801e-08
2	1	0	0	0	515.909	0.157607	0.157489	0.000787343	3	0.22603	13	1.23998e-07
2	1	0	0	0	516.809	0.166608	0.166457	0.000948247	3	0.226031	13	1.57842e-07
2	1	0	1	0	517.709	0.17561	0.175479	0.00108077	3	0.226032	13	1.89653e-07
2	1	0	0	0	518.609	0.184611	0.18459	0.00123622	3	0.226033	13	2.28194e-07
2	1	0	0	0	519.509	0.193612	0.193442	0.00141193	3	0.226034	13	2.73125e-07
2	1	0	1	0	520.409	0.202613	0.202537	0.00157676	3	0.226036	13	3.19351e-07
2	1	0	0	0	521.309	0.211615	0.211712	0.00178149	3	0.226037	13	3.77163e-07
2	1	0	0	0	522.209	0.220616	0.220435	0.0019564	3	0.226039	13	4.31258e-07
2	1	0	1	0	523.11	0.229617	0.229492	0.00216709	3	0.226041	13	4.9733e-07
2	1	0	1	0	524.01	0.238618	0.238355	0.0023826	3	0.226043	13	5.67904e-07
2	1	0	0	0	524.91	0.24762	0.247585	0.00257441	3	0.226046	13	6.37384e-07
2	1	0	1	0	525.81	0.256621	0.2566	0.00279151	3	0.226048	13	7.16303e-07
2	1	0	1	0	526.71	0.265622	0.265387	0.00300272	3	0.226051	13	7.96882e-07
2	1	0	0	0	527.61	0.274623	0.274511	0.00321486	3	0.226054	13	8.82514e-07
2	1	0	1	0	528.51	0.283625	0.283575	0.00345766	3	0.226058	13	9.80505e-07
2	1	0	1	0	529.41	0.292626	0.292509	0.0036134	3	0.226061	13	1.05695e-06
2	1	0	0	0	530.311	0.301627	0.301481	0.00387834	3	0.226065	13	1.16925e-06
2	1	0	1	0	531.211	0.310629	0.310584	0.00413785	3	0.226069	13	1.28515e-06
2	1	0	1	0	532.111	0.31963	0.319568	0.0043333	3	0.226073	13	1.38478e-06
2	1	0	0	0	533.011	0.328631	0.328561	0.0045493	3	0.226077	13	1.49472e-06
2	1	0	0	0	533.911	0.337632	0.337491	0.00481601	3	0.226082	13	1.62536e-06
2	1	0	1	0	534.811	0.346633	0.346547	0.00510989	3	0.226086	13	1.77082e-06
2	1	0	0	0	535.711	0.355635	0.355554	0.00546464	3	0.226092	13	1.94298e-06
2	1	0	0	0	536.611	0.364636	0.364501	0.00579564	3	0.226097	13	2.11252e-06
2	1	0	1	0	537.512	0.373637	0.373463	0.00615592	3	0.226103	13	2.29901e-06
2	1	0	1	0	538.412	0.382638	0.382588	0.00671774	3	0.226109	13	2.57013e-06
2	1	0	0	0	539.312	0.39164	0.391567	0.0073508	3	0.226116	13	2.87833e-06
2	1	0	1	0	540.212	0.400641	0.400684	0.00884752	3	0.226124	13	3.54506e-06
2	1	0	1	0	541.112	0.409642	0.409639	0.0198116	3	0.226136	13	8.11559e-06
2	1	0	0	0	542.012	0.418644	0.418603	0.0497132	3	0.226167	13	2.08101e-05
2	1	0	1	0	542.912	0.427645	0.427632	0.0786319	3	0.226226	13	3.36255e-05
2	1	0	1	0	543.812	0.436646	0.436564	0.0972855	3	0.226306	13	4.24714e-05
2	1	0	0	0	544.743	0.445947	0.445967	0.114757	3	0.226406	12	5.11779e-05
2	1	0	1	0	545.643	0.454949	0.45494	0.135712	3	0.226519	12	6.17409e-05
2	1	0	1	0	546.543	0.46395	0.463912	0.160624	3	0.226653	12	7.45157e-05
2	1	0	0	0	547.443	0.472951	0.472945	0.178343	3	0.226807	12	8.43463e-05
2	1	0	1	0	548.343	0.481953	0.481912	0.187129	3	0.226974	12	9.01798e-05
2	1	0	1	0	549.243	0.490954	0.490868	0.180304	3	0.227141	12	8.85056e-05
2	1	0	0	0	550.143	0.499955	0.499948	0.163095	3	0.227297	12	8.15388e-05
2	1	0	0	0	551.043	0.508956	0.508883	0.142661	3	0.227436	12	7.25975e-05
2	1	0	1	0	551.944	0.517957	0.517984	0.124081	3	0.227557	12	6.42719e-05
2	1	0	0	0	552.844	0.526959	0.526955	0.108142	3	0.227662	12	5.69861e-05
2	1	0	0	0	553.744	0.53596	0.535919	0.0946266	3	0.227754	12	5.07122e-05
2	1	0	1	0	554.644	0.544961	0.544904	0.0844163	3	0.227836	12	4.59988e-05
2	1	0	1	0	555.544	0.553961	0.5539	0.0770251	3	0.227909	12	4.26642e-05
2	1	0	0	0	556.444	0.562964	0.562895	0.0713794	3	0.227977	12	4.01791e-05
2	1	0	1	0	557.344	0.571965	0.571879	0.0683046	3	0.228041	12	3.9062e-05
2	1	0	1	0	558.244	0.580966	0.580931	0.0684384	3	0.228103	12	3.97579e-05
2	1	0	0	0	559.145	0.589967	0.589899	0.0733004	3	0.228168	12	4.32398e-05
2	1	0	1	0	560.045	0.598969	0.598922	0.084574	3	0.22824	12	5.06532e-05
2	1	0	1	0	560.945	0.60797	0.607951	0.0949665	3	0.228322	12	5.7735e-05
2	1	0	0	0	561.845	0.616971	0.616979	0.0939855	3	0.228409	12	5.7987e-05
2	1	0	1	0	562.745	0.625972	0.625922	0.0910858	3	0.228493	12	5.70126e-05
2	1	0	1	0	563.645	0.634974	0.634956	0.0934602	3	0.228577	12	5.93431e-05
2	1	0	0	0	564.545	0.643975	0.644035	0.102894	3	0.228666	12	6.62671e-05
2	1	0	1	0	565.445	0.652977	0.652936	0.118494	3	0.228766	12	7.7369e-05
2	1	0	1	0	566.346	0.661978	0.662	0.139868	3	0.228883	12	9.25926e-05
2	1	0	0	0	567.246	0.670979	0.671056	0.167149	3	0.229023	12	0.000112166
2	1	0	0	0	568.146	0.67998	0.679909	0.199548	3	0.229188	12	0.000135675
2	1	0	1	0	569.046	0.688981	0.689076	0.23622	3	0.229385	12	0.000162773
2	1	0	0	0	569.946	0.697983	0.698041	0.277531	3	0.229617	12	0.000193728
2	1	0	0	0	570.846	0.706984	0.706996	0.324115	3	0.229889	12	0.000229148
2	1	0	1	0	571.746	0.715985	0.715933	0.376703	3	0.230205	12	0.000269694
2	1	0	1	0	572.646	0.724986	0.724918	0.435114	3	0.230571	12	0.000315422
2	1	0	0	0	573.547	0.733988	0.733975	0.498811	3	0.230992	12	0.000366114
2	1	0	1	0	574.447	0.742989	0.742977	0.567448	3	0.231473	12	0.0004216
2	1	0	1	0	575.347	0.75199	0.751843	0.640546	3	0.232018	12	0.00048159
2	1	0	0	0	576.247	0.760991	0.761011	0.718053	3	0.23263	12	0.000546446
2	1	0	1	0	577.147	0.769993	0.770014	0.800499	3	0.233315	12	0.000616396
2	1	0	1	0	578.047	0.778994	0.778999	0.887088	3	0.234075	12	0.000691041
2	1	0	0	0	578.947	0.787995	0.787961	0.978744	3	0.234916	12	0.000771212
2	1	0	1	0	579.848	0.796996	0.797143	1.07547	3	0.235841	12	0.000857302
2	1	0	1	0	580.778	0.806298	0.80635	1.17836	3	0.23689	11	0.000950171
2	1	0	0	0	581.678	0.815299	0.815299	1.2856	3	0.238	11	0.00104815
2	1	0	1	0	582.578	0.8243	0.824354	1.39989	3	0.239209	11	0.00115401
2	1	0	1	0	583.478	0.833301	0.833223	1.51846	3	0.240523	11	0.00126521
2	1	0	0	0	584.378	0.842303	0.842399	1.64225	3	0.241947	11	0.00138343
2	1	0	0	0	585.278	0.851304	0.851396	1.77215	3	0.243485	11	0.0015088
2	1	0	1	0	586.178	0.860305	0.860282	1.90833	3	0.245142	11	0.00164171
2	1	0	0	0	587.079	0.869306	0.869418	2.04926	3	0.246924	11	0.00178166
2	1	0	0	0	587.979	0.878308	0.878484	2.18935	3	0.248831	11	0.0019233
2	1	0	1	0	588.879	0.887309	0.887423	2.33651	3	0.250868	11	0.00207347
2	1	0	0	0	589.779	0.89631	0.896405	2.49087	3	0.253041	11	0.00223282
2	1	0	0	0	590.679	0.905312	0.905428	2.64978	3	0.255356	11	0.00239918
2	1	0	1	0	591.579	0.914313	0.914354	2.81284	3	0.257816	11	0.00257194
2	1	0	1	0	592.479	0.923314	0.923459	2.98161	3	0.260426	11	0.0027534
2	1	0	0	0	593.379	0.932315	0.932354	3.14389	3	0.263186	11	0.00293122
2	1	0	1	0	594.28	0.941317	0.941437	3.31132	3	0.266092	11	0.0031174
2	1	0	1	0	595.18	0.950318	0.950602	3.48266	3	0.269151	11	0.00331063
2	1	0	0	0	596.08	0.959319	0.959364	3.67198	3	0.272373	11	0.00352277
2	1	0	1	0	596.98	0.96832	0.968349	3.85757	3	0.275762	11	0.00373547
2	1	0	1	0	597.88	0.977322	0.977507	4.02543	3	0.279313	11	0.00393488
2	1	0	0	0	598.78	0.986323	0.986454	4.20045	3	0.283016	11	0.00414355
2	1	0	1	0	599.68	0.995324	0.995412	4.37414	3	0.286877	11	0.00435408
2	1	0	1	0	600.401	0.997424	0.997454	4.36163	3	0.290059	11	0.00435052
2	1	0	0	0	601.301	0.988423	0.988389	4.04455	3	0.293835	11	0.00399758
2	1	0	1	0	602.201	0.979422	0.979364	3.78173	3	0.297352	11	0.00370369
2	1	0	1	0	603.101	0.970421	0.970359	3.5378	3	0.300643	11	0.00343294
2	1	0	0	0	604.001	0.961419	0.961401	3.31712	3	0.303726	11	0.00318908
2	1	0	1	0	604.902	0.952418	0.952459	3.11053	3	0.306615	11	0.00296265
2	1	0	1	0	605.802	0.943417	0.943406	2.91235	3	0.309321	11	0.00274753
2	1	0	0	0	606.702	0.934416	0.934455	2.72489	3	0.311856	11	0.00254628
2	1	0	0	0	607.602	0.925414	0.925496	2.54779	3	0.314226	11	0.00235797
2	1	0	1	0	608.502	0.916413	0.916465	2.37721	3	0.316441	11	0.00217863
2	1	0	0	0	609.402	0.907412	0.907438	2.2192	3	0.318508	11	0.00201379
2	1	0	0	0	610.302	0.898411	0.898483	2.06858	3	0.320436	11	0.00185859
2	1	0	1	0	611.202	0.889409	0.889358	1.9239	3	0.322231	11	0.00171103
2	1	0	0	0	612.103	0.880408	0.880522	1.78601	3	0.323899	11	0.00157262
2	1	0	0	0	613.003	0.871407	0.871537	1.65503	3	0.325446	11	0.00144242
2	1	0	1	0	613.903	0.862406	0.862408	1.53137	3	0.326878	11	0.00132066
2	1	0	1	0	614.803	0.853404	0.853456	1.41465	3	0.328202	11	0.00120734
2	1	0	0	0	615.703	0.844403	0.844459	1.30489	3	0.329425	11	0.00110192
2	1	0	1	0	616.603	0.835402	0.835479	1.20335	3	0.330551	11	0.00100537
2	1	0	1	0	617.503	0.8264	0.826454	1.10516	3	0.331588	11	0.000913367
2	1	0	0	0	618.403	0.817399	0.817387	1.01192	3	0.33254	11	0.000827127
2	1	0	1	0	619.304	0.808398	0.808328	0.926245	3	0.333411	11	0.00074871
2	1	0	1	0	620.204	0.799397	0.799394	0.844787	3	0.334207	11	0.000675317
2	1	0	0	0	621.104	0.790396	0.790319	0.76879	3	0.334932	11	0.000607589
2	1	0	1	0	622.004	0.781395	0.781365	0.697837	3	0.33559	11	0.000545266
2	1	0	1	0	622.904	0.772393	0.772302	0.630672	3	0.336186	11	0.00048707
2	1	0	0	0	623.804	0.763392	0.763322	0.567835	3	0.336725	11	0.000433441
2	1	0	0	0	624.704	0.75439	0.754338	0.508753	3	0.337208	11	0.000383771
2	1	0	1	0	625.619	0.745239	0.745182	0.450675	3	0.337646	11	0.000335835
2	1	0	0	0	626.535	0.736088	0.735983	0.399572	3	0.338034	12	0.000294078
2	1	0	0	0	627.435	0.727087	0.727	0.350562	3	0.338371	12	0.000254858
2	1	0	1	0	628.335	0.718085	0.718022	0.304523	3	0.338664	12	0.000218654
2	1	0	0	0	629.235	0.709084	0.709012	0.261694	3	0.338917	12	0.000185544
2	1	0	0	0	630.135	0.700083	0.700022	0.22238	3	0.339134	12	0.000155671
2	1	0	1	0	631.035	0.691082	0.691104	0.186271	3	0.339317	12	0.000128732
2	1	0	1	0	631.935	0.68208	0.682043	0.153895	3	0.339468	12	0.000104963
2	1	0	0	0	632.835	0.673079	0.672966	0.125142	3	0.339592	12	8.42166e-05
2	1	0	1	0	633.736	0.664078	0.664013	0.0999455	3	0.339692	12	6.63651e-05
2	1	0	1	0	634.636	0.655077	0.655048	0.0784641	3	0.339771	12	5.13978e-05
2	1	0	0	0	635.536	0.646075	0.645955	0.0603008	3	0.339832	12	3.89516e-05
2	1	0	1	0	636.466	0.636774	0.636727	0.0450356	3	0.33988	13	2.86754e-05
2	1	0	1	0	637.366	0.627773	0.627686	0.0330533	3	0.339914	13	2.07471e-05
2	1	0	0	0	638.266	0.618771	0.618735	0.0234678	3	0.339938	13	1.45203e-05
2	1	0	1	0	639.166	0.60977	0.609727	0.0158445	3	0.339955	13	9.6608e-06
2	1	0	1	0	640.066	0.600769	0.600677	0.00988181	3	0.339965	13	5.93578e-06
2	1	0	0	0	640.967	0.591768	0.591616	0.00511989	3	0.339971	13	3.02901e-06
2	1	0	0	0	641.867	0.582766	0.582708	0.00136188	3	0.339972	13	7.93579e-07
2	1	0	1	0	642.767	0.573765	0.573737	-0.00170481	3	0.339971	13	-9.78113e-07
2	1	0	0	0	643.667	0.564764	0.564684	-0.00430309	3	0.339967	13	-2.42989e-06
2	1	0	0	0	644.567	0.555763	0.555756	-0.00660008	3	0.339961	13	-3.66803e-06
2	1	0	1	0	645.467	0.546761	0.546642	-0.00872009	3	0.339953	13	-4.76677e-06
2	1	0	0	0	646.367	0.53776	0.537686	-0.0107405	3	0.339944	13	-5.775e-06
2	0	0	0	0	647.267	0.528759	0.528725	-0.0124251	3	0.339932	13	-6.56948e-06
2	0	0	1	0	648.168	0.519758	0.519679	-0.0142434	3	0.339919	13	-7.402e-06
2	0	0	1	0	649.068	0.510756	0.510666	-0.0158122	3	0.339904	13	-8.07476e-06
2	0	0	0	0	649.968	0.501755	0.501657	-0.0172153	3	0.339888	13	-8.63619e-06
2	0	0	1	0	650.868	0.492754	0.492674	-0.0187376	3	0.339871	13	-9.23153e-06
2	0	0	1	0	651.768	0.483753	0.483665	-0.0200301	3	0.339853	13	-9.68789e-06
2	0	0	0	0	652.668	0.474751	0.474647	-0.0213652	3	0.339833	13	-1.01409e-05
2	0	0	1	0	653.568	0.46575	0.465616	-0.0228091	3	0.339812	13	-1.06203e-05
2	0	0	1	0	654.468	0.456749	0.456602	-0.0243574	3	0.33979	13	-1.11216e-05
2	0	0	0	0	655.369	0.447748	0.447671	-0.0261142	3	0.339766	13	-1.16906e-05
2	0	0	1	0	656.269	0.438746	0.438617	-0.0278158	3	0.339741	13	-1.22005e-05
2	0	0	1	0	657.169	0.429745	0.42958	-0.029987	3	0.339714	13	-1.28818e-05
2	0	0	0	0	658.069	0.420744	0.420554	-0.0327462	3	0.339685	13	-1.37715e-05
2	0	0	0	0	658.969	0.411743	0.411545	-0.0360798	3	0.339653	13	-1.48485e-05
2	0	0	1	0	659.869	0.402741	0.402641	-0.0411003	3	0.339617	13	-1.65486e-05
2	0	0	0	0	660.769	0.39374	0.393505	-0.0483183	3	0.339577	13	-1.90135e-05
2	0	0	0	0	661.669	0.384739	0.384564	-0.0591068	3	0.339528	13	-2.27303e-05
2	0	0	1	0	662.57	0.375737	0.375614	-0.0753812	3	0.339466	13	-2.83142e-05
2	0	0	0	0	663.485	0.366586	0.36651	-0.0982245	3	0.339386	13	-3.60002e-05
2	0	0	0	0	664.4	0.357435	0.357265	-0.158577	3	0.339271	12	-5.66541e-05
2	0	0	1	0	665.3	0.348434	0.348308	-0.221686	3	0.339095	12	-7.72148e-05
2	0	0	1	0	666.2	0.339433	0.339302	-0.225303	3	0.338889	12	-7.64459e-05
2	0	0	0	0	667.1	0.330431	0.330326	-0.201581	3	0.338696	12	-6.65875e-05
2	0	0	1	0	668	0.32143	0.32125	-0.172638	3	0.338526	12	-5.54598e-05
2	0	0	1	0	668.9	0.312429	0.312279	-0.14265	3	0.338384	12	-4.45467e-05
2	0	0	0	0	669.801	0.303427	0.303248	-0.112871	3	0.338269	12	-3.4228e-05
2	0	0	1	0	670.701	0.294426	0.294323	-0.0837152	3	0.33818	12	-2.46393e-05
2	0	0	1	0	671.601	0.285425	0.285298	-0.0651867	3	0.338114	12	-1.85976e-05
2	0	0	0	0	672.501	0.276424	0.276195	-0.0537759	3	0.33806	12	-1.48526e-05
2	0	0	1	0	673.431	0.267122	0.266945	-0.0434339	3	0.338014	13	-1.15944e-05
2	0	0	1	0	674.331	0.258121	0.257882	-0.0358511	3	0.337979	13	-9.24536e-06
2	0	0	0	0	675.231	0.24912	0.248946	-0.0306226	3	0.337949	13	-7.62339e-06
2	0	0	1	0	676.131	0.240118	0.239952	-0.0266367	3	0.337923	13	-6.39152e-06
2	0	0	1	0	677.032	0.231117	0.230918	-0.0235343	3	0.3379	13	-5.4345e-06
2	0	0	0	0	677.932	0.222116	0.22192	-0.0212705	3	0.337879	13	-4.72036e-06
2	0	0	0	0	678.832	0.213115	0.212979	-0.0193908	3	0.337861	13	-4.12982e-06
2	0	0	1	0	679.732	0.204114	0.203946	-0.017882	3	0.337844	13	-3.64697e-06
2	0	0	0	0	680.632	0.195112	0.194979	-0.0166638	3	0.337828	13	-3.24909e-06
2	0	0	0	0	681.532	0.186111	0.186	-0.0155534	3	0.337814	13	-2.89294e-06
2	0	0	1	0	682.432	0.17711	0.176992	-0.0145125	3	0.3378	13	-2.56859e-06
2	0	0	1	0	683.332	0.168109	0.167911	-0.0135465	3	0.337787	13	-2.27462e-06
2	0	0	0	0	684.233	0.159107	0.158933	-0.0126823	3	0.337775	13	-2.01564e-06
2	0	0	1	0	685.133	0.150106	0.149982	-0.0120522	3	0.337764	13	-1.80761e-06
2	0	0	1	0	686.033	0.141105	0.140942	-0.011522	3	0.337753	13	-1.62393e-06
2	0	0	0	0	686.933	0.132103	0.132058	-0.0110912	3	0.337743	13	-1.46469e-06
2	0	0	1	0	687.833	0.123102	0.122945	-0.0107334	3	0.337733	13	-1.31962e-06
2	0	0	1	0	688.733	0.114101	0.113904	-0.010288	3	0.337723	13	-1.17185e-06
2	0	0	0	0	689.633	0.1051	0.104965	-0.00987795	3	0.337714	13	-1.03684e-06
2	0	0	1	0	690.534	0.0960984	0.0959002	-0.0094644	3	0.337705	13	-9.07639e-07
2	0	0	1	0	691.434	0.0870972	0.0869227	-0.0090596	3	0.337697	13	-7.87485e-07
2	0	0	0	0	692.334	0.0780959	0.0780397	-0.00872961	3	0.337688	13	-6.81257e-07
2	0	0	0	0	693.234	0.0690946	0.0689529	-0.0084202	3	0.337681	13	-5.80598e-07
2	0	0	1	0	694.134	0.0600934	0.0599712	-0.00817361	3	0.337673	13	-4.90181e-07
2	0	0	0	0	695.034	0.0510921	0.0509374	-0.00794022	3	0.337666	13	-4.04454e-07
2	0	0	0	0	695.934	0.0420909	0.0420841	-0.00773987	3	0.337658	13	-3.25725e-07
2	0	0	1	0	696.834	0.0330896	0.0329421	-0.00760166	3	0.337651	13	-2.50415e-07
2	0	0	0	0	697.735	0.0240883	0.0239254	-0.00746685	3	0.337645	13	-1.78647e-07
2	0	0	0	0	698.635	0.0150871	0.0150275	-0.00727535	3	0.337638	13	-1.0933e-07
2	0	0	1	0	699.535	0.00608583	0.00591839	-0.00717551	3	0.337631	13	-4.24675e-08
2	0	0	0	1	700.139	3.49817e-05	-0.000383576	-0.00650412	3	0.337627	13	2.49482e-09