File: Data/2022_01_05 CoNx Ti electrode1 exp2_03_CP_C05.mpt
EC-Lab ASCII FILE
Nb header lines : 53

Chronopotentiometry

Run on channel : 5 (SN 30436)
User :
CE vs. WE compliance from -10 V to 10 V
Electrode connection : standard
Potential control : Ewe
Ewe ctrl range : min = -2.50 V, max = 2.50 V
Safety Limits :
	Do not start on E overload
Acquisition started on : 01/05/2023 12:05:41.627
Technique started on : 01/05/2023 12:16:32.448
Loaded Setting File :  C:\Users\grupogalan\Documents\EC-Lab\Data\Scott\2022_01_04 NiNx Ti electrode1 CV post tafel, bulk.mps
Saved on :
	File : 2022_01_05 CoNx Ti electrode1 exp2_03_CP_C05.mpr
	Directory : C:\Users\grupogalan\Documents\EC-Lab\Data\Scott\
	Host : 169.254.104.159
Device : VSP (SN 1176)
Address : USB
EC-Lab for windows v11.46 (software)
Internet server v11.40 (firmware)
Command interpretor v11.40 (firmware)
Electrode material :
Initial state :
Electrolyte :
Comments :
Electrode surface area : 0.000 cm²
Characteristic mass : 0.001 g
Equivalent Weight : 0.000 g/eq.
Density : 0.000 g/cm3
Volume (V) : 0.001 cm³
Cycle Definition : Charge/Discharge alternance
Is                  10.000
unit Is             mA
vs.                 <None>
ts (h:m:s)          2:00:0.0000
EM (V)              pass
dQM                 20.000
unit dQM            mA.h
record              <Ewe>
dEs (mV)            0.00
dts (s)             1.0000
E range min (V)     -2.500
E range max (V)     2.500
I Range             10 mA
Bandwidth           5
goto Ns'            0
nc cycles           0

mode	ox/red	error	control changes	Ns changes	counter inc.	Ns	time/s	control/mA	<Ewe>/V	I/mA	dQ/C	(Q-Qo)/C	half cycle	Q charge/discharge/mA.h	I Range	Energy charge/W.h	Energy discharge/W.h	Capacitance charge/µF	Capacitance discharge/µF	Q discharge/mA.h	Q charge/mA.h	Capacity/mA.h	Efficiency/%	cycle number	P/W
1	1	0	1	0	0	0	650.821	10	0.831014	9.99951	0.00947513	0.00947513	0	0.00263198	11	2.18721e-06	0.000000000000000E+000	0.000000000000000E+000	0.000000000000000E+000	0.000000000000000E+000	0.00263198	0.00263198	0.0000000E+000	0.000000000000000E+000	0.00830974
1	1	0	1	0	0	0	683.821	10	0.839198	9.99906	0.339444	0.339444	0	0.09429	11	7.91257e-05	0.000000000000000E+000	4.1478e+07	0.000000000000000E+000	0.000000000000000E+000	0.09429	0.09429	0.0000000E+000	0.000000000000000E+000	0.0083912
1	1	0	1	0	0	0	716.821	10	0.839206	9.99957	0.669411	0.669411	0	0.185948	11	0.000156046	0.000000000000000E+000	8.17229e+07	0.000000000000000E+000	0.000000000000000E+000	0.185948	0.185948	0.0000000E+000	0.000000000000000E+000	0.0083917
1	1	0	1	0	0	0	749.821	10	0.839172	9.99957	0.999378	0.999378	0	0.277605	11	0.000232965	0.000000000000000E+000	1.22515e+08	0.000000000000000E+000	0.000000000000000E+000	0.277605	0.277605	0.0000000E+000	0.000000000000000E+000	0.00839136
1	1	0	1	0	0	0	782.821	10	0.839287	9.99932	1.32934	1.32934	0	0.369262	11	0.000309886	0.000000000000000E+000	1.60696e+08	0.000000000000000E+000	0.000000000000000E+000	0.369262	0.369262	0.0000000E+000	0.000000000000000E+000	0.0083923
1	1	0	1	0	0	0	815.821	10	0.839553	9.99875	1.65931	1.65931	0	0.46092	11	0.000386816	0.000000000000000E+000	1.94321e+08	0.000000000000000E+000	0.000000000000000E+000	0.46092	0.46092	0.0000000E+000	0.000000000000000E+000	0.00839448
1	1	0	1	0	0	0	848.821	10	0.839405	9.99887	1.98928	1.98928	0	0.552577	11	0.000463771	0.000000000000000E+000	2.37096e+08	0.000000000000000E+000	0.000000000000000E+000	0.552577	0.552577	0.0000000E+000	0.000000000000000E+000	0.0083931
1	1	0	1	0	0	0	881.821	10	0.839134	9.99856	2.31924	2.31924	0	0.644234	11	0.000540691	0.000000000000000E+000	2.8565e+08	0.000000000000000E+000	0.000000000000000E+000	0.644234	0.644234	0.0000000E+000	0.000000000000000E+000	0.00839012
1	1	0	1	0	0	0	914.821	10	0.839027	9.99836	2.64921	2.64921	0	0.735891	11	0.0006176	0.000000000000000E+000	3.30613e+08	0.000000000000000E+000	0.000000000000000E+000	0.735891	0.735891	0.0000000E+000	0.000000000000000E+000	0.0083889
1	1	0	1	0	0	0	947.821	10	0.838625	9.99856	2.97917	2.97917	0	0.827548	11	0.000694483	0.000000000000000E+000	3.91465e+08	0.000000000000000E+000	0.000000000000000E+000	0.827548	0.827548	0.0000000E+000	0.000000000000000E+000	0.00838504
1	1	0	1	0	0	0	980.821	10	0.838468	9.99926	3.30914	3.30914	0	0.919205	11	0.000771334	0.000000000000000E+000	4.43957e+08	0.000000000000000E+000	0.000000000000000E+000	0.919205	0.919205	0.0000000E+000	0.000000000000000E+000	0.00838406
1	1	0	1	0	0	0	1013.82	10	0.838037	9.99792	3.6391	3.6391	0	1.01086	11	0.000848162	0.000000000000000E+000	5.18193e+08	0.000000000000000E+000	0.000000000000000E+000	1.01086	1.01086	0.0000000E+000	0.000000000000000E+000	0.00837863
1	1	0	1	0	0	0	1046.82	10	0.83784	9.99887	3.96907	3.96907	0	1.10252	11	0.000924957	0.000000000000000E+000	5.81535e+08	0.000000000000000E+000	0.000000000000000E+000	1.10252	1.10252	0.0000000E+000	0.000000000000000E+000	0.00837745
1	1	0	1	0	0	0	1079.82	10	0.837464	10	4.29903	4.29903	0	1.19418	11	0.00100173	0.000000000000000E+000	6.66603e+08	0.000000000000000E+000	0.000000000000000E+000	1.19418	1.19418	0.0000000E+000	0.000000000000000E+000	0.00837465
1	1	0	1	0	0	0	1112.82	10	0.837363	9.99875	4.629	4.629	0	1.28583	11	0.00107849	0.000000000000000E+000	7.29163e+08	0.000000000000000E+000	0.000000000000000E+000	1.28583	1.28583	0.0000000E+000	0.000000000000000E+000	0.00837258
1	1	0	1	0	0	0	1145.82	10	0.837012	9.999	4.95896	4.95896	0	1.37749	11	0.00115523	0.000000000000000E+000	8.26866e+08	0.000000000000000E+000	0.000000000000000E+000	1.37749	1.37749	0.0000000E+000	0.000000000000000E+000	0.00836928
1	1	0	1	0	0	0	1178.82	10	0.836767	9.99894	5.28893	5.28893	0	1.46915	11	0.00123194	0.000000000000000E+000	9.19432e+08	0.000000000000000E+000	0.000000000000000E+000	1.46915	1.46915	0.0000000E+000	0.000000000000000E+000	0.00836678
1	1	0	1	0	0	0	1211.82	10	0.836606	9.99926	5.61889	5.61889	0	1.5608	11	0.00130862	0.000000000000000E+000	1.00482e+09	0.000000000000000E+000	0.000000000000000E+000	1.5608	1.5608	0.0000000E+000	0.000000000000000E+000	0.00836544
1	1	0	1	0	0	0	1244.82	10	0.836181	9.99817	5.94886	5.94886	0	1.65246	11	0.00138526	0.000000000000000E+000	1.15133e+09	0.000000000000000E+000	0.000000000000000E+000	1.65246	1.65246	0.0000000E+000	0.000000000000000E+000	0.00836029
1	1	0	1	0	0	0	1277.82	10	0.835518	9.99919	6.27882	6.27882	0	1.74412	11	0.00146188	0.000000000000000E+000	1.39414e+09	0.000000000000000E+000	0.000000000000000E+000	1.74412	1.74412	0.0000000E+000	0.000000000000000E+000	0.00835451
1	1	0	1	0	0	0	1310.82	10	0.835328	9.99919	6.60878	6.60878	0	1.83577	11	0.00153846	0.000000000000000E+000	1.53206e+09	0.000000000000000E+000	0.000000000000000E+000	1.83577	1.83577	0.0000000E+000	0.000000000000000E+000	0.00835261
1	1	0	1	0	0	0	1343.82	10	0.835038	9.99887	6.93875	6.93875	0	1.92743	11	0.00161501	0.000000000000000E+000	1.72453e+09	0.000000000000000E+000	0.000000000000000E+000	1.92743	1.92743	0.0000000E+000	0.000000000000000E+000	0.00834944
1	1	0	1	0	0	0	1376.82	10	0.835156	9.99894	7.26871	7.26871	0	2.01909	11	0.00169156	0.000000000000000E+000	1.75491e+09	0.000000000000000E+000	0.000000000000000E+000	2.01909	2.01909	0.0000000E+000	0.000000000000000E+000	0.00835068
1	1	0	1	0	0	0	1409.82	10	0.834315	9.99887	7.59868	7.59868	0	2.11074	11	0.00176809	0.000000000000000E+000	2.30241e+09	0.000000000000000E+000	0.000000000000000E+000	2.11074	2.11074	0.0000000E+000	0.000000000000000E+000	0.00834221
1	1	0	1	0	0	0	1442.82	10	0.834392	9.99875	7.92864	7.92864	0	2.2024	11	0.00184456	0.000000000000000E+000	2.34728e+09	0.000000000000000E+000	0.000000000000000E+000	2.2024	2.2024	0.0000000E+000	0.000000000000000E+000	0.00834288
1	1	0	1	0	0	0	1475.82	10	0.83401	9.99932	8.2586	8.2586	0	2.29406	11	0.00192102	0.000000000000000E+000	2.75696e+09	0.000000000000000E+000	0.000000000000000E+000	2.29406	2.29406	0.0000000E+000	0.000000000000000E+000	0.00833953
1	1	0	1	0	0	0	1508.82	10	0.833656	9.99926	8.58857	8.58857	0	2.38571	11	0.00199745	0.000000000000000E+000	3.25184e+09	0.000000000000000E+000	0.000000000000000E+000	2.38571	2.38571	0.0000000E+000	0.000000000000000E+000	0.00833593
1	1	0	1	0	0	0	1541.82	10	0.833512	9.99868	8.91853	8.91853	0	2.47737	11	0.00207386	0.000000000000000E+000	3.5715e+09	0.000000000000000E+000	0.000000000000000E+000	2.47737	2.47737	0.0000000E+000	0.000000000000000E+000	0.00833402
1	1	0	1	0	0	0	1574.82	10	0.833405	9.99894	9.2485	9.2485	0	2.56903	11	0.00215025	0.000000000000000E+000	3.86952e+09	0.000000000000000E+000	0.000000000000000E+000	2.56903	2.56903	0.0000000E+000	0.000000000000000E+000	0.00833316
1	1	0	1	0	0	0	1607.82	10	0.833009	9.99856	9.57846	9.57846	0	2.66068	11	0.00222662	0.000000000000000E+000	4.8016e+09	0.000000000000000E+000	0.000000000000000E+000	2.66068	2.66068	0.0000000E+000	0.000000000000000E+000	0.00832889
1	1	0	1	0	0	0	1640.82	10	0.832762	9.99811	9.90842	9.90842	0	2.75234	11	0.00230295	0.000000000000000E+000	5.67106e+09	0.000000000000000E+000	0.000000000000000E+000	2.75234	2.75234	0.0000000E+000	0.000000000000000E+000	0.00832604
1	1	0	1	0	0	0	1673.82	10	0.832166	9.99836	10.2384	10.2384	0	2.844	11	0.00237925	0.000000000000000E+000	8.88995e+09	0.000000000000000E+000	0.000000000000000E+000	2.844	2.844	0.0000000E+000	0.000000000000000E+000	0.0083203
1	1	0	1	0	0	0	1706.82	10	0.83211	9.9997	10.5684	10.5684	0	2.93565	11	0.00245553	0.000000000000000E+000	9.64466e+09	0.000000000000000E+000	0.000000000000000E+000	2.93565	2.93565	0.0000000E+000	0.000000000000000E+000	0.00832085
1	1	0	1	0	0	0	1739.82	10	0.83202	9.99817	10.8983	10.8983	0	3.02731	11	0.00253179	0.000000000000000E+000	1.08332e+10	0.000000000000000E+000	0.000000000000000E+000	3.02731	3.02731	0.0000000E+000	0.000000000000000E+000	0.00831868
1	1	0	1	0	0	0	1772.82	10	0.831543	9.99945	11.2283	11.2283	0	3.11897	11	0.00260804	0.000000000000000E+000	2.12402e+10	0.000000000000000E+000	0.000000000000000E+000	3.11897	3.11897	0.0000000E+000	0.000000000000000E+000	0.00831497
1	1	0	1	0	0	0	1805.82	10	0.831537	9.99875	11.5582	11.5582	0	3.21062	11	0.00268426	0.000000000000000E+000	2.21238e+10	0.000000000000000E+000	0.000000000000000E+000	3.21062	3.21062	0.0000000E+000	0.000000000000000E+000	0.00831433
1	1	0	1	0	0	0	1838.82	10	0.831499	9.99881	11.8882	11.8882	0	3.30228	11	0.00276047	0.000000000000000E+000	2.45569e+10	0.000000000000000E+000	0.000000000000000E+000	3.30228	3.30228	0.0000000E+000	0.000000000000000E+000	0.008314
1	1	0	1	0	0	0	1871.82	10	0.830935	9.99881	12.2182	12.2182	0	3.39393	11	0.00283664	0.000000000000000E+000	1.54707e+11	0.000000000000000E+000	0.000000000000000E+000	3.39393	3.39393	0.0000000E+000	0.000000000000000E+000	0.00830837
1	1	0	1	0	0	0	1904.82	10	0.830604	9.99887	12.5481	12.5481	0	3.48559	11	0.0029128	0.000000000000000E+000	3.05459e+10	0.000000000000000E+000	0.000000000000000E+000	3.48559	3.48559	0.0000000E+000	0.000000000000000E+000	0.0083051
1	1	0	1	0	0	0	1937.82	10	0.830579	9.99976	12.8781	12.8781	0	3.57725	11	0.00298893	0.000000000000000E+000	2.95525e+10	0.000000000000000E+000	0.000000000000000E+000	3.57725	3.57725	0.0000000E+000	0.000000000000000E+000	0.00830559
1	1	0	1	0	0	0	1970.82	10	0.830296	9.99875	13.2081	13.2081	0	3.6689	11	0.00306504	0.000000000000000E+000	1.83728e+10	0.000000000000000E+000	0.000000000000000E+000	3.6689	3.6689	0.0000000E+000	0.000000000000000E+000	0.00830191
1	1	0	1	0	0	0	2003.82	10	0.830056	9.99919	13.538	13.538	0	3.76056	11	0.00314113	0.000000000000000E+000	1.4132e+10	0.000000000000000E+000	0.000000000000000E+000	3.76056	3.76056	0.0000000E+000	0.000000000000000E+000	0.00829989
1	1	0	1	0	0	0	2036.82	10	0.829758	9.99875	13.868	13.868	0	3.85222	11	0.00321721	0.000000000000000E+000	1.10347e+10	0.000000000000000E+000	0.000000000000000E+000	3.85222	3.85222	0.0000000E+000	0.000000000000000E+000	0.00829654
1	1	0	1	0	0	0	2069.82	10	0.829633	9.99951	14.1979	14.1979	0	3.94387	11	0.00329325	0.000000000000000E+000	1.02793e+10	0.000000000000000E+000	0.000000000000000E+000	3.94387	3.94387	0.0000000E+000	0.000000000000000E+000	0.00829593
1	1	0	1	0	0	0	2102.82	10	0.829323	9.99983	14.5279	14.5279	0	4.03553	11	0.00336927	0.000000000000000E+000	8.58807e+09	0.000000000000000E+000	0.000000000000000E+000	4.03553	4.03553	0.0000000E+000	0.000000000000000E+000	0.00829308
1	1	0	1	0	0	0	2135.82	10	0.82908	9.99856	14.8579	14.8579	0	4.12719	11	0.00344527	0.000000000000000E+000	7.68202e+09	0.000000000000000E+000	0.000000000000000E+000	4.12719	4.12719	0.0000000E+000	0.000000000000000E+000	0.00828961
1	1	0	1	0	0	0	2168.82	10	0.829139	9.9983	15.1878	15.1878	0	4.21884	11	0.00352127	0.000000000000000E+000	8.09948e+09	0.000000000000000E+000	0.000000000000000E+000	4.21884	4.21884	0.0000000E+000	0.000000000000000E+000	0.00828998
1	1	0	1	0	0	0	2201.82	10	0.828705	9.99932	15.5178	15.5178	0	4.3105	11	0.00359725	0.000000000000000E+000	6.71998e+09	0.000000000000000E+000	0.000000000000000E+000	4.3105	4.3105	0.0000000E+000	0.000000000000000E+000	0.00828649
1	1	0	1	0	0	0	2234.82	10	0.82847	9.99938	15.8478	15.8478	0	4.40216	11	0.00367319	0.000000000000000E+000	6.22761e+09	0.000000000000000E+000	0.000000000000000E+000	4.40216	4.40216	0.0000000E+000	0.000000000000000E+000	0.00828419
1	1	0	1	0	0	0	2267.82	10	0.828383	9.99951	16.1777	16.1777	0	4.49381	11	0.00374912	0.000000000000000E+000	6.14859e+09	0.000000000000000E+000	0.000000000000000E+000	4.49381	4.49381	0.0000000E+000	0.000000000000000E+000	0.00828343
1	1	0	1	0	0	0	2300.82	10	0.828202	9.99894	16.5077	16.5077	0	4.58547	11	0.00382503	0.000000000000000E+000	5.87051e+09	0.000000000000000E+000	0.000000000000000E+000	4.58547	4.58547	0.0000000E+000	0.000000000000000E+000	0.00828115
1	1	0	1	0	0	0	2333.82	10	0.827703	9.99798	16.8377	16.8377	0	4.67713	11	0.00390093	0.000000000000000E+000	5.08403e+09	0.000000000000000E+000	0.000000000000000E+000	4.67713	4.67713	0.0000000E+000	0.000000000000000E+000	0.00827536
1	1	0	1	0	0	0	2366.82	10	0.827675	9.99836	17.1676	17.1676	0	4.76878	11	0.0039768	0.000000000000000E+000	5.14018e+09	0.000000000000000E+000	0.000000000000000E+000	4.76878	4.76878	0.0000000E+000	0.000000000000000E+000	0.00827539
1	1	0	1	0	0	0	2399.82	10	0.827578	9.99951	17.4976	17.4976	0	4.86044	11	0.00405265	0.000000000000000E+000	5.09203e+09	0.000000000000000E+000	0.000000000000000E+000	4.86044	4.86044	0.0000000E+000	0.000000000000000E+000	0.00827538
1	1	0	1	0	0	0	2432.82	10	0.827509	9.99894	17.8276	17.8276	0	4.9521	11	0.0041285	0.000000000000000E+000	5.08573e+09	0.000000000000000E+000	0.000000000000000E+000	4.9521	4.9521	0.0000000E+000	0.000000000000000E+000	0.00827421
1	1	0	1	0	0	0	2465.82	10	0.827264	9.99919	18.1575	18.1575	0	5.04376	11	0.00420433	0.000000000000000E+000	4.84143e+09	0.000000000000000E+000	0.000000000000000E+000	5.04376	5.04376	0.0000000E+000	0.000000000000000E+000	0.00827197
1	1	0	1	0	0	0	2498.82	10	0.827158	9.99906	18.4875	18.4875	0	5.13541	11	0.00428014	0.000000000000000E+000	4.79425e+09	0.000000000000000E+000	0.000000000000000E+000	5.13541	5.13541	0.0000000E+000	0.000000000000000E+000	0.00827081
1	1	0	1	0	0	0	2531.82	10	0.826883	9.99945	18.8175	18.8175	0	5.22707	11	0.00435595	0.000000000000000E+000	4.55477e+09	0.000000000000000E+000	0.000000000000000E+000	5.22707	5.22707	0.0000000E+000	0.000000000000000E+000	0.00826837
1	1	0	1	0	0	0	2564.82	10	0.826659	9.99938	19.1474	19.1474	0	5.31873	11	0.00443174	0.000000000000000E+000	4.39586e+09	0.000000000000000E+000	0.000000000000000E+000	5.31873	5.31873	0.0000000E+000	0.000000000000000E+000	0.00826608
1	1	0	1	0	0	0	2597.82	10	0.826614	9.99817	19.4774	19.4774	0	5.41038	11	0.0045075	0.000000000000000E+000	4.4263e+09	0.000000000000000E+000	0.000000000000000E+000	5.41038	5.41038	0.0000000E+000	0.000000000000000E+000	0.00826463
1	1	0	1	0	0	0	2630.82	10	0.8263	9.99843	19.8073	19.8073	0	5.50204	11	0.00458325	0.000000000000000E+000	4.20164e+09	0.000000000000000E+000	0.000000000000000E+000	5.50204	5.50204	0.0000000E+000	0.000000000000000E+000	0.0082617
1	1	0	1	0	0	0	2663.82	10	0.826278	9.99906	20.1373	20.1373	0	5.5937	11	0.00465899	0.000000000000000E+000	4.25127e+09	0.000000000000000E+000	0.000000000000000E+000	5.5937	5.5937	0.0000000E+000	0.000000000000000E+000	0.008262
1	1	0	1	0	0	0	2696.82	10	0.826021	9.99926	20.4673	20.4673	0	5.68535	11	0.00473471	0.000000000000000E+000	4.09864e+09	0.000000000000000E+000	0.000000000000000E+000	5.68535	5.68535	0.0000000E+000	0.000000000000000E+000	0.00825959
1	1	0	1	0	0	0	2729.82	10	0.825904	9.99887	20.7972	20.7972	0	5.77701	11	0.00481042	0.000000000000000E+000	4.06937e+09	0.000000000000000E+000	0.000000000000000E+000	5.77701	5.77701	0.0000000E+000	0.000000000000000E+000	0.00825811
1	1	0	1	0	0	0	2762.82	10	0.825738	9.99881	21.1272	21.1272	0	5.86867	11	0.00488612	0.000000000000000E+000	4.00379e+09	0.000000000000000E+000	0.000000000000000E+000	5.86867	5.86867	0.0000000E+000	0.000000000000000E+000	0.00825639
1	1	0	1	0	0	0	2795.82	10	0.825492	9.99881	21.4572	21.4572	0	5.96033	11	0.0049618	0.000000000000000E+000	3.88512e+09	0.000000000000000E+000	0.000000000000000E+000	5.96033	5.96033	0.0000000E+000	0.000000000000000E+000	0.00825393
1	1	0	1	0	0	0	2828.82	10	0.825397	9.99983	21.7871	21.7871	0	6.05198	11	0.00503746	0.000000000000000E+000	3.87815e+09	0.000000000000000E+000	0.000000000000000E+000	6.05198	6.05198	0.0000000E+000	0.000000000000000E+000	0.00825382
1	1	0	1	0	0	0	2861.82	10	0.825361	9.99938	22.1171	22.1171	0	6.14364	11	0.00511312	0.000000000000000E+000	3.91207e+09	0.000000000000000E+000	0.000000000000000E+000	6.14364	6.14364	0.0000000E+000	0.000000000000000E+000	0.0082531
1	1	0	1	0	0	0	2894.82	10	0.825169	9.99862	22.4471	22.4471	0	6.2353	11	0.00518876	0.000000000000000E+000	3.83991e+09	0.000000000000000E+000	0.000000000000000E+000	6.2353	6.2353	0.0000000E+000	0.000000000000000E+000	0.00825055
1	1	0	1	0	0	0	2927.82	10	0.825004	9.99875	22.777	22.777	0	6.32696	11	0.00526439	0.000000000000000E+000	3.78948e+09	0.000000000000000E+000	0.000000000000000E+000	6.32696	6.32696	0.0000000E+000	0.000000000000000E+000	0.008249
1	1	0	1	0	0	0	2960.82	10	0.824845	9.99976	23.107	23.107	0	6.41861	11	0.00534	0.000000000000000E+000	3.74562e+09	0.000000000000000E+000	0.000000000000000E+000	6.41861	6.41861	0.0000000E+000	0.000000000000000E+000	0.00824826
1	1	0	1	0	0	0	2993.82	10	0.824681	9.99964	23.437	23.437	0	6.51027	11	0.00541559	0.000000000000000E+000	3.70032e+09	0.000000000000000E+000	0.000000000000000E+000	6.51027	6.51027	0.0000000E+000	0.000000000000000E+000	0.00824651
1	1	0	1	0	0	0	3026.82	10	0.824697	9.99843	23.7669	23.7669	0	6.60193	11	0.00549119	0.000000000000000E+000	3.76187e+09	0.000000000000000E+000	0.000000000000000E+000	6.60193	6.60193	0.0000000E+000	0.000000000000000E+000	0.00824567
1	1	0	1	0	0	0	3059.82	10	0.824482	9.99843	24.0969	24.0969	0	6.69358	11	0.00556677	0.000000000000000E+000	3.68891e+09	0.000000000000000E+000	0.000000000000000E+000	6.69358	6.69358	0.0000000E+000	0.000000000000000E+000	0.00824353
1	1	0	1	0	0	0	3092.82	10	0.824542	9.99932	24.4269	24.4269	0	6.78524	11	0.00564235	0.000000000000000E+000	3.77417e+09	0.000000000000000E+000	0.000000000000000E+000	6.78524	6.78524	0.0000000E+000	0.000000000000000E+000	0.00824486
1	1	0	1	0	0	0	3125.82	10	0.824315	9.99932	24.7568	24.7568	0	6.8769	11	0.00571791	0.000000000000000E+000	3.69539e+09	0.000000000000000E+000	0.000000000000000E+000	6.8769	6.8769	0.0000000E+000	0.000000000000000E+000	0.00824259
1	1	0	1	0	0	0	3158.82	10	0.8243	9.99894	25.0868	25.0868	0	6.96856	11	0.00579347	0.000000000000000E+000	3.7361e+09	0.000000000000000E+000	0.000000000000000E+000	6.96856	6.96856	0.0000000E+000	0.000000000000000E+000	0.00824212
1	1	0	1	0	0	0	3191.82	10	0.823991	9.99906	25.4168	25.4168	0	7.06021	11	0.005869	0.000000000000000E+000	3.61903e+09	0.000000000000000E+000	0.000000000000000E+000	7.06021	7.06021	0.0000000E+000	0.000000000000000E+000	0.00823914
1	1	0	1	0	0	0	3224.82	10	0.823941	9.99919	25.7467	25.7467	0	7.15187	11	0.00594454	0.000000000000000E+000	3.63975e+09	0.000000000000000E+000	0.000000000000000E+000	7.15187	7.15187	0.0000000E+000	0.000000000000000E+000	0.00823874
1	1	0	1	0	0	0	3257.82	10	0.823809	9.99862	26.0767	26.0767	0	7.24353	11	0.00602004	0.000000000000000E+000	3.61928e+09	0.000000000000000E+000	0.000000000000000E+000	7.24353	7.24353	0.0000000E+000	0.000000000000000E+000	0.00823696
1	1	0	1	0	0	0	3290.82	10	0.823789	9.99881	26.4067	26.4067	0	7.33518	11	0.00609555	0.000000000000000E+000	3.65449e+09	0.000000000000000E+000	0.000000000000000E+000	7.33518	7.33518	0.0000000E+000	0.000000000000000E+000	0.00823691
1	1	0	1	0	0	0	3323.82	10	0.823611	9.99919	26.7366	26.7366	0	7.42684	11	0.00617105	0.000000000000000E+000	3.61156e+09	0.000000000000000E+000	0.000000000000000E+000	7.42684	7.42684	0.0000000E+000	0.000000000000000E+000	0.00823545
1	1	0	1	0	0	0	3356.82	10	0.823448	9.99856	27.0666	27.0666	0	7.5185	11	0.00624653	0.000000000000000E+000	3.57724e+09	0.000000000000000E+000	0.000000000000000E+000	7.5185	7.5185	0.0000000E+000	0.000000000000000E+000	0.00823329
1	1	0	1	0	0	0	3389.82	10	0.823474	9.99938	27.3966	27.3966	0	7.61015	11	0.006322	0.000000000000000E+000	3.63316e+09	0.000000000000000E+000	0.000000000000000E+000	7.61015	7.61015	0.0000000E+000	0.000000000000000E+000	0.00823423
1	1	0	1	0	0	0	3422.82	10	0.823243	9.99894	27.7265	27.7265	0	7.70181	11	0.00639747	0.000000000000000E+000	3.56791e+09	0.000000000000000E+000	0.000000000000000E+000	7.70181	7.70181	0.0000000E+000	0.000000000000000E+000	0.00823156
1	1	0	1	0	0	0	3455.82	10	0.823122	9.999	28.0565	28.0565	0	7.79347	11	0.00647292	0.000000000000000E+000	3.55467e+09	0.000000000000000E+000	0.000000000000000E+000	7.79347	7.79347	0.0000000E+000	0.000000000000000E+000	0.00823039
1	1	0	1	0	0	0	3488.82	10	0.822843	9.99926	28.3865	28.3865	0	7.88513	11	0.00654835	0.000000000000000E+000	3.47394e+09	0.000000000000000E+000	0.000000000000000E+000	7.88513	7.88513	0.0000000E+000	0.000000000000000E+000	0.00822782
1	1	0	1	0	0	0	3521.82	10	0.822883	9.99849	28.7164	28.7164	0	7.97678	11	0.00662377	0.000000000000000E+000	3.53163e+09	0.000000000000000E+000	0.000000000000000E+000	7.97678	7.97678	0.0000000E+000	0.000000000000000E+000	0.00822759
1	1	0	1	0	0	0	3554.82	10	0.82289	9.99843	29.0464	29.0464	0	8.06844	11	0.00669919	0.000000000000000E+000	3.57517e+09	0.000000000000000E+000	0.000000000000000E+000	8.06844	8.06844	0.0000000E+000	0.000000000000000E+000	0.00822761
1	1	0	1	0	0	0	3587.82	10	0.822624	9.99817	29.3763	29.3763	0	8.1601	11	0.00677461	0.000000000000000E+000	3.50135e+09	0.000000000000000E+000	0.000000000000000E+000	8.1601	8.1601	0.0000000E+000	0.000000000000000E+000	0.00822474
1	1	0	1	0	0	0	3620.82	10	0.822526	9.99913	29.7063	29.7063	0	8.25175	11	0.00685002	0.000000000000000E+000	3.49946e+09	0.000000000000000E+000	0.000000000000000E+000	8.25175	8.25175	0.0000000E+000	0.000000000000000E+000	0.00822454
1	1	0	1	0	0	0	3653.82	10	0.822433	9.99868	30.0363	30.0363	0	8.34341	11	0.00692541	0.000000000000000E+000	3.50016e+09	0.000000000000000E+000	0.000000000000000E+000	8.34341	8.34341	0.0000000E+000	0.000000000000000E+000	0.00822325
1	1	0	1	0	0	0	3686.82	10	0.822364	9.99964	30.3662	30.3662	0	8.43507	11	0.00700079	0.000000000000000E+000	3.51038e+09	0.000000000000000E+000	0.000000000000000E+000	8.43507	8.43507	0.0000000E+000	0.000000000000000E+000	0.00822334
1	1	0	1	0	0	0	3719.82	10	0.822291	9.999	30.6962	30.6962	0	8.52672	11	0.00707616	0.000000000000000E+000	3.51875e+09	0.000000000000000E+000	0.000000000000000E+000	8.52672	8.52672	0.0000000E+000	0.000000000000000E+000	0.00822209
1	1	0	1	0	0	0	3752.82	10	0.822128	9.999	31.0262	31.0262	0	8.61838	11	0.00715153	0.000000000000000E+000	3.49147e+09	0.000000000000000E+000	0.000000000000000E+000	8.61838	8.61838	0.0000000E+000	0.000000000000000E+000	0.00822046
1	1	0	1	0	0	0	3785.82	10	0.822006	9.99836	31.3561	31.3561	0	8.71004	11	0.00722688	0.000000000000000E+000	3.4809e+09	0.000000000000000E+000	0.000000000000000E+000	8.71004	8.71004	0.0000000E+000	0.000000000000000E+000	0.00821872
1	1	0	1	0	0	0	3818.82	10	0.822004	9.9997	31.6861	31.6861	0	8.80169	11	0.00730222	0.000000000000000E+000	3.51662e+09	0.000000000000000E+000	0.000000000000000E+000	8.80169	8.80169	0.0000000E+000	0.000000000000000E+000	0.00821979
1	1	0	1	0	0	0	3851.82	10	0.821916	9.99887	32.0161	32.0161	0	8.89335	11	0.00737755	0.000000000000000E+000	3.51868e+09	0.000000000000000E+000	0.000000000000000E+000	8.89335	8.89335	0.0000000E+000	0.000000000000000E+000	0.00821823
1	1	0	1	0	0	0	3884.82	10	0.821755	9.99938	32.346	32.346	0	8.98501	11	0.00745288	0.000000000000000E+000	3.49332e+09	0.000000000000000E+000	0.000000000000000E+000	8.98501	8.98501	0.0000000E+000	0.000000000000000E+000	0.00821704
1	1	0	1	0	0	0	3917.82	10	0.821446	9.99926	32.676	32.676	0	9.07667	11	0.0075282	0.000000000000000E+000	3.41482e+09	0.000000000000000E+000	0.000000000000000E+000	9.07667	9.07667	0.0000000E+000	0.000000000000000E+000	0.00821384
1	1	0	1	0	0	0	3950.82	10	0.821403	9.99957	33.006	33.006	0	9.16832	11	0.00760349	0.000000000000000E+000	3.43408e+09	0.000000000000000E+000	0.000000000000000E+000	9.16832	9.16832	0.0000000E+000	0.000000000000000E+000	0.00821368
1	1	0	1	0	0	0	3983.82	10	0.821458	9.99824	33.3359	33.3359	0	9.25998	11	0.00767877	0.000000000000000E+000	3.48827e+09	0.000000000000000E+000	0.000000000000000E+000	9.25998	9.25998	0.0000000E+000	0.000000000000000E+000	0.00821313
1	1	0	1	0	0	0	4016.82	10	0.821365	9.99849	33.6659	33.6659	0	9.35164	11	0.00775405	0.000000000000000E+000	3.48885e+09	0.000000000000000E+000	0.000000000000000E+000	9.35164	9.35164	0.0000000E+000	0.000000000000000E+000	0.00821241
1	1	0	1	0	0	0	4049.82	10	0.821349	9.99964	33.9959	33.9959	0	9.4433	11	0.00782933	0.000000000000000E+000	3.51724e+09	0.000000000000000E+000	0.000000000000000E+000	9.4433	9.4433	0.0000000E+000	0.000000000000000E+000	0.00821319
1	1	0	1	0	0	0	4082.82	10	0.821354	9.99919	34.3258	34.3258	0	9.53495	11	0.00790461	0.000000000000000E+000	3.55318e+09	0.000000000000000E+000	0.000000000000000E+000	9.53495	9.53495	0.0000000E+000	0.000000000000000E+000	0.00821287
1	1	0	1	0	0	0	4115.82	10	0.821073	9.99951	34.6558	34.6558	0	9.62661	11	0.00797988	0.000000000000000E+000	3.48609e+09	0.000000000000000E+000	0.000000000000000E+000	9.62661	9.62661	0.0000000E+000	0.000000000000000E+000	0.00821033
1	1	0	1	0	0	0	4148.82	10	0.820888	9.99849	34.9858	34.9858	0	9.71827	11	0.00805513	0.000000000000000E+000	3.4548e+09	0.000000000000000E+000	0.000000000000000E+000	9.71827	9.71827	0.0000000E+000	0.000000000000000E+000	0.00820764
1	1	0	1	0	0	0	4181.82	10	0.820712	9.99906	35.3157	35.3157	0	9.80992	11	0.00813037	0.000000000000000E+000	3.42804e+09	0.000000000000000E+000	0.000000000000000E+000	9.80992	9.80992	0.0000000E+000	0.000000000000000E+000	0.00820636
1	1	0	1	0	0	0	4214.82	10	0.820775	9.99919	35.6457	35.6457	0	9.90158	11	0.00820559	0.000000000000000E+000	3.4813e+09	0.000000000000000E+000	0.000000000000000E+000	9.90158	9.90158	0.0000000E+000	0.000000000000000E+000	0.00820709
1	1	0	1	0	0	0	4247.82	10	0.820614	9.99926	35.9757	35.9757	0	9.99324	11	0.00828081	0.000000000000000E+000	3.45908e+09	0.000000000000000E+000	0.000000000000000E+000	9.99324	9.99324	0.0000000E+000	0.000000000000000E+000	0.00820553
1	1	0	1	0	0	0	4280.82	10	0.820547	9.99913	36.3056	36.3056	0	10.0849	11	0.00835602	0.000000000000000E+000	3.46844e+09	0.000000000000000E+000	0.000000000000000E+000	10.0849	10.0849	0.0000000E+000	0.000000000000000E+000	0.00820476
1	1	0	1	0	0	0	4313.82	10	0.820515	9.99811	36.6356	36.6356	0	10.1766	11	0.00843123	0.000000000000000E+000	3.48928e+09	0.000000000000000E+000	0.000000000000000E+000	10.1766	10.1766	0.0000000E+000	0.000000000000000E+000	0.0082036
1	1	0	1	0	0	0	4346.82	10	0.820278	9.99868	36.9656	36.9656	0	10.2682	11	0.00850643	0.000000000000000E+000	3.44295e+09	0.000000000000000E+000	0.000000000000000E+000	10.2682	10.2682	0.0000000E+000	0.000000000000000E+000	0.0082017
1	1	0	1	0	0	0	4379.82	10	0.820345	9.99906	37.2955	37.2955	0	10.3599	11	0.00858161	0.000000000000000E+000	3.49569e+09	0.000000000000000E+000	0.000000000000000E+000	10.3599	10.3599	0.0000000E+000	0.000000000000000E+000	0.00820269
1	1	0	1	0	0	0	4412.82	10	0.820198	9.999	37.6255	37.6255	0	10.4515	11	0.0086568	0.000000000000000E+000	3.47864e+09	0.000000000000000E+000	0.000000000000000E+000	10.4515	10.4515	0.0000000E+000	0.000000000000000E+000	0.00820116
1	1	0	1	0	0	0	4445.82	10	0.820315	9.99932	37.9555	37.9555	0	10.5432	11	0.00873198	0.000000000000000E+000	3.54734e+09	0.000000000000000E+000	0.000000000000000E+000	10.5432	10.5432	0.0000000E+000	0.000000000000000E+000	0.00820259
1	1	0	1	0	0	0	4478.82	10	0.820043	9.99957	38.2854	38.2854	0	10.6348	11	0.00880715	0.000000000000000E+000	3.48965e+09	0.000000000000000E+000	0.000000000000000E+000	10.6348	10.6348	0.0000000E+000	0.000000000000000E+000	0.00820008
1	1	0	1	0	0	0	4511.82	10	0.820119	9.99913	38.6154	38.6154	0	10.7265	11	0.00888231	0.000000000000000E+000	3.54405e+09	0.000000000000000E+000	0.000000000000000E+000	10.7265	10.7265	0.0000000E+000	0.000000000000000E+000	0.00820047
1	1	0	1	0	0	0	4544.82	10	0.820014	9.99894	38.9454	38.9454	0	10.8182	11	0.00895748	0.000000000000000E+000	3.54032e+09	0.000000000000000E+000	0.000000000000000E+000	10.8182	10.8182	0.0000000E+000	0.000000000000000E+000	0.00819927
1	1	0	1	0	0	0	4577.82	10	0.820016	9.99894	39.2753	39.2753	0	10.9098	11	0.00903263	0.000000000000000E+000	3.57101e+09	0.000000000000000E+000	0.000000000000000E+000	10.9098	10.9098	0.0000000E+000	0.000000000000000E+000	0.00819929
1	1	0	1	0	0	0	4610.82	10	0.820036	9.99849	39.6053	39.6053	0	11.0015	11	0.00910779	0.000000000000000E+000	3.60754e+09	0.000000000000000E+000	0.000000000000000E+000	11.0015	11.0015	0.0000000E+000	0.000000000000000E+000	0.00819912
1	1	0	1	0	0	0	4643.82	10	0.819961	9.99849	39.9352	39.9352	0	11.0931	11	0.00918295	0.000000000000000E+000	3.61292e+09	0.000000000000000E+000	0.000000000000000E+000	11.0931	11.0931	0.0000000E+000	0.000000000000000E+000	0.00819837
1	1	0	1	0	0	0	4676.82	10	0.819984	9.99989	40.2652	40.2652	0	11.1848	11	0.00925811	0.000000000000000E+000	3.65035e+09	0.000000000000000E+000	0.000000000000000E+000	11.1848	11.1848	0.0000000E+000	0.000000000000000E+000	0.00819975
1	1	0	1	0	0	0	4709.82	10	0.819882	9.99881	40.5952	40.5952	0	11.2764	11	0.00933326	0.000000000000000E+000	3.64665e+09	0.000000000000000E+000	0.000000000000000E+000	11.2764	11.2764	0.0000000E+000	0.000000000000000E+000	0.00819785
1	1	0	1	0	0	0	4742.82	10	0.819957	9.99881	40.9251	40.9251	0	11.3681	11	0.00940841	0.000000000000000E+000	3.70116e+09	0.000000000000000E+000	0.000000000000000E+000	11.3681	11.3681	0.0000000E+000	0.000000000000000E+000	0.00819859
1	1	0	1	0	0	0	4775.82	10	0.819766	9.99906	41.2551	41.2551	0	11.4598	11	0.00948355	0.000000000000000E+000	3.66762e+09	0.000000000000000E+000	0.000000000000000E+000	11.4598	11.4598	0.0000000E+000	0.000000000000000E+000	0.00819689
1	1	0	1	0	0	0	4808.82	10	0.819524	9.99913	41.5851	41.5851	0	11.5514	11	0.00955869	0.000000000000000E+000	3.61896e+09	0.000000000000000E+000	0.000000000000000E+000	11.5514	11.5514	0.0000000E+000	0.000000000000000E+000	0.00819452
1	1	0	1	0	0	0	4841.82	10	0.819504	9.99875	41.915	41.915	0	11.6431	11	0.0096338	0.000000000000000E+000	3.64162e+09	0.000000000000000E+000	0.000000000000000E+000	11.6431	11.6431	0.0000000E+000	0.000000000000000E+000	0.00819402
1	1	0	1	0	0	0	4874.82	10	0.819561	9.99964	42.245	42.245	0	11.7347	11	0.00970892	0.000000000000000E+000	3.68827e+09	0.000000000000000E+000	0.000000000000000E+000	11.7347	11.7347	0.0000000E+000	0.000000000000000E+000	0.00819531
1	1	0	1	0	0	0	4907.82	10	0.819712	9.99945	42.575	42.575	0	11.8264	11	0.00978404	0.000000000000000E+000	3.76673e+09	0.000000000000000E+000	0.000000000000000E+000	11.8264	11.8264	0.0000000E+000	0.000000000000000E+000	0.00819666
1	1	0	1	0	0	0	4940.82	10	0.819565	9.999	42.9049	42.9049	0	11.918	11	0.00985917	0.000000000000000E+000	3.74724e+09	0.000000000000000E+000	0.000000000000000E+000	11.918	11.918	0.0000000E+000	0.000000000000000E+000	0.00819483
1	1	0	1	0	0	0	4973.82	10	0.819413	9.99894	43.2349	43.2349	0	12.0097	11	0.00993427	0.000000000000000E+000	3.72662e+09	0.000000000000000E+000	0.000000000000000E+000	12.0097	12.0097	0.0000000E+000	0.000000000000000E+000	0.00819326
1	1	0	1	0	0	0	5006.82	10	0.819325	9.9997	43.5649	43.5649	0	12.1014	11	0.0100094	0.000000000000000E+000	3.72694e+09	0.000000000000000E+000	0.000000000000000E+000	12.1014	12.1014	0.0000000E+000	0.000000000000000E+000	0.00819301
1	1	0	1	0	0	0	5039.82	10	0.81916	9.99887	43.8948	43.8948	0	12.193	11	0.0100845	0.000000000000000E+000	3.70281e+09	0.000000000000000E+000	0.000000000000000E+000	12.193	12.193	0.0000000E+000	0.000000000000000E+000	0.00819068
1	1	0	1	0	0	0	5072.82	10	0.819225	9.99913	44.2248	44.2248	0	12.2847	11	0.0101595	0.000000000000000E+000	3.75124e+09	0.000000000000000E+000	0.000000000000000E+000	12.2847	12.2847	0.0000000E+000	0.000000000000000E+000	0.00819154
1	1	0	1	0	0	0	5105.82	10	0.819119	9.99843	44.5548	44.5548	0	12.3763	11	0.0102346	0.000000000000000E+000	3.7455e+09	0.000000000000000E+000	0.000000000000000E+000	12.3763	12.3763	0.0000000E+000	0.000000000000000E+000	0.0081899
1	1	0	1	0	0	0	5138.82	10	0.819014	9.99894	44.8847	44.8847	0	12.468	11	0.0103097	0.000000000000000E+000	3.74029e+09	0.000000000000000E+000	0.000000000000000E+000	12.468	12.468	0.0000000E+000	0.000000000000000E+000	0.00818927
1	1	0	1	0	0	0	5171.82	10	0.819093	9.99989	45.2147	45.2147	0	12.5596	11	0.0103848	0.000000000000000E+000	3.79271e+09	0.000000000000000E+000	0.000000000000000E+000	12.5596	12.5596	0.0000000E+000	0.000000000000000E+000	0.00819084
1	1	0	1	0	0	0	5204.82	10	0.81883	9.9983	45.5447	45.5447	0	12.6513	11	0.0104598	0.000000000000000E+000	3.73801e+09	0.000000000000000E+000	0.000000000000000E+000	12.6513	12.6513	0.0000000E+000	0.000000000000000E+000	0.00818691
1	1	0	1	0	0	0	5237.82	10	0.818867	9.99926	45.8746	45.8746	0	12.743	11	0.0105349	0.000000000000000E+000	3.77647e+09	0.000000000000000E+000	0.000000000000000E+000	12.743	12.743	0.0000000E+000	0.000000000000000E+000	0.00818806
1	1	0	1	0	0	0	5270.82	10	0.81894	9.9997	46.2046	46.2046	0	12.8346	11	0.0106099	0.000000000000000E+000	3.82671e+09	0.000000000000000E+000	0.000000000000000E+000	12.8346	12.8346	0.0000000E+000	0.000000000000000E+000	0.00818916
1	1	0	1	0	0	0	5303.82	10	0.818967	9.99836	46.5346	46.5346	0	12.9263	11	0.010685	0.000000000000000E+000	3.86252e+09	0.000000000000000E+000	0.000000000000000E+000	12.9263	12.9263	0.0000000E+000	0.000000000000000E+000	0.00818833
1	1	0	1	0	0	0	5336.82	10	0.818822	9.99894	46.8645	46.8645	0	13.0179	11	0.0107601	0.000000000000000E+000	3.84382e+09	0.000000000000000E+000	0.000000000000000E+000	13.0179	13.0179	0.0000000E+000	0.000000000000000E+000	0.00818735
1	1	0	1	0	0	0	5369.82	10	0.818908	9.99926	47.1945	47.1945	0	13.1096	11	0.0108351	0.000000000000000E+000	3.8983e+09	0.000000000000000E+000	0.000000000000000E+000	13.1096	13.1096	0.0000000E+000	0.000000000000000E+000	0.00818847
1	1	0	1	0	0	0	5402.82	10	0.818728	9.99919	47.5245	47.5245	0	13.2012	11	0.0109102	0.000000000000000E+000	3.86799e+09	0.000000000000000E+000	0.000000000000000E+000	13.2012	13.2012	0.0000000E+000	0.000000000000000E+000	0.00818662
1	1	0	1	0	0	0	5435.82	10	0.818596	9.99824	47.8544	47.8544	0	13.2929	11	0.0109852	0.000000000000000E+000	3.85335e+09	0.000000000000000E+000	0.000000000000000E+000	13.2929	13.2929	0.0000000E+000	0.000000000000000E+000	0.00818451
1	1	0	1	0	0	0	5468.82	10	0.818708	9.99849	48.1844	48.1844	0	13.3846	11	0.0110602	0.000000000000000E+000	3.91551e+09	0.000000000000000E+000	0.000000000000000E+000	13.3846	13.3846	0.0000000E+000	0.000000000000000E+000	0.00818585
1	1	0	1	0	0	0	5501.82	10	0.81857	9.99894	48.5144	48.5144	0	13.4762	11	0.0111353	0.000000000000000E+000	3.89852e+09	0.000000000000000E+000	0.000000000000000E+000	13.4762	13.4762	0.0000000E+000	0.000000000000000E+000	0.00818483
1	1	0	1	0	0	0	5534.82	10	0.818427	9.9983	48.8443	48.8443	0	13.5679	11	0.0112103	0.000000000000000E+000	3.88031e+09	0.000000000000000E+000	0.000000000000000E+000	13.5679	13.5679	0.0000000E+000	0.000000000000000E+000	0.00818288
1	1	0	1	0	0	0	5567.82	10	0.818477	9.99932	49.1743	49.1743	0	13.6595	11	0.0112853	0.000000000000000E+000	3.92218e+09	0.000000000000000E+000	0.000000000000000E+000	13.6595	13.6595	0.0000000E+000	0.000000000000000E+000	0.00818421
1	1	0	1	0	0	0	5600.82	10	0.818312	9.99887	49.5043	49.5043	0	13.7512	11	0.0113603	0.000000000000000E+000	3.89722e+09	0.000000000000000E+000	0.000000000000000E+000	13.7512	13.7512	0.0000000E+000	0.000000000000000E+000	0.0081822
1	1	0	1	0	0	0	5633.82	10	0.818314	9.99945	49.8342	49.8342	0	13.8428	11	0.0114353	0.000000000000000E+000	3.92371e+09	0.000000000000000E+000	0.000000000000000E+000	13.8428	13.8428	0.0000000E+000	0.000000000000000E+000	0.00818268
1	1	0	1	0	0	0	5666.82	10	0.818229	9.99856	50.1642	50.1642	0	13.9345	11	0.0115103	0.000000000000000E+000	3.92351e+09	0.000000000000000E+000	0.000000000000000E+000	13.9345	13.9345	0.0000000E+000	0.000000000000000E+000	0.00818111
1	1	0	1	0	0	0	5699.82	10	0.818146	9.99894	50.4942	50.4942	0	14.0262	11	0.0115853	0.000000000000000E+000	3.92392e+09	0.000000000000000E+000	0.000000000000000E+000	14.0262	14.0262	0.0000000E+000	0.000000000000000E+000	0.00818059
1	1	0	1	0	0	0	5732.82	10	0.818062	9.999	50.8241	50.8241	0	14.1178	11	0.0116603	0.000000000000000E+000	3.92392e+09	0.000000000000000E+000	0.000000000000000E+000	14.1178	14.1178	0.0000000E+000	0.000000000000000E+000	0.0081798
1	1	0	1	0	0	0	5765.82	10	0.818	9.99906	51.1541	51.1541	0	14.2095	11	0.0117353	0.000000000000000E+000	3.93042e+09	0.000000000000000E+000	0.000000000000000E+000	14.2095	14.2095	0.0000000E+000	0.000000000000000E+000	0.00817923
1	1	0	1	0	0	0	5798.82	10	0.817963	9.99894	51.4841	51.4841	0	14.3011	11	0.0118103	0.000000000000000E+000	3.94465e+09	0.000000000000000E+000	0.000000000000000E+000	14.3011	14.3011	0.0000000E+000	0.000000000000000E+000	0.00817876
1	1	0	1	0	0	0	5831.82	10	0.817988	9.9983	51.814	51.814	0	14.3928	11	0.0118852	0.000000000000000E+000	3.97768e+09	0.000000000000000E+000	0.000000000000000E+000	14.3928	14.3928	0.0000000E+000	0.000000000000000E+000	0.00817849
1	1	0	1	0	0	0	5864.82	10	0.818056	9.99875	52.144	52.144	0	14.4844	11	0.0119602	0.000000000000000E+000	4.02401e+09	0.000000000000000E+000	0.000000000000000E+000	14.4844	14.4844	0.0000000E+000	0.000000000000000E+000	0.00817954
1	1	0	1	0	0	0	5897.82	10	0.818006	9.99875	52.474	52.474	0	14.5761	11	0.0120352	0.000000000000000E+000	4.03388e+09	0.000000000000000E+000	0.000000000000000E+000	14.5761	14.5761	0.0000000E+000	0.000000000000000E+000	0.00817904
1	1	0	1	0	0	0	5930.82	10	0.81798	9.99868	52.8039	52.8039	0	14.6678	11	0.0121102	0.000000000000000E+000	4.05119e+09	0.000000000000000E+000	0.000000000000000E+000	14.6678	14.6678	0.0000000E+000	0.000000000000000E+000	0.00817873
1	1	0	1	0	0	0	5963.82	10	0.81801	9.99957	53.1339	53.1339	0	14.7594	11	0.0121851	0.000000000000000E+000	4.08583e+09	0.000000000000000E+000	0.000000000000000E+000	14.7594	14.7594	0.0000000E+000	0.000000000000000E+000	0.00817975
1	1	0	1	0	0	0	5996.82	10	0.817835	9.99856	53.4639	53.4639	0	14.8511	11	0.0122601	0.000000000000000E+000	4.05675e+09	0.000000000000000E+000	0.000000000000000E+000	14.8511	14.8511	0.0000000E+000	0.000000000000000E+000	0.00817717
1	1	0	1	0	0	0	6029.82	10	0.81778	9.999	53.7938	53.7938	0	14.9427	11	0.0123351	0.000000000000000E+000	4.06469e+09	0.000000000000000E+000	0.000000000000000E+000	14.9427	14.9427	0.0000000E+000	0.000000000000000E+000	0.00817698
1	1	0	1	0	0	0	6062.82	10	0.817808	9.99964	54.1238	54.1238	0	15.0344	11	0.01241	0.000000000000000E+000	4.09831e+09	0.000000000000000E+000	0.000000000000000E+000	15.0344	15.0344	0.0000000E+000	0.000000000000000E+000	0.00817778
1	1	0	1	0	0	0	6095.82	10	0.818019	9.99913	54.4538	54.4538	0	15.126	11	0.012485	0.000000000000000E+000	4.19009e+09	0.000000000000000E+000	0.000000000000000E+000	15.126	15.126	0.0000000E+000	0.000000000000000E+000	0.00817947
1	1	0	1	0	0	0	6128.82	10	0.817685	9.99887	54.7837	54.7837	0	15.2177	11	0.0125599	0.000000000000000E+000	4.11e+09	0.000000000000000E+000	0.000000000000000E+000	15.2177	15.2177	0.0000000E+000	0.000000000000000E+000	0.00817593
1	1	0	1	0	0	0	6161.82	10	0.81769	9.99894	55.1137	55.1137	0	15.3094	11	0.0126349	0.000000000000000E+000	4.13619e+09	0.000000000000000E+000	0.000000000000000E+000	15.3094	15.3094	0.0000000E+000	0.000000000000000E+000	0.00817603
1	1	0	1	0	0	0	6194.82	10	0.817609	9.99919	55.4437	55.4437	0	15.401	11	0.0127098	0.000000000000000E+000	4.13581e+09	0.000000000000000E+000	0.000000000000000E+000	15.401	15.401	0.0000000E+000	0.000000000000000E+000	0.00817543
1	1	0	1	0	0	0	6227.82	10	0.817633	9.9983	55.7736	55.7736	0	15.4927	11	0.0127848	0.000000000000000E+000	4.16784e+09	0.000000000000000E+000	0.000000000000000E+000	15.4927	15.4927	0.0000000E+000	0.000000000000000E+000	0.00817494
1	1	0	1	0	0	0	6260.82	10	0.817491	9.99945	56.1036	56.1036	0	15.5843	11	0.0128597	0.000000000000000E+000	4.14869e+09	0.000000000000000E+000	0.000000000000000E+000	15.5843	15.5843	0.0000000E+000	0.000000000000000E+000	0.00817446
1	1	0	1	0	0	0	6293.82	10	0.81735	9.99798	56.4336	56.4336	0	15.676	11	0.0129346	0.000000000000000E+000	4.12991e+09	0.000000000000000E+000	0.000000000000000E+000	15.676	15.676	0.0000000E+000	0.000000000000000E+000	0.00817185
1	1	0	1	0	0	0	6326.82	10	0.817322	9.99875	56.7635	56.7635	0	15.7676	11	0.0130095	0.000000000000000E+000	4.14574e+09	0.000000000000000E+000	0.000000000000000E+000	15.7676	15.7676	0.0000000E+000	0.000000000000000E+000	0.0081722
1	1	0	1	0	0	0	6359.82	10	0.817353	9.99881	57.0935	57.0935	0	15.8593	11	0.0130845	0.000000000000000E+000	4.17932e+09	0.000000000000000E+000	0.000000000000000E+000	15.8593	15.8593	0.0000000E+000	0.000000000000000E+000	0.00817256
1	1	0	1	0	0	0	6392.82	10	0.817445	9.99913	57.4235	57.4235	0	15.951	11	0.0131594	0.000000000000000E+000	4.23192e+09	0.000000000000000E+000	0.000000000000000E+000	15.951	15.951	0.0000000E+000	0.000000000000000E+000	0.00817374
1	1	0	1	0	0	0	6425.82	10	0.817315	9.999	57.7534	57.7534	0	16.0426	11	0.0132343	0.000000000000000E+000	4.21563e+09	0.000000000000000E+000	0.000000000000000E+000	16.0426	16.0426	0.0000000E+000	0.000000000000000E+000	0.00817233
1	1	0	1	0	0	0	6458.82	10	0.817418	9.99868	58.0834	58.0834	0	16.1343	11	0.0133092	0.000000000000000E+000	4.27202e+09	0.000000000000000E+000	0.000000000000000E+000	16.1343	16.1343	0.0000000E+000	0.000000000000000E+000	0.00817311
1	1	0	1	0	0	0	6491.82	10	0.817327	9.99868	58.4133	58.4133	0	16.2259	11	0.0133841	0.000000000000000E+000	4.26764e+09	0.000000000000000E+000	0.000000000000000E+000	16.2259	16.2259	0.0000000E+000	0.000000000000000E+000	0.00817219
1	1	0	1	0	0	0	6524.82	10	0.817257	9.99894	58.7433	58.7433	0	16.3176	11	0.013459	0.000000000000000E+000	4.26979e+09	0.000000000000000E+000	0.000000000000000E+000	16.3176	16.3176	0.0000000E+000	0.000000000000000E+000	0.0081717
1	1	0	1	0	0	0	6557.82	10	0.81738	9.99894	59.0733	59.0733	0	16.4092	11	0.0135339	0.000000000000000E+000	4.33254e+09	0.000000000000000E+000	0.000000000000000E+000	16.4092	16.4092	0.0000000E+000	0.000000000000000E+000	0.00817293
1	1	0	1	0	0	0	6590.82	10	0.817569	9.99919	59.4032	59.4032	0	16.5009	11	0.0136089	0.000000000000000E+000	4.41818e+09	0.000000000000000E+000	0.000000000000000E+000	16.5009	16.5009	0.0000000E+000	0.000000000000000E+000	0.00817503
1	1	0	1	0	0	0	6623.82	10	0.817376	9.99945	59.7332	59.7332	0	16.5926	11	0.0136838	0.000000000000000E+000	4.37987e+09	0.000000000000000E+000	0.000000000000000E+000	16.5926	16.5926	0.0000000E+000	0.000000000000000E+000	0.00817331
1	1	0	1	0	0	0	6656.82	10	0.817329	9.999	60.0632	60.0632	0	16.6842	11	0.0137587	0.000000000000000E+000	4.38872e+09	0.000000000000000E+000	0.000000000000000E+000	16.6842	16.6842	0.0000000E+000	0.000000000000000E+000	0.00817247
1	1	0	1	0	0	0	6689.82	10	0.81726	9.99868	60.3931	60.3931	0	16.7759	11	0.0138336	0.000000000000000E+000	4.39095e+09	0.000000000000000E+000	0.000000000000000E+000	16.7759	16.7759	0.0000000E+000	0.000000000000000E+000	0.00817153
1	1	0	1	0	0	0	6722.82	10	0.817195	9.99868	60.7231	60.7231	0	16.8675	11	0.0139085	0.000000000000000E+000	4.39397e+09	0.000000000000000E+000	0.000000000000000E+000	16.8675	16.8675	0.0000000E+000	0.000000000000000E+000	0.00817087
1	1	0	1	0	0	0	6755.82	10	0.8171	9.99887	61.0531	61.0531	0	16.9592	11	0.0139834	0.000000000000000E+000	4.38787e+09	0.000000000000000E+000	0.000000000000000E+000	16.9592	16.9592	0.0000000E+000	0.000000000000000E+000	0.00817008
1	1	0	1	0	0	0	6788.82	10	0.817239	9.99887	61.383	61.383	0	17.0508	11	0.0140583	0.000000000000000E+000	4.45589e+09	0.000000000000000E+000	0.000000000000000E+000	17.0508	17.0508	0.0000000E+000	0.000000000000000E+000	0.00817147
1	1	0	1	0	0	0	6821.82	10	0.817059	9.999	61.713	61.713	0	17.1425	11	0.0141332	0.000000000000000E+000	4.42214e+09	0.000000000000000E+000	0.000000000000000E+000	17.1425	17.1425	0.0000000E+000	0.000000000000000E+000	0.00816977
1	1	0	1	0	0	0	6854.82	10	0.817204	9.99868	62.043	62.043	0	17.2342	11	0.0142081	0.000000000000000E+000	4.49254e+09	0.000000000000000E+000	0.000000000000000E+000	17.2342	17.2342	0.0000000E+000	0.000000000000000E+000	0.00817097
1	1	0	1	0	0	0	6887.82	10	0.817131	9.99862	62.3729	62.3729	0	17.3258	11	0.014283	0.000000000000000E+000	4.49247e+09	0.000000000000000E+000	0.000000000000000E+000	17.3258	17.3258	0.0000000E+000	0.000000000000000E+000	0.00817018
1	1	0	1	0	0	0	6920.82	10	0.817126	9.99951	62.7029	62.7029	0	17.4175	11	0.0143579	0.000000000000000E+000	4.51465e+09	0.000000000000000E+000	0.000000000000000E+000	17.4175	17.4175	0.0000000E+000	0.000000000000000E+000	0.00817086
1	1	0	1	0	0	0	6953.82	10	0.817028	9.99932	63.0329	63.0329	0	17.5091	11	0.0144328	0.000000000000000E+000	4.50655e+09	0.000000000000000E+000	0.000000000000000E+000	17.5091	17.5091	0.0000000E+000	0.000000000000000E+000	0.00816972
1	1	0	1	0	0	0	6986.82	10	0.816992	10.0001	63.3628	63.3628	0	17.6008	11	0.0145077	0.000000000000000E+000	4.51859e+09	0.000000000000000E+000	0.000000000000000E+000	17.6008	17.6008	0.0000000E+000	0.000000000000000E+000	0.00816998
1	1	0	1	0	0	0	7019.82	10	0.816933	9.99932	63.6928	63.6928	0	17.6924	11	0.0145826	0.000000000000000E+000	4.52305e+09	0.000000000000000E+000	0.000000000000000E+000	17.6924	17.6924	0.0000000E+000	0.000000000000000E+000	0.00816877
1	1	0	1	0	0	0	7052.82	10	0.816925	9.99957	64.0228	64.0228	0	17.7841	11	0.0146575	0.000000000000000E+000	4.54411e+09	0.000000000000000E+000	0.000000000000000E+000	17.7841	17.7841	0.0000000E+000	0.000000000000000E+000	0.00816891
1	1	0	1	0	0	0	7085.82	10	0.816751	9.99824	64.3527	64.3527	0	17.8758	11	0.0147323	0.000000000000000E+000	4.5118e+09	0.000000000000000E+000	0.000000000000000E+000	17.8758	17.8758	0.0000000E+000	0.000000000000000E+000	0.00816607
1	1	0	1	0	0	0	7118.82	10	0.816853	9.99875	64.6827	64.6827	0	17.9674	11	0.0148072	0.000000000000000E+000	4.56748e+09	0.000000000000000E+000	0.000000000000000E+000	17.9674	17.9674	0.0000000E+000	0.000000000000000E+000	0.0081675
1	1	0	1	0	0	0	7151.82	10	0.816882	9.99906	65.0127	65.0127	0	18.0591	11	0.0148821	0.000000000000000E+000	4.60009e+09	0.000000000000000E+000	0.000000000000000E+000	18.0591	18.0591	0.0000000E+000	0.000000000000000E+000	0.00816805
1	1	0	1	0	0	0	7184.82	10	0.817091	9.99932	65.3426	65.3426	0	18.1507	11	0.014957	0.000000000000000E+000	4.69287e+09	0.000000000000000E+000	0.000000000000000E+000	18.1507	18.1507	0.0000000E+000	0.000000000000000E+000	0.00817035
1	1	0	1	0	0	0	7217.82	10	0.816799	9.99938	65.6726	65.6726	0	18.2424	11	0.0150318	0.000000000000000E+000	4.61966e+09	0.000000000000000E+000	0.000000000000000E+000	18.2424	18.2424	0.0000000E+000	0.000000000000000E+000	0.00816748
1	1	0	1	0	0	0	7250.82	10	0.816698	9.99887	66.0026	66.0026	0	18.334	11	0.0151067	0.000000000000000E+000	4.61028e+09	0.000000000000000E+000	0.000000000000000E+000	18.334	18.334	0.0000000E+000	0.000000000000000E+000	0.00816606
1	1	0	1	0	0	0	7283.82	10	0.816888	9.99938	66.3325	66.3325	0	18.4257	11	0.0151816	0.000000000000000E+000	4.69566e+09	0.000000000000000E+000	0.000000000000000E+000	18.4257	18.4257	0.0000000E+000	0.000000000000000E+000	0.00816838
1	1	0	1	0	0	0	7316.82	10	0.816769	9.99906	66.6625	66.6625	0	18.5174	11	0.0152564	0.000000000000000E+000	4.67949e+09	0.000000000000000E+000	0.000000000000000E+000	18.5174	18.5174	0.0000000E+000	0.000000000000000E+000	0.00816692
1	1	0	1	0	0	0	7349.82	10	0.816633	9.99862	66.9925	66.9925	0	18.609	11	0.0153313	0.000000000000000E+000	4.6584e+09	0.000000000000000E+000	0.000000000000000E+000	18.609	18.609	0.0000000E+000	0.000000000000000E+000	0.00816521
1	1	0	1	0	0	0	7382.82	10	0.816707	9.99919	67.3224	67.3224	0	18.7007	11	0.0154061	0.000000000000000E+000	4.70557e+09	0.000000000000000E+000	0.000000000000000E+000	18.7007	18.7007	0.0000000E+000	0.000000000000000E+000	0.00816641
1	1	0	1	0	0	0	7415.82	10	0.816857	9.99862	67.6524	67.6524	0	18.7923	11	0.015481	0.000000000000000E+000	4.77871e+09	0.000000000000000E+000	0.000000000000000E+000	18.7923	18.7923	0.0000000E+000	0.000000000000000E+000	0.00816745
1	1	0	1	0	0	0	7448.82	10	0.816944	9.99913	67.9824	67.9824	0	18.884	11	0.0155559	0.000000000000000E+000	4.83151e+09	0.000000000000000E+000	0.000000000000000E+000	18.884	18.884	0.0000000E+000	0.000000000000000E+000	0.00816873
1	1	0	1	0	0	0	7481.82	10	0.816687	9.99957	68.3123	68.3123	0	18.9756	11	0.0156307	0.000000000000000E+000	4.76799e+09	0.000000000000000E+000	0.000000000000000E+000	18.9756	18.9756	0.0000000E+000	0.000000000000000E+000	0.00816652
1	1	0	1	0	0	0	7514.82	10	0.816751	9.99887	68.6423	68.6423	0	19.0673	11	0.0157056	0.000000000000000E+000	4.81254e+09	0.000000000000000E+000	0.000000000000000E+000	19.0673	19.0673	0.0000000E+000	0.000000000000000E+000	0.00816659
1	1	0	1	0	0	0	7547.82	10	0.816694	9.99919	68.9723	68.9723	0	19.159	11	0.0157804	0.000000000000000E+000	4.81639e+09	0.000000000000000E+000	0.000000000000000E+000	19.159	19.159	0.0000000E+000	0.000000000000000E+000	0.00816628
1	1	0	1	0	0	0	7580.82	10	0.816686	9.99849	69.3022	69.3022	0	19.2506	11	0.0158553	0.000000000000000E+000	4.83656e+09	0.000000000000000E+000	0.000000000000000E+000	19.2506	19.2506	0.0000000E+000	0.000000000000000E+000	0.00816562
1	1	0	1	0	0	0	7613.82	10	0.81657	9.99868	69.6322	69.6322	0	19.3423	11	0.0159301	0.000000000000000E+000	4.8207e+09	0.000000000000000E+000	0.000000000000000E+000	19.3423	19.3423	0.0000000E+000	0.000000000000000E+000	0.00816462
1	1	0	1	0	0	0	7646.82	10	0.816599	9.99792	69.9622	69.9622	0	19.4339	11	0.016005	0.000000000000000E+000	4.85312e+09	0.000000000000000E+000	0.000000000000000E+000	19.4339	19.4339	0.0000000E+000	0.000000000000000E+000	0.00816429
1	1	0	1	0	0	0	7679.82	10	0.816665	9.99926	70.2921	70.2921	0	19.5256	11	0.0160798	0.000000000000000E+000	4.89851e+09	0.000000000000000E+000	0.000000000000000E+000	19.5256	19.5256	0.0000000E+000	0.000000000000000E+000	0.00816604
1	1	0	1	0	0	0	7712.82	10	0.816786	9.99868	70.6221	70.6221	0	19.6173	11	0.0161547	0.000000000000000E+000	4.9636e+09	0.000000000000000E+000	0.000000000000000E+000	19.6173	19.6173	0.0000000E+000	0.000000000000000E+000	0.00816679
1	1	0	1	0	0	0	7745.82	10	0.816604	9.99881	70.9521	70.9521	0	19.7089	11	0.0162295	0.000000000000000E+000	4.9235e+09	0.000000000000000E+000	0.000000000000000E+000	19.7089	19.7089	0.0000000E+000	0.000000000000000E+000	0.00816506
1	1	0	1	0	0	0	7778.82	10	0.81658	9.99875	71.282	71.282	0	19.8006	11	0.0163044	0.000000000000000E+000	4.93824e+09	0.000000000000000E+000	0.000000000000000E+000	19.8006	19.8006	0.0000000E+000	0.000000000000000E+000	0.00816477
1	1	0	1	0	0	0	7811.82	10	0.81653	9.9983	71.612	71.612	0	19.8922	11	0.0163792	0.000000000000000E+000	4.94397e+09	0.000000000000000E+000	0.000000000000000E+000	19.8922	19.8922	0.0000000E+000	0.000000000000000E+000	0.00816391
1	1	0	1	0	0	0	7844.82	10	0.816539	9.99919	71.942	71.942	0	19.9839	11	0.0164541	0.000000000000000E+000	4.9699e+09	0.000000000000000E+000	0.000000000000000E+000	19.9839	19.9839	0.0000000E+000	0.000000000000000E+000	0.00816473
1	1	0	1	0	0	0	7849.87	10	0.816513	9.99919	71.9925	71.9925	0	19.9979	11	0.0164655	0.000000000000000E+000	4.96454e+09	0.000000000000000E+000	0.000000000000000E+000	19.9979	19.9979	0.0000000E+000	0.000000000000000E+000	0.00816447