File: Data/2022_01_11 FeNx Ti electrode set1_02_CV_C05.mpt
EC-Lab ASCII FILE
Nb header lines : 57

Cyclic Voltammetry

Run on channel : 5 (SN 30436)
User :
CE vs. WE compliance from -10 V to 10 V
Electrode connection : standard
Potential control : Ewe
Ewe ctrl range : min = -2,50 V, max = 2,50 V
Safety Limits :
	Do not start on E overload
Acquisition started on : 01/11/2023 11:36:25.784
Loaded Setting File :  C:\Users\grupogalan\Documents\EC-Lab\Data\Scott\2022_01_05 CoNx Ti electrode1.mps
Saved on :
	File : 2022_01_11 FeNx Ti electrode set1_02_CV_C05.mpr
	Directory : C:\Users\grupogalan\Documents\EC-Lab\Data\Scott\
	Host : 169.254.104.159
Device : VSP (SN 1176)
Address : USB
EC-Lab for windows v11.46 (software)
Internet server v11.40 (firmware)
Command interpretor v11.40 (firmware)
Electrode material :
Initial state :
Electrolyte :
Comments :
Electrode surface area : 0,000 cm²
Characteristic mass : 0,001 g
Equivalent Weight : 0,000 g/eq.
Density : 0,000 g/cm3
Volume (V) : 0,001 cm³
Cycle Definition : Charge/Discharge alternance
Ei (V)              0,000
vs.                 Eoc
dE/dt               10,000
dE/dt unit          mV/s
E1 (V)              1,000
vs.                 Ref
Step percent        50
N                   10
E range min (V)     -2,500
E range max (V)     2,500
I Range             Auto
I Range min         Unset
I Range max         Unset
I Range init        Unset
Bandwidth           5
E2 (V)              0,000
vs.                 Ref
nc cycles           2
Reverse Scan        0
Ef (V)              0,000
vs.                 Ref

mode	ox/red	error	control changes	counter inc.	time/s	control/V	Ewe/V	<I>/mA	cycle number	(Q-Qo)/C	I Range	P/W
2	0	0	1	0	8,096860384139291E+001	-5,5079479E-002	-5,5388663E-002	-2,380305668339133E-003	1,000000000000000E+000	0,0000000E+000	14	1,3184194E-007
2	1	0	0	0	8,275380379629496E+001	-3,7227936E-002	-3,7376381E-002	1,208240719063694E-002	1,000000000000000E+000	1,5536703E-005	13	-4,5159666E-007
2	1	0	1	0	8,455400375081808E+001	-1,9226374E-002	-1,9360906E-002	1,793850980552468E-002	1,000000000000000E+000	4,6828231E-005	13	-3,4730579E-007
2	1	0	0	0	8,635420370534121E+001	-1,2248090E-003	-1,4462501E-003	2,229589000301158E-002	1,000000000000000E+000	8,6713844E-005	13	-3,2245435E-008
2	1	0	1	0	8,815440365986433E+001	1,6776746E-002	1,6644569E-002	2,576129393289894E-002	1,000000000000000E+000	1,3345743E-004	13	4,2878563E-007
2	1	0	1	0	8,995440361439250E+001	3,4778304E-002	3,4661103E-002	2,936559185575427E-002	1,000000000000000E+000	1,8678773E-004	13	1,0178438E-006
2	1	0	0	0	9,175460356891563E+001	5,2779861E-002	5,2717965E-002	3,357453577875813E-002	1,000000000000000E+000	2,4714417E-004	13	1,7699812E-006
2	1	0	1	0	9,355480352343875E+001	7,0781417E-002	7,0798166E-002	3,771633304293366E-002	1,000000000000000E+000	3,1493671E-004	13	2,6702471E-006
2	1	0	0	0	9,535500347796187E+001	8,8782974E-002	8,8784993E-002	4,197408197689134E-002	1,000000000000000E+000	3,9027890E-004	13	3,7266686E-006
2	1	0	1	0	9,715510343248752E+001	1,0678519E-001	1,0669415E-001	4,590247183254145E-002	1,000000000000000E+000	4,7298803E-004	13	4,8975253E-006
2	1	0	1	0	9,895520338701317E+001	1,2478609E-001	1,2470662E-001	4,977639793004429E-002	1,000000000000000E+000	5,6274002E-004	13	6,2074464E-006
2	1	0	0	0	1,007554033415363E+002	1,4278765E-001	1,4260428E-001	5,348515289801148E-002	1,000000000000000E+000	6,5933354E-004	13	7,6272117E-006
2	1	0	1	0	1,025556032960594E+002	1,6078921E-001	1,6060384E-001	5,704874778166413E-002	1,000000000000000E+000	7,6257915E-004	13	9,1622478E-006
2	1	0	0	0	1,043558032505825E+002	1,7879076E-001	1,7863944E-001	6,082737017250456E-002	1,000000000000000E+000	8,7241695E-004	13	1,0866167E-005
2	1	0	0	0	1,061558032051107E+002	1,9679229E-001	1,9674726E-001	6,429428457178998E-002	1,000000000000000E+000	9,8880904E-004	13	1,2649724E-005
2	1	0	1	0	1,079560031596338E+002	2,1479386E-001	2,1484870E-001	6,817342963552586E-002	1,000000000000000E+000	1,1117860E-003	13	1,4646973E-005
2	1	0	0	0	1,097562031141570E+002	2,3279542E-001	2,3265617E-001	7,164807480552970E-002	1,000000000000000E+000	1,2413936E-003	13	1,6669366E-005
2	1	0	1	0	1,115564030686801E+002	2,5079700E-001	2,5066844E-001	7,548902131168667E-002	1,000000000000000E+000	1,3777290E-003	13	1,8922716E-005
2	1	0	0	0	1,133566030232032E+002	2,6879856E-001	2,6870617E-001	7,935575574291553E-002	1,000000000000000E+000	1,5209842E-003	13	2,1323382E-005
2	1	0	0	0	1,151566029777314E+002	2,8680012E-001	2,8664207E-001	8,335542029494225E-002	1,000000000000000E+000	1,6713815E-003	13	2,3893170E-005
2	1	0	1	0	1,169568029322545E+002	3,0480167E-001	3,0460551E-001	8,763282231262193E-002	1,000000000000000E+000	1,8292437E-003	13	2,6693440E-005
2	1	0	0	0	1,187570028867776E+002	3,2280320E-001	3,2271546E-001	9,206330372641469E-002	1,000000000000000E+000	1,9949565E-003	13	2,9710252E-005
2	1	0	1	0	1,205872028405429E+002	3,4110478E-001	3,4103549E-001	9,774397947411606E-002	1,000000000000000E+000	2,1722266E-003	12	3,3334167E-005
2	1	0	1	0	1,223872027950711E+002	3,5910636E-001	3,5903612E-001	1,029323966035420E-001	1,000000000000000E+000	2,3549290E-003	12	3,6956448E-005
2	1	0	0	0	1,241874027495942E+002	3,7710786E-001	3,7696457E-001	1,081534819677468E-001	1,000000000000000E+000	2,5469942E-003	12	4,0770032E-005
2	1	0	1	0	1,259876027041173E+002	3,9510942E-001	3,9498317E-001	1,138470584733624E-001	1,000000000000000E+000	2,7489571E-003	12	4,4967674E-005
2	1	0	0	0	1,277878026586404E+002	4,1311103E-001	4,1308996E-001	1,198884381188288E-001	1,000000000000000E+000	2,9614195E-003	12	4,9524711E-005
2	1	0	1	0	1,295880026131636E+002	4,3111262E-001	4,3103755E-001	1,262713074339209E-001	1,000000000000000E+000	3,1849660E-003	12	5,4427674E-005
2	1	0	1	0	1,313880025676917E+002	4,4911414E-001	4,4902113E-001	1,329806861122718E-001	1,000000000000000E+000	3,4201823E-003	12	5,9711139E-005
2	1	0	0	0	1,331882025222149E+002	4,6711564E-001	4,6702707E-001	1,403370686737753E-001	1,000000000000000E+000	3,6680175E-003	12	6,5541208E-005
2	1	0	1	0	1,349884024767380E+002	4,8511720E-001	4,8508921E-001	1,493931403383615E-001	1,000000000000000E+000	3,9307950E-003	12	7,2469003E-005
2	1	0	0	0	1,367886024312611E+002	5,0311881E-001	5,0310469E-001	1,577664018194708E-001	1,000000000000000E+000	4,2092544E-003	12	7,9373014E-005
2	1	0	1	0	1,385887023857867E+002	5,2112079E-001	5,2109063E-001	1,655463405650350E-001	1,000000000000000E+000	4,5021293E-003	12	8,6264648E-005
2	1	0	1	0	1,403888023403124E+002	5,3912193E-001	5,3904438E-001	1,737380979099745E-001	1,000000000000000E+000	4,8092352E-003	12	9,3652547E-005
2	1	0	0	0	1,421890022948355E+002	5,5712348E-001	5,5694628E-001	1,823385996330114E-001	1,000000000000000E+000	5,1314943E-003	12	1,0155280E-004
2	1	0	1	0	1,439892022493586E+002	5,7512498E-001	5,7499456E-001	1,920726085599100E-001	1,000000000000000E+000	5,4702116E-003	12	1,1044071E-004
2	1	0	0	0	1,457894022038818E+002	5,9312660E-001	5,9306639E-001	2,039843428259087E-001	1,000000000000000E+000	5,8280891E-003	12	1,2097626E-004
2	1	0	0	0	1,475894021584099E+002	6,1112809E-001	6,1112744E-001	2,202237332929609E-001	1,000000000000000E+000	6,2108273E-003	12	1,3458477E-004
2	1	0	1	0	1,493896021129331E+002	6,2912965E-001	6,2911958E-001	2,447302746414040E-001	1,000000000000000E+000	6,6298661E-003	12	1,5396460E-004
2	1	0	0	0	1,511898020674562E+002	6,4713120E-001	6,4722419E-001	2,817103544043156E-001	1,000000000000000E+000	7,1038166E-003	12	1,8232975E-004
2	1	0	1	0	1,529900020219793E+002	6,6513288E-001	6,6531289E-001	3,380158149326826E-001	1,000000000000000E+000	7,6603950E-003	12	2,2488627E-004
2	1	0	0	0	1,547902019765024E+002	6,8313438E-001	6,8301320E-001	4,242665016595959E-001	1,000000000000000E+000	8,3425380E-003	12	2,8977962E-004
2	1	0	0	0	1,565902019310306E+002	7,0113587E-001	7,0108807E-001	5,707725798366230E-001	1,000000000000000E+000	9,2287315E-003	12	4,0016184E-004
2	1	0	1	0	1,583904018855537E+002	7,1913749E-001	7,1888912E-001	8,115770161427838E-001	1,000000000000000E+000	1,0459749E-002	12	5,8343390E-004
2	1	0	0	0	1,602206018393190E+002	7,3743910E-001	7,3732281E-001	1,195670347384839E+000	1,000000000000000E+000	1,2274639E-002	11	8,8159501E-004
2	1	0	1	0	1,620208017938421E+002	7,5544059E-001	7,5540513E-001	1,793838556441990E+000	1,000000000000000E+000	1,4930450E-002	11	1,3550748E-003
2	1	0	1	0	1,638208017483703E+002	7,7344221E-001	7,7347577E-001	2,692879932622118E+000	1,000000000000000E+000	1,8923603E-002	11	2,0828773E-003
2	1	0	0	0	1,656210017028934E+002	7,9144371E-001	7,9153478E-001	3,975731557718017E+000	1,000000000000000E+000	2,4871761E-002	11	3,1469299E-003
2	1	0	1	0	1,674212016574165E+002	8,0944532E-001	8,0937505E-001	5,677714617715921E+000	1,000000000000000E+000	3,3504616E-002	11	4,5954008E-003
2	1	0	0	0	1,692214016119397E+002	8,2744682E-001	8,2750410E-001	7,877858898153988E+000	1,000000000000000E+000	4,5648295E-002	11	6,5189605E-003
2	1	0	1	0	1,710216015664628E+002	8,4544837E-001	8,4550267E-001	1,058587731586562E+001	1,000000000000000E+000	6,2198661E-002	11	8,9503871E-003
2	1	0	1	0	1,728516015202331E+002	8,6374998E-001	8,6369532E-001	1,396709323150145E+001	1,000000000000000E+000	8,4566824E-002	10	1,2063313E-002
2	1	0	0	0	1,746518014747562E+002	8,8175154E-001	8,8180745E-001	1,809911025232742E+001	1,000000000000000E+000	1,1331285E-001	10	1,5959930E-002
2	1	0	1	0	1,764520014292793E+002	8,9975309E-001	8,9973253E-001	2,318068691977751E+001	1,000000000000000E+000	1,5030304E-001	10	2,0856418E-002
2	1	0	0	0	1,782522013838025E+002	9,1775465E-001	9,1787440E-001	2,938730850043123E+001	1,000000000000000E+000	1,9748197E-001	10	2,6973858E-002
2	1	0	1	0	1,800524013383256E+002	9,3575662E-001	9,3578160E-001	3,617400869633479E+001	1,000000000000000E+000	2,5655630E-001	10	3,3850972E-002
2	1	0	1	0	1,818524012928538E+002	9,5375776E-001	9,5380247E-001	4,199623980787067E+001	1,000000000000000E+000	3,2719335E-001	10	4,0056117E-002
2	1	0	0	0	1,836526012473769E+002	9,7175938E-001	9,7178501E-001	4,582915644292484E+001	1,000000000000000E+000	4,0660036E-001	10	4,4536088E-002
2	1	0	1	0	1,854528012019000E+002	9,8976088E-001	9,8973459E-001	4,790960027111907E+001	1,000000000000000E+000	4,9123871E-001	10	4,7417790E-002
2	1	0	0	0	1,871334011594445E+002	9,9346119E-001	9,9336004E-001	4,477824690165346E+001	1,000000000000000E+000	5,7114142E-001	10	4,4480920E-002
2	1	0	1	0	1,889336011139676E+002	9,7545969E-001	9,7541040E-001	3,632662464071188E+001	1,000000000000000E+000	6,4385438E-001	10	3,5433367E-002
2	1	0	0	0	1,907338010684907E+002	9,5745808E-001	9,5746917E-001	2,966164040565486E+001	1,000000000000000E+000	7,0302039E-001	10	2,8400106E-002
2	1	0	0	0	1,925338010230189E+002	9,3945646E-001	9,3944734E-001	2,445554147384777E+001	1,000000000000000E+000	7,5169736E-001	10	2,2974694E-002
2	1	0	1	0	1,943340009775420E+002	9,2145497E-001	9,2155808E-001	1,988679918094917E+001	1,000000000000000E+000	7,9144543E-001	10	1,8326841E-002
2	1	0	0	0	1,961342009320651E+002	9,0345347E-001	9,0354055E-001	1,609042556859826E+001	1,000000000000000E+000	8,2370520E-001	10	1,4538352E-002
2	1	0	1	0	1,979344008865883E+002	8,8545185E-001	8,8558453E-001	1,290918184209752E+001	1,000000000000000E+000	8,4971148E-001	10	1,1432172E-002
2	1	0	1	0	1,997344008411164E+002	8,6745036E-001	8,6758286E-001	1,024351974769876E+001	1,000000000000000E+000	8,7044328E-001	10	8,8871019E-003
2	1	0	0	0	2,015346007956396E+002	8,4944880E-001	8,4943998E-001	8,001434511608565E+000	1,000000000000000E+000	8,8679183E-001	10	6,7967381E-003
2	1	0	1	0	2,033348007501627E+002	8,3144724E-001	8,3138955E-001	6,131539029655585E+000	1,000000000000000E+000	8,9945346E-001	10	5,0976975E-003
2	1	0	0	0	2,051350007046858E+002	8,1344569E-001	8,1340903E-001	4,591727729748783E+000	1,000000000000000E+000	9,0905237E-001	10	3,7349528E-003
2	1	0	1	0	2,069652006584511E+002	7,9514408E-001	7,9513568E-001	3,335581970435598E+000	1,000000000000000E+000	9,1626203E-001	11	2,6522402E-003
2	1	0	1	0	2,087652006129792E+002	7,7714252E-001	7,7707571E-001	2,354631838423231E+000	1,000000000000000E+000	9,2134303E-001	11	1,8297272E-003
2	1	0	0	0	2,105654005675024E+002	7,5914097E-001	7,5913876E-001	1,610306700622594E+000	1,000000000000000E+000	9,2487466E-001	11	1,2224462E-003
2	1	0	1	0	2,123656005220255E+002	7,4113941E-001	7,4101287E-001	1,051417201343508E+000	1,000000000000000E+000	9,2724079E-001	11	7,7911367E-004
2	1	0	0	0	2,141658004765486E+002	7,2313780E-001	7,2320747E-001	6,522782469789177E-001	1,000000000000000E+000	9,2874938E-001	11	4,7173249E-004
2	1	0	1	0	2,159960004303139E+002	7,0483619E-001	7,0486200E-001	3,863992259527240E-001	1,000000000000000E+000	9,2967892E-001	12	2,7235813E-004
2	1	0	1	0	2,177960003848420E+002	6,8683469E-001	6,8686140E-001	2,245406314937606E-001	1,000000000000000E+000	9,3021411E-001	12	1,5422828E-004
2	1	0	0	0	2,195962003393652E+002	6,6883314E-001	6,6880876E-001	1,307725759085128E-001	1,000000000000000E+000	9,3052399E-001	12	8,7461842E-005
2	1	0	1	0	2,213964002938883E+002	6,5083158E-001	6,5088034E-001	7,850059825513070E-002	1,000000000000000E+000	9,3070590E-001	12	5,1094496E-005
2	1	0	0	0	2,231966002484114E+002	6,3283002E-001	6,3276517E-001	4,886887271250417E-002	1,000000000000000E+000	9,3081659E-001	12	3,0922522E-005
2	1	0	0	0	2,250266002021817E+002	6,1452848E-001	6,1446416E-001	3,161057830719199E-002	1,000000000000000E+000	9,3088716E-001	13	1,9423567E-005
2	1	0	1	0	2,268268001567048E+002	5,9652692E-001	5,9653890E-001	2,115058549248654E-002	1,000000000000000E+000	9,3093210E-001	13	1,2617147E-005
2	1	0	0	0	2,286270001112280E+002	5,7852536E-001	5,7847667E-001	1,501990518213633E-002	1,000000000000000E+000	9,3096256E-001	13	8,6886648E-006
2	1	0	1	0	2,304272000657511E+002	5,6052375E-001	5,6050164E-001	1,130511452814706E-002	1,000000000000000E+000	9,3098450E-001	13	6,3365351E-006
2	1	0	0	0	2,322274000202742E+002	5,4252219E-001	5,4240012E-001	8,790447692498954E-003	1,000000000000000E+000	9,3100113E-001	13	4,7679400E-006
2	1	0	0	0	2,340273999748024E+002	5,2452064E-001	5,2454489E-001	6,895726968650696E-003	1,000000000000000E+000	9,3101400E-001	13	3,6171184E-006
2	1	0	1	0	2,358275999293255E+002	5,0651908E-001	5,0648063E-001	5,286473217118483E-003	1,000000000000000E+000	9,3102384E-001	13	2,6774962E-006
2	1	0	0	0	2,376277998838486E+002	4,8851755E-001	4,8845240E-001	3,768132734350074E-003	1,000000000000000E+000	9,3103093E-001	13	1,8405535E-006
2	1	0	1	0	2,394279998383718E+002	4,7051600E-001	4,7047308E-001	2,215920516854805E-003	1,000000000000000E+000	9,3103534E-001	13	1,0425309E-006
2	1	0	1	0	2,412280997928974E+002	4,5251420E-001	4,5248526E-001	4,273024891758449E-004	1,000000000000000E+000	9,3103683E-001	13	1,9334809E-007
2	0	0	0	0	2,430281997474231E+002	4,3451282E-001	4,3440077E-001	-1,260280041050362E-003	1,000000000000000E+000	9,3103510E-001	13	-5,4746664E-007
2	0	0	1	0	2,448283997019462E+002	4,1651130E-001	4,1652435E-001	-2,467382074731489E-003	1,000000000000000E+000	9,3103063E-001	13	-1,0277247E-006
2	0	0	0	0	2,466285996564693E+002	3,9850974E-001	3,9844513E-001	-3,122068636802963E-003	1,000000000000000E+000	9,3102467E-001	13	-1,2439731E-006
2	0	0	1	0	2,484287996109924E+002	3,8050824E-001	3,8049656E-001	-3,466195470570761E-003	1,000000000000000E+000	9,3101770E-001	13	-1,3188754E-006
2	0	0	1	0	2,502287995655206E+002	3,6250669E-001	3,6247262E-001	-2,881303393139582E-003	1,000000000000000E+000	9,3101108E-001	13	-1,0443936E-006
2	0	0	0	0	2,520289995200437E+002	3,4450513E-001	3,4444332E-001	-2,404572674533017E-003	1,000000000000000E+000	9,3100548E-001	13	-8,2823902E-007
2	0	0	1	0	2,538291994745668E+002	3,2650355E-001	3,2647985E-001	-2,361300224105498E-003	1,000000000000000E+000	9,3100041E-001	13	-7,7091693E-007
2	0	0	0	0	2,556293994290900E+002	3,0850199E-001	3,0844209E-001	-2,484089535385092E-003	1,000000000000000E+000	9,3099523E-001	13	-7,6619779E-007
2	0	0	1	0	2,574295993836131E+002	2,9050040E-001	2,9048184E-001	-2,795324044600256E-003	1,000000000000000E+000	9,3098956E-001	13	-8,1199084E-007
2	0	0	1	0	2,592295993381413E+002	2,7249885E-001	2,7253324E-001	-3,132742219480428E-003	1,000000000000000E+000	9,3098330E-001	13	-8,5377638E-007
2	0	0	0	0	2,610297992926644E+002	2,5449729E-001	2,5455806E-001	-3,699512750737696E-003	1,000000000000000E+000	9,3097621E-001	13	-9,4174078E-007
2	0	0	1	0	2,628299992471875E+002	2,3649575E-001	2,3639403E-001	-4,234575242513795E-003	1,000000000000000E+000	9,3096817E-001	13	-1,0010283E-006
2	0	0	0	0	2,646301992017106E+002	2,1849419E-001	2,1840084E-001	-4,770196046515008E-003	1,000000000000000E+000	9,3095917E-001	13	-1,0418148E-006
2	0	0	0	0	2,664301991562388E+002	2,0049262E-001	2,0024207E-001	-5,362858860040537E-003	1,000000000000000E+000	9,3094903E-001	13	-1,0738700E-006
2	0	0	1	0	2,682303991107619E+002	1,8249106E-001	1,8244635E-001	-5,962883952532923E-003	1,000000000000000E+000	9,3093789E-001	13	-1,0879064E-006
2	0	0	0	0	2,700305990652851E+002	1,6448952E-001	1,6437778E-001	-6,616417154738749E-003	1,000000000000000E+000	9,3092555E-001	13	-1,0875920E-006
2	0	0	1	0	2,718307990198082E+002	1,4648797E-001	1,4637293E-001	-7,276766682345490E-003	1,000000000000000E+000	9,3091196E-001	13	-1,0651216E-006
2	0	0	0	0	2,736309989743313E+002	1,2848642E-001	1,2842858E-001	-8,080886470485923E-003	1,000000000000000E+000	9,3089700E-001	13	-1,0378168E-006
2	0	0	0	0	2,754309989288595E+002	1,1048485E-001	1,1042159E-001	-8,943584609638761E-003	1,000000000000000E+000	9,3088061E-001	13	-9,8756482E-007
2	0	0	1	0	2,772311988833826E+002	9,2483290E-002	9,2379592E-002	-9,837618110597969E-003	1,000000000000000E+000	9,3086255E-001	13	-9,0879513E-007
2	0	0	0	0	2,790313988379057E+002	7,4481733E-002	7,4294075E-002	-1,089299885400874E-002	1,000000000000000E+000	9,3084264E-001	13	-8,0928527E-007
2	0	0	1	0	2,808315987924288E+002	5,6480184E-002	5,6382611E-002	-1,205572341913705E-002	1,000000000000000E+000	9,3082076E-001	13	-6,7973315E-007
2	0	0	1	0	2,826316987469545E+002	3,8477961E-002	3,8330398E-002	-1,339502424410223E-002	1,000000000000000E+000	9,3079656E-001	13	-5,1343659E-007
2	0	0	0	0	2,844317987014801E+002	2,0477068E-002	2,0420657E-002	-1,496524597233584E-002	1,000000000000000E+000	9,3076974E-001	13	-3,0560017E-007
2	0	0	1	0	2,862319986560033E+002	2,4755117E-003	2,3786547E-003	-1,698290393256621E-002	1,000000000000000E+000	9,3073976E-001	13	-4,0396465E-008
2	1	0	0	1	2,879325986130425E+002	1,4576558E-002	1,4613255E-002	-4,580924808595704E-003	2,000000000000000E+000	9,3072385E-001	13	-6,6942221E-008
2	1	0	1	1	2,897327985675656E+002	3,2578114E-002	3,2560799E-002	8,293416527117647E-005	2,000000000000000E+000	9,3072158E-001	13	2,7004028E-009
2	1	0	0	1	2,915329985220887E+002	5,0579675E-002	5,0570961E-002	2,420478280530208E-003	2,000000000000000E+000	9,3072522E-001	13	1,2240591E-007
2	1	0	1	1	2,933331984766119E+002	6,8581223E-002	6,8551414E-002	3,930954169622636E-003	2,000000000000000E+000	9,3073219E-001	13	2,6947245E-007
2	1	0	0	1	2,951333984311350E+002	8,6582780E-002	8,6458631E-002	5,052110049022021E-003	2,000000000000000E+000	9,3074149E-001	13	4,3679853E-007
2	1	0	0	1	2,969333983856632E+002	1,0458434E-001	1,0442846E-001	5,968306875998919E-003	2,000000000000000E+000	9,3075252E-001	13	6,2326109E-007
2	1	0	1	1	2,987335983401863E+002	1,2258589E-001	1,2252352E-001	6,715650404523196E-003	2,000000000000000E+000	9,3076503E-001	13	8,2282509E-007
2	1	0	0	1	3,005337982947094E+002	1,4058746E-001	1,4051352E-001	7,367397371261269E-003	2,000000000000000E+000	9,3077880E-001	13	1,0352189E-006
2	1	0	1	1	3,023339982492325E+002	1,5858901E-001	1,5850353E-001	7,993743790494695E-003	2,000000000000000E+000	9,3079370E-001	13	1,2670366E-006
2	1	0	1	1	3,041340982037582E+002	1,7658968E-001	1,7654094E-001	8,549582073672360E-003	2,000000000000000E+000	9,3080962E-001	13	1,5093513E-006
2	1	0	0	1	3,059341981582838E+002	1,9459213E-001	1,9447610E-001	9,081415572264023E-003	2,000000000000000E+000	9,3082660E-001	13	1,7661183E-006
2	1	0	1	1	3,077343981128070E+002	2,1259367E-001	2,1237800E-001	9,619755591740130E-003	2,000000000000000E+000	9,3084449E-001	13	2,0430243E-006
2	1	0	0	1	3,095345980673301E+002	2,3059523E-001	2,3048790E-001	1,010599899692113E-002	2,000000000000000E+000	9,3086326E-001	13	2,3293105E-006
2	1	0	1	1	3,113347980218532E+002	2,4859679E-001	2,4841428E-001	1,057991446685733E-002	2,000000000000000E+000	9,3088293E-001	13	2,6282019E-006
2	1	0	1	1	3,131347979763814E+002	2,6659831E-001	2,6653796E-001	1,110384271359419E-002	2,000000000000000E+000	9,3090343E-001	13	2,9595956E-006
2	1	0	0	1	3,149349979309045E+002	2,8459993E-001	2,8461394E-001	1,156326061054302E-002	2,000000000000000E+000	9,3092483E-001	13	3,2910652E-006
2	1	0	1	1	3,167351978854276E+002	3,0260149E-001	3,0251795E-001	1,205174044783537E-002	2,000000000000000E+000	9,3094707E-001	13	3,6458678E-006
2	1	0	0	1	3,185353978399507E+002	3,2060301E-001	3,2054827E-001	1,257289100127915E-002	2,000000000000000E+000	9,3097025E-001	13	4,0302184E-006
2	1	0	1	1	3,203355977944739E+002	3,3860457E-001	3,3840775E-001	1,310496841108910E-002	2,000000000000000E+000	9,3099433E-001	13	4,4348230E-006
2	1	0	1	1	3,221355977490020E+002	3,5660610E-001	3,5655585E-001	1,368162781000137E-002	2,000000000000000E+000	9,3101931E-001	13	4,8782645E-006
2	1	0	0	1	3,239357977035252E+002	3,7460771E-001	3,7452149E-001	1,422741263026925E-002	2,000000000000000E+000	9,3104535E-001	13	5,3284716E-006
2	1	0	1	1	3,257359976580483E+002	3,9260927E-001	3,9256132E-001	1,483110540451620E-002	2,000000000000000E+000	9,3107241E-001	13	5,8221181E-006
2	1	0	0	1	3,275361976125714E+002	4,1061085E-001	4,1065851E-001	1,548570412625043E-002	2,000000000000000E+000	9,3110067E-001	13	6,3593361E-006
2	1	0	0	1	3,293361975670996E+002	4,2861238E-001	4,2868254E-001	1,623761064278098E-002	2,000000000000000E+000	9,3113011E-001	13	6,9607800E-006
2	1	0	1	1	3,311363975216227E+002	4,4661388E-001	4,4658437E-001	1,728485744334418E-002	2,000000000000000E+000	9,3116105E-001	13	7,7191471E-006
2	1	0	0	1	3,329365974761458E+002	4,6461543E-001	4,6457973E-001	1,981910475512488E-002	2,000000000000000E+000	9,3119532E-001	13	9,2075543E-006
2	1	0	1	1	3,347367974306690E+002	4,8261705E-001	4,8250279E-001	2,148746826289294E-002	2,000000000000000E+000	9,3123388E-001	13	1,0367763E-005
2	1	0	0	1	3,365369973851921E+002	5,0061864E-001	5,0057781E-001	2,263040728522125E-002	2,000000000000000E+000	9,3127447E-001	13	1,1328279E-005
2	1	0	0	1	3,383369973397203E+002	5,1862019E-001	5,1854867E-001	2,420556451694150E-002	2,000000000000000E+000	9,3131763E-001	13	1,2551764E-005
2	1	0	1	1	3,401371972942434E+002	5,3662175E-001	5,3655875E-001	2,601054108580922E-002	2,000000000000000E+000	9,3136388E-001	13	1,3956183E-005
2	1	0	0	1	3,419373972487665E+002	5,5462325E-001	5,5466872E-001	2,796526193722254E-002	2,000000000000000E+000	9,3141347E-001	13	1,5511456E-005
2	1	0	1	1	3,437375972032896E+002	5,7262486E-001	5,7259935E-001	3,066060239776841E-002	2,000000000000000E+000	9,3146724E-001	13	1,7556242E-005
2	1	0	1	1	3,455376971578153E+002	5,9062588E-001	5,9042478E-001	3,518422957338441E-002	2,000000000000000E+000	9,3152738E-001	13	2,0773641E-005
2	1	0	0	1	3,473377971123409E+002	6,0862797E-001	6,0854954E-001	4,339784452329504E-002	2,000000000000000E+000	9,3159866E-001	13	2,6409738E-005
2	1	0	1	1	3,491379970668640E+002	6,2662947E-001	6,2650990E-001	5,765969722738681E-002	2,000000000000000E+000	9,3168986E-001	13	3,6124373E-005
2	1	0	0	1	3,509381970213872E+002	6,4463103E-001	6,4469832E-001	8,096943193770656E-002	2,000000000000000E+000	9,3181473E-001	13	5,2200856E-005
2	1	0	1	1	3,527683969751524E+002	6,6293257E-001	6,6279763E-001	1,175262698455266E-001	2,000000000000000E+000	9,3199587E-001	12	7,7896133E-005
2	1	0	1	1	3,545683969296806E+002	6,8093419E-001	6,8087262E-001	1,717327960628872E-001	2,000000000000000E+000	9,3225425E-001	12	1,1692816E-004
2	1	0	0	1	3,563685968842037E+002	6,9893575E-001	6,9876909E-001	2,569245319399558E-001	2,000000000000000E+000	9,3263578E-001	12	1,7953092E-004
2	1	0	1	1	3,581687968387268E+002	7,1693736E-001	7,1685249E-001	3,927665184838354E-001	2,000000000000000E+000	9,3321306E-001	12	2,8155567E-004
2	1	0	0	1	3,599689967932500E+002	7,3493886E-001	7,3483825E-001	6,062902067960394E-001	2,000000000000000E+000	9,3410051E-001	12	4,4552522E-004
2	1	0	1	1	3,617691967477731E+002	7,5294036E-001	7,5304270E-001	9,476907801021022E-001	2,000000000000000E+000	9,3547803E-001	12	7,1365165E-004
2	1	0	1	1	3,635991967015434E+002	7,7124196E-001	7,7127987E-001	1,490174454257446E+000	2,000000000000000E+000	9,3767673E-001	11	1,1493416E-003
2	1	0	0	1	3,653993966560665E+002	7,8924346E-001	7,8919232E-001	2,267773672662408E+000	2,000000000000000E+000	9,4102317E-001	11	1,7897096E-003
2	1	0	1	1	3,671995966105897E+002	8,0724519E-001	8,0723870E-001	3,294874341399577E+000	2,000000000000000E+000	9,4599485E-001	11	2,6597502E-003
2	1	0	0	1	3,689997965651128E+002	8,2524669E-001	8,2528710E-001	4,586439612287050E+000	2,000000000000000E+000	9,5305949E-001	11	3,7851294E-003
2	1	0	1	1	3,707998965196384E+002	8,4324819E-001	8,4334052E-001	6,145546115658846E+000	2,000000000000000E+000	9,6269041E-001	11	5,1827882E-003
2	1	0	1	1	3,725999964741641E+002	8,6124980E-001	8,6117041E-001	7,943846927748808E+000	2,000000000000000E+000	9,7532874E-001	11	6,8410058E-003
2	1	0	0	1	3,744001964286872E+002	8,7925130E-001	8,7931544E-001	9,973145561085822E+000	2,000000000000000E+000	9,9145812E-001	11	8,7695410E-003
2	1	0	1	1	3,762303963824525E+002	8,9755291E-001	8,9752626E-001	1,217104981342953E+001	2,000000000000000E+000	1,0117043E+000	10	1,0923837E-002
2	1	0	0	1	3,780305963369756E+002	9,1555440E-001	9,1555971E-001	1,441899186814275E+001	2,000000000000000E+000	1,0356448E+000	10	1,3201448E-002
2	1	0	0	1	3,798305962915038E+002	9,3355596E-001	9,3360281E-001	1,676319177945459E+001	2,000000000000000E+000	1,0637289E+000	10	1,5650162E-002
2	1	0	1	1	3,816307962460269E+002	9,5155752E-001	9,5171690E-001	1,918470333682160E+001	2,000000000000000E+000	1,0960388E+000	10	1,8258406E-002
2	1	0	0	1	3,834309962005500E+002	9,6955913E-001	9,6956038E-001	2,148916262167471E+001	2,000000000000000E+000	1,1326560E+000	10	2,0835040E-002
2	1	0	1	1	3,852311961550731E+002	9,8756075E-001	9,8763227E-001	2,367710811120480E+001	2,000000000000000E+000	1,1733481E+000	10	2,3384277E-002
2	1	0	0	1	3,869317961121124E+002	9,9546134E-001	9,9554956E-001	2,401250301467047E+001	2,000000000000000E+000	1,2149582E+000	10	2,3905637E-002
2	1	0	1	1	3,887319960666355E+002	9,7745979E-001	9,7759444E-001	1,992570915045565E+001	2,000000000000000E+000	1,2543796E+000	10	1,9479262E-002
2	1	0	1	1	3,905319960211637E+002	9,5945829E-001	9,5955026E-001	1,658687563737234E+001	2,000000000000000E+000	1,2871392E+000	10	1,5915941E-002
2	1	0	0	1	3,923321959756868E+002	9,4145679E-001	9,4153279E-001	1,379049100478491E+001	2,000000000000000E+000	1,3143572E+000	10	1,2984199E-002
2	1	0	1	1	3,941323959302099E+002	9,2345512E-001	9,2348009E-001	1,137006216137499E+001	2,000000000000000E+000	1,3369389E+000	10	1,0500026E-002
2	1	0	0	1	3,959325958847330E+002	9,0545350E-001	9,0557295E-001	9,354812737968203E+000	2,000000000000000E+000	1,3555340E+000	10	8,4714657E-003
2	1	0	1	1	3,977327958392561E+002	8,8745207E-001	8,8753951E-001	7,691793197834954E+000	2,000000000000000E+000	1,3708186E+000	10	6,8267705E-003
2	1	0	1	1	3,995327957937843E+002	8,6945057E-001	8,6953783E-001	6,220381606508198E+000	2,000000000000000E+000	1,3832994E+000	10	5,4088570E-003
2	1	0	0	1	4,013329957483074E+002	8,5144889E-001	8,5152549E-001	4,963684701257307E+000	2,000000000000000E+000	1,3933269E+000	10	4,2267041E-003
2	1	0	1	1	4,031631957020727E+002	8,3314729E-001	8,3304513E-001	3,897341730418026E+000	2,000000000000000E+000	1,4014103E+000	11	3,2466615E-003
2	1	0	0	1	4,049633956565958E+002	8,1514579E-001	8,1504661E-001	3,019195852456289E+000	2,000000000000000E+000	1,4076099E+000	11	2,4607854E-003
2	1	0	1	1	4,067635956111189E+002	7,9714423E-001	7,9718083E-001	2,278774233559764E+000	2,000000000000000E+000	1,4123526E+000	11	1,8165951E-003
2	1	0	1	1	4,085635955656471E+002	7,7914274E-001	7,7922475E-001	1,682792712416916E+000	2,000000000000000E+000	1,4158969E+000	11	1,3112738E-003
2	1	0	0	1	4,103637955201702E+002	7,6114112E-001	7,6109254E-001	1,199392926223851E+000	2,000000000000000E+000	1,4184712E+000	11	9,1284903E-004
2	1	0	1	1	4,121639954746934E+002	7,4313956E-001	7,4321079E-001	8,342905019720392E-001	2,000000000000000E+000	1,4202830E+000	11	6,2005373E-004
2	1	0	0	1	4,139641954292165E+002	7,2513801E-001	7,2514224E-001	5,492448053426209E-001	2,000000000000000E+000	1,4215127E+000	11	3,9828062E-004
2	1	0	0	1	4,157941953829868E+002	7,0683640E-001	7,0680100E-001	3,459470238605582E-001	2,000000000000000E+000	1,4223173E+000	12	2,4451572E-004
2	1	0	1	1	4,175943953375099E+002	6,8883485E-001	6,8879932E-001	2,098562663283063E-001	2,000000000000000E+000	1,4228073E+000	12	1,4454886E-004
2	1	0	0	1	4,193945952920330E+002	6,7083335E-001	6,7088151E-001	1,249354614841720E-001	2,000000000000000E+000	1,4231009E+000	12	8,3816893E-005
2	1	0	1	1	4,211947952465562E+002	6,5283173E-001	6,5282995E-001	7,399536822750086E-002	2,000000000000000E+000	1,4232745E+000	12	4,8306392E-005
2	1	0	0	1	4,230249952003214E+002	6,3453019E-001	6,3446534E-001	4,414107013683499E-002	2,000000000000000E+000	1,4233785E+000	13	2,8005979E-005
2	1	0	0	1	4,248249951548496E+002	6,1652857E-001	6,1642230E-001	2,636285066708111E-002	2,000000000000000E+000	1,4234389E+000	13	1,6250649E-005
2	1	0	1	1	4,266251951093727E+002	5,9852707E-001	5,9843755E-001	1,592390669113086E-002	2,000000000000000E+000	1,4234748E+000	13	9,5294636E-006
2	1	0	0	1	4,284253950638958E+002	5,8052552E-001	5,8055049E-001	1,014932783868132E-002	2,000000000000000E+000	1,4234964E+000	13	5,8921974E-006
2	1	0	1	1	4,302255950184190E+002	5,6252402E-001	5,6249577E-001	6,929609084585953E-003	2,000000000000000E+000	1,4235102E+000	13	3,8978756E-006
2	1	0	1	1	4,320256949729446E+002	5,4452193E-001	5,4442674E-001	5,021381971806932E-003	2,000000000000000E+000	1,4235197E+000	13	2,7337746E-006
2	1	0	0	1	4,338257949274703E+002	5,2652079E-001	5,2641487E-001	3,628484304398535E-003	2,000000000000000E+000	1,4235264E+000	13	1,9100880E-006
2	1	0	1	1	4,356259948819934E+002	5,0851923E-001	5,0845897E-001	2,529554104192502E-003	2,000000000000000E+000	1,4235309E+000	13	1,2861744E-006
2	1	0	0	1	4,374261948365165E+002	4,9051771E-001	4,9033836E-001	1,392161633046070E-003	2,000000000000000E+000	1,4235336E+000	13	6,8263023E-007
2	0	0	1	1	4,392263947910396E+002	4,7251615E-001	4,7247997E-001	2,192907619010583E-004	2,000000000000000E+000	1,4235342E+000	13	1,0361049E-007
2	0	0	1	1	4,410263947455678E+002	4,5451459E-001	4,5445496E-001	-1,270517388177347E-003	2,000000000000000E+000	1,4235325E+000	13	-5,7739294E-007
2	0	0	0	1	4,428265947000909E+002	4,3651310E-001	4,3645328E-001	-2,712464012414852E-003	2,000000000000000E+000	1,4235280E+000	13	-1,1838638E-006
2	0	0	1	1	4,446267946546141E+002	4,1851148E-001	4,1841760E-001	-3,550702160114105E-003	2,000000000000000E+000	1,4235214E+000	13	-1,4856763E-006
2	0	0	0	1	4,464269946091372E+002	4,0050992E-001	4,0036929E-001	-3,956829769094852E-003	2,000000000000000E+000	1,4235139E+000	13	-1,5841931E-006
2	0	0	1	1	4,482271945636603E+002	3,8250834E-001	3,8231984E-001	-4,198842080987322E-003	2,000000000000000E+000	1,4235057E+000	13	-1,6053007E-006
2	0	0	1	1	4,500271945181885E+002	3,6450678E-001	3,6445826E-001	-3,656340417044851E-003	2,000000000000000E+000	1,4234978E+000	13	-1,3325835E-006
2	0	0	0	1	4,518273944727116E+002	3,4650528E-001	3,4650117E-001	-3,177051574985615E-003	2,000000000000000E+000	1,4234909E+000	13	-1,1008520E-006
2	0	0	1	1	4,536275944272347E+002	3,2850373E-001	3,2843477E-001	-2,928340347487532E-003	2,000000000000000E+000	1,4234847E+000	13	-9,6176882E-007
2	0	0	0	1	4,554277943817578E+002	3,1050217E-001	3,1041825E-001	-2,885835276151310E-003	2,000000000000000E+000	1,4234786E+000	13	-8,9581596E-007
2	0	0	0	1	4,572277943362860E+002	2,9250062E-001	2,9237941E-001	-2,940720842902748E-003	2,000000000000000E+000	1,4234726E+000	13	-8,5980622E-007
2	0	0	1	1	4,590279942908091E+002	2,7449903E-001	2,7440533E-001	-3,187615964903925E-003	2,000000000000000E+000	1,4234663E+000	13	-8,7469880E-007
2	0	0	0	1	4,608281942453323E+002	2,5649747E-001	2,5647691E-001	-3,490773540887764E-003	2,000000000000000E+000	1,4234595E+000	13	-8,9530283E-007
2	0	0	1	1	4,626283941998554E+002	2,3849590E-001	2,3837227E-001	-3,843996372156482E-003	2,000000000000000E+000	1,4234521E+000	13	-9,1630210E-007
2	0	0	0	1	4,644285941543785E+002	2,2049437E-001	2,2042154E-001	-4,223810627991043E-003	2,000000000000000E+000	1,4234440E+000	13	-9,3101886E-007
2	0	0	0	1	4,662285941089067E+002	2,0249279E-001	2,0236576E-001	-4,653336563820221E-003	2,000000000000000E+000	1,4234352E+000	13	-9,4167598E-007
2	0	0	1	1	4,680287940634298E+002	1,8449126E-001	1,8437578E-001	-5,045339566364701E-003	2,000000000000000E+000	1,4234256E+000	13	-9,3023840E-007
2	0	0	0	1	4,698289940179529E+002	1,6648969E-001	1,6644201E-001	-5,567371177204655E-003	2,000000000000000E+000	1,4234152E+000	13	-9,2664442E-007
2	0	0	1	1	4,716291939724761E+002	1,4848813E-001	1,4843927E-001	-6,099729346816365E-003	2,000000000000000E+000	1,4234039E+000	13	-9,0543938E-007
2	0	0	1	1	4,734292939270017E+002	1,3048612E-001	1,3046984E-001	-6,583379575492805E-003	2,000000000000000E+000	1,4233916E+000	13	-8,5893248E-007
2	0	0	0	1	4,752293938815274E+002	1,1248502E-001	1,1242956E-001	-7,222585727167483E-003	2,000000000000000E+000	1,4233782E+000	13	-8,1203211E-007
2	0	0	1	1	4,770295938360505E+002	9,4483465E-002	9,4323888E-002	-7,864791599718840E-003	2,000000000000000E+000	1,4233637E+000	13	-7,4183771E-007
2	0	0	0	1	4,788297937905736E+002	7,6481909E-002	7,6295674E-002	-8,715174303722095E-003	2,000000000000000E+000	1,4233478E+000	13	-6,6493010E-007
2	0	0	1	1	4,806299937450967E+002	5,8480352E-002	5,8399070E-002	-9,561638310077367E-003	2,000000000000000E+000	1,4233304E+000	13	-5,5839081E-007
2	0	0	1	1	4,824299936996249E+002	4,0478796E-002	4,0471688E-002	-1,061529778827984E-002	2,000000000000000E+000	1,4233112E+000	13	-4,2961901E-007
2	0	0	0	1	4,842301936541480E+002	2,2477243E-002	2,2439238E-002	-1,188884317094495E-002	2,000000000000000E+000	1,4232900E+000	13	-2,6677657E-007
2	0	0	1	1	4,860303936086711E+002	4,4756839E-003	4,4216458E-003	-1,343486040261477E-002	2,000000000000000E+000	1,4232663E+000	13	-5,9404194E-008
2	0	0	0	0	4,877309935657104E+002	1,2576384E-002	1,2515076E-002	-3,811859679343707E-003	3,000000000000000E+000	1,4232520E+000	13	-4,7705715E-008
2	0	0	1	0	4,895311935202335E+002	3,0577941E-002	3,0517809E-002	1,369993574371613E-004	3,000000000000000E+000	1,4232503E+000	13	4,1809201E-009
2	0	0	0	0	4,913313934747566E+002	4,8579499E-002	4,8503567E-002	2,100296350085448E-003	3,000000000000000E+000	1,4232535E+000	13	1,0187186E-007
2	0	0	1	0	4,931315934292797E+002	6,6581056E-002	6,6545561E-002	3,279376413266387E-003	3,000000000000000E+000	1,4232594E+000	13	2,1822794E-007
2	0	0	0	0	4,949317933838029E+002	8,4582612E-002	8,4542982E-002	4,051704746884599E-003	3,000000000000000E+000	1,4232670E+000	13	3,4254319E-007
2	1	0	0	0	4,967317933383310E+002	1,0258416E-001	1,0257225E-001	4,730009479788836E-003	3,000000000000000E+000	1,4232759E+000	13	4,8516773E-007
2	1	0	1	0	4,985319932928542E+002	1,2058572E-001	1,2059302E-001	5,228598014043559E-003	3,000000000000000E+000	1,4232858E+000	13	6,3053244E-007
2	1	0	0	0	5,003321932473773E+002	1,3858728E-001	1,3853528E-001	5,671019574273732E-003	3,000000000000000E+000	1,4232966E+000	13	7,8563625E-007
2	1	0	1	0	5,021323932019004E+002	1,5658884E-001	1,5646689E-001	6,102136229552933E-003	3,000000000000000E+000	1,4233081E+000	13	9,5478231E-007
2	1	0	1	0	5,039323931564286E+002	1,7459039E-001	1,7443566E-001	6,492894558943123E-003	3,000000000000000E+000	1,4233204E+000	13	1,1325924E-006
2	1	0	0	0	5,057325931109517E+002	1,9259197E-001	1,9252650E-001	6,852827268799225E-003	3,000000000000000E+000	1,4233333E+000	13	1,3193509E-006
2	1	0	1	0	5,075327930654748E+002	2,1059349E-001	2,1056744E-001	7,200245686194484E-003	3,000000000000000E+000	1,4233469E+000	13	1,5161373E-006
2	1	0	0	0	5,093329930199980E+002	2,2859505E-001	2,2854574E-001	7,512667658846565E-003	3,000000000000000E+000	1,4233609E+000	13	1,7169882E-006
2	1	0	1	0	5,111331929745211E+002	2,4659663E-001	2,4658458E-001	7,847306173061910E-003	3,000000000000000E+000	1,4233756E+000	13	1,9350248E-006
2	1	0	1	0	5,129331929290493E+002	2,6459816E-001	2,6455545E-001	8,158260132337038E-003	3,000000000000000E+000	1,4233909E+000	13	2,1583123E-006
2	1	0	0	0	5,147333928835724E+002	2,8259972E-001	2,8250724E-001	8,506841116791800E-003	3,000000000000000E+000	1,4234067E+000	13	2,4032443E-006
2	1	0	1	0	5,165335928380955E+002	3,0060130E-001	3,0054078E-001	8,810968973665262E-003	3,000000000000000E+000	1,4234231E+000	13	2,6480554E-006
2	1	0	0	0	5,183337927926186E+002	3,1860286E-001	3,1866452E-001	9,194382251869818E-003	3,000000000000000E+000	1,4234401E+000	13	2,9299233E-006
2	1	0	0	0	5,201337927471468E+002	3,3660442E-001	3,3655474E-001	9,576365402339214E-003	3,000000000000000E+000	1,4234577E+000	13	3,2229711E-006
2	1	0	1	0	5,219339927016699E+002	3,5460594E-001	3,5452664E-001	9,907383552571321E-003	3,000000000000000E+000	1,4234761E+000	13	3,5124315E-006
2	1	0	0	0	5,237341926561930E+002	3,7260750E-001	3,7251350E-001	1,039572068947127E-002	3,000000000000000E+000	1,4234952E+000	13	3,8725461E-006
2	1	0	1	0	5,255343926107162E+002	3,9060906E-001	3,9037508E-001	1,077373357946740E-002	3,000000000000000E+000	1,4235150E+000	13	4,2057973E-006
2	1	0	0	0	5,273345925652393E+002	4,0861061E-001	4,0857628E-001	1,131636065676705E-002	3,000000000000000E+000	1,4235356E+000	13	4,6235964E-006
2	1	0	0	0	5,291345925197675E+002	4,2661217E-001	4,2656839E-001	1,179003798514951E-002	3,000000000000000E+000	1,4235572E+000	13	5,0292574E-006
2	1	0	1	0	5,309347924742906E+002	4,4461372E-001	4,4460401E-001	1,263515761605022E-002	3,000000000000000E+000	1,4235799E+000	13	5,6176418E-006
2	1	0	0	0	5,327349924288137E+002	4,6261534E-001	4,6267998E-001	1,495247951458661E-002	3,000000000000000E+000	1,4236053E+000	13	6,9182129E-006
2	1	0	1	0	5,345351923833368E+002	4,8061684E-001	4,8043862E-001	1,658031769976431E-002	3,000000000000000E+000	1,4236349E+000	13	7,9658248E-006
2	1	0	1	0	5,363352923378625E+002	4,9861839E-001	4,9846756E-001	1,734409872985333E-002	3,000000000000000E+000	1,4236662E+000	13	8,6454711E-006
2	1	0	0	0	5,381353922923881E+002	5,1661998E-001	5,1651734E-001	1,884481070899502E-002	3,000000000000000E+000	1,4236996E+000	13	9,7336715E-006
2	1	0	1	0	5,399355922469113E+002	5,3462154E-001	5,3455502E-001	2,012573527517142E-002	3,000000000000000E+000	1,4237355E+000	13	1,0758313E-005
2	1	0	0	0	5,417357922014344E+002	5,5262309E-001	5,5260235E-001	2,169239747389742E-002	3,000000000000000E+000	1,4237741E+000	13	1,1987270E-005
2	1	0	1	0	5,435359921559575E+002	5,7062471E-001	5,7066029E-001	2,368352616731834E-002	3,000000000000000E+000	1,4238158E+000	13	1,3515248E-005
2	1	0	1	0	5,453359921104857E+002	5,8862621E-001	5,8864290E-001	2,745906730975811E-002	3,000000000000000E+000	1,4238626E+000	13	1,6163585E-005
2	1	0	0	0	5,471361920650088E+002	6,0662776E-001	6,0654157E-001	3,489329401162211E-002	3,000000000000000E+000	1,4239192E+000	13	2,1164233E-005
2	1	0	1	0	5,489363920195319E+002	6,2462932E-001	6,2461013E-001	4,872885927626958E-002	3,000000000000000E+000	1,4239944E+000	13	3,0436539E-005
2	1	0	0	0	5,507365919740550E+002	6,4263088E-001	6,4263511E-001	7,179641746915885E-002	3,000000000000000E+000	1,4241025E+000	13	4,6138899E-005
2	1	0	1	0	5,525667919278203E+002	6,6093242E-001	6,6108364E-001	1,084043794932468E-001	3,000000000000000E+000	1,4242667E+000	12	7,1664363E-005
2	1	0	1	0	5,543667918823485E+002	6,7893398E-001	6,7887515E-001	1,625585843188061E-001	3,000000000000000E+000	1,4245088E+000	12	1,1035698E-004
2	1	0	0	0	5,561669918368716E+002	6,9693553E-001	6,9686836E-001	2,431824437032142E-001	3,000000000000000E+000	1,4248705E+000	12	1,6946615E-004
2	1	0	1	0	5,579671917913947E+002	7,1493709E-001	7,1480423E-001	3,640828261979756E-001	3,000000000000000E+000	1,4254119E+000	12	2,6024794E-004
2	1	0	0	0	5,597673917459178E+002	7,3293871E-001	7,3291844E-001	5,410536336540055E-001	3,000000000000000E+000	1,4262193E+000	12	3,9654819E-004
2	1	0	0	0	5,615673917004460E+002	7,5094032E-001	7,5095826E-001	7,983373493232122E-001	3,000000000000000E+000	1,4274143E+000	12	5,9951801E-004
2	1	0	1	0	5,633975916542113E+002	7,6924193E-001	7,6934946E-001	1,168406831169571E+000	3,000000000000000E+000	1,4291986E+000	11	8,9891313E-004
2	1	0	0	0	5,651977916087344E+002	7,8724337E-001	7,8728414E-001	1,660337982078399E+000	3,000000000000000E+000	1,4317312E+000	11	1,3071578E-003
2	1	0	1	0	5,669979915632575E+002	8,0524486E-001	8,0510437E-001	2,293038119044568E+000	3,000000000000000E+000	1,4352734E+000	11	1,8461350E-003
2	1	0	0	0	5,687981915177807E+002	8,2324642E-001	8,2314956E-001	3,058676017379332E+000	3,000000000000000E+000	1,4400764E+000	11	2,5177479E-003
2	1	0	0	0	5,705981914723088E+002	8,4124815E-001	8,4128499E-001	3,959072138424279E+000	3,000000000000000E+000	1,4463786E+000	11	3,3307080E-003
2	1	0	1	0	5,723983914268320E+002	8,5924965E-001	8,5931432E-001	5,014835390779691E+000	3,000000000000000E+000	1,4544271E+000	11	4,3093199E-003
2	1	0	0	0	5,741985913813551E+002	8,7725115E-001	8,7733930E-001	6,191735765448323E+000	3,000000000000000E+000	1,4644872E+000	11	5,4322532E-003
2	1	0	1	0	5,759987913358782E+002	8,9525265E-001	8,9529639E-001	7,530259955812355E+000	3,000000000000000E+000	1,4768320E+000	11	6,7418148E-003
2	1	0	0	0	5,777989912904013E+002	9,1325426E-001	9,1328210E-001	9,012942609963574E+000	3,000000000000000E+000	1,4916806E+000	11	8,2313595E-003
2	1	0	0	0	5,795989912449295E+002	9,3125588E-001	9,3122107E-001	1,066000526370823E+001	3,000000000000000E+000	1,5093458E+000	11	9,9268211E-003
2	1	0	1	0	5,814291911986948E+002	9,4955736E-001	9,4962841E-001	1,237767113690024E+001	3,000000000000000E+000	1,5304203E+000	10	1,1754188E-002
2	1	0	0	0	5,832293911532179E+002	9,6755892E-001	9,6763945E-001	1,421847528881501E+001	3,000000000000000E+000	1,5543512E+000	10	1,3758358E-002
2	1	0	1	0	5,850295911077410E+002	9,8556048E-001	9,8558491E-001	1,624167678312023E+001	3,000000000000000E+000	1,5817475E+000	10	1,6007552E-002
2	1	0	0	0	5,867301910647802E+002	9,9746150E-001	9,9751604E-001	1,748124655750070E+001	3,000000000000000E+000	1,6109011E+000	10	1,7437823E-002
2	1	0	1	0	5,885303910193034E+002	9,7945994E-001	9,7955155E-001	1,476645661283420E+001	3,000000000000000E+000	1,6398063E+000	10	1,4464506E-002
2	1	0	1	0	5,903303909738315E+002	9,6145844E-001	9,6143836E-001	1,238851296791324E+001	3,000000000000000E+000	1,6642112E+000	10	1,1910792E-002
2	1	0	0	0	5,921305909283547E+002	9,4345683E-001	9,4334120E-001	1,032650543473385E+001	3,000000000000000E+000	1,6846269E+000	10	9,7414181E-003
2	1	0	1	0	5,939307908828778E+002	9,2545533E-001	9,2544144E-001	8,649945074761391E+000	3,000000000000000E+000	1,7017075E+000	10	8,0050174E-003
2	1	0	0	0	5,957309908374009E+002	9,0745384E-001	9,0751725E-001	7,112747584228160E+000	3,000000000000000E+000	1,7158397E+000	10	6,4549414E-003
2	1	0	1	0	5,975310907919265E+002	8,8945192E-001	8,8952792E-001	5,810871168950346E+000	3,000000000000000E+000	1,7274367E+000	10	5,1689320E-003
2	1	0	1	0	5,993311907464522E+002	8,7145060E-001	8,7153935E-001	4,713849547836513E+000	3,000000000000000E+000	1,7368760E+000	10	4,1083056E-003
2	1	0	0	0	6,011513907004701E+002	8,5324913E-001	8,5320020E-001	3,797791806636049E+000	3,000000000000000E+000	1,7445951E+000	11	3,2402768E-003
2	1	0	1	0	6,029515906549932E+002	8,3524758E-001	8,3522183E-001	3,015918594267646E+000	3,000000000000000E+000	1,7507014E+000	11	2,5189610E-003
2	1	0	0	0	6,047517906095163E+002	8,1724602E-001	8,1710559E-001	2,356351420559271E+000	3,000000000000000E+000	1,7555199E+000	11	1,9253879E-003
2	1	0	0	0	6,065517905640445E+002	7,9924434E-001	7,9922271E-001	1,810800724559364E+000	3,000000000000000E+000	1,7592504E+000	11	1,4472330E-003
2	1	0	1	0	6,083519905185676E+002	7,8124279E-001	7,8122640E-001	1,360994698824711E+000	3,000000000000000E+000	1,7620881E+000	11	1,0632450E-003
2	1	0	0	0	6,101521904730907E+002	7,6324129E-001	7,6320142E-001	9,961144784810365E-001	3,000000000000000E+000	1,7641959E+000	11	7,6023600E-004
2	1	0	1	0	6,119523904276139E+002	7,4523979E-001	7,4519432E-001	7,059733913866433E-001	3,000000000000000E+000	1,7657151E+000	11	5,2608736E-004
2	1	0	0	0	6,137525903821370E+002	7,2723824E-001	7,2717148E-001	4,823676211828420E-001	3,000000000000000E+000	1,7667727E+000	11	3,5076396E-004
2	1	0	0	0	6,155825903359073E+002	7,0893663E-001	7,0893312E-001	3,148011049531672E-001	3,000000000000000E+000	1,7674923E+000	12	2,2317293E-004
2	1	0	1	0	6,173827902904304E+002	6,9093508E-001	6,9097394E-001	1,983424407533483E-001	3,000000000000000E+000	1,7679461E+000	12	1,3704946E-004
2	1	0	0	0	6,191829902449535E+002	6,7293346E-001	6,7298931E-001	1,209808191353523E-001	3,000000000000000E+000	1,7682269E+000	12	8,1418795E-005
2	1	0	1	0	6,209831901994767E+002	6,5493196E-001	6,5488350E-001	7,269481682494572E-002	3,000000000000000E+000	1,7683963E+000	12	4,7606638E-005
2	1	0	1	0	6,227982901536234E+002	6,3677996E-001	6,3669074E-001	4,370753948924355E-002	3,000000000000000E+000	1,7684981E+000	12	2,7828186E-005
2	1	0	0	0	6,246133901077701E+002	6,1862880E-001	6,1848015E-001	2,568350599957986E-002	3,000000000000000E+000	1,7685581E+000	13	1,5884738E-005
2	1	0	1	0	6,264135900622932E+002	6,0062724E-001	6,0058880E-001	1,531472837517939E-002	3,000000000000000E+000	1,7685930E+000	13	9,1978545E-006
2	1	0	0	0	6,282137900168163E+002	5,8262569E-001	5,8260202E-001	9,351384053136097E-003	3,000000000000000E+000	1,7686136E+000	13	5,4481352E-006
2	1	0	1	0	6,300139899713395E+002	5,6462413E-001	5,6463742E-001	6,139160761247500E-003	3,000000000000000E+000	1,7686262E+000	13	3,4663999E-006
2	0	0	1	0	6,318139899258676E+002	5,4662257E-001	5,4649037E-001	4,302569175319227E-003	3,000000000000000E+000	1,7686346E+000	13	2,3513126E-006
2	0	0	0	0	6,336141898803908E+002	5,2862108E-001	5,2855766E-001	3,065721129077990E-003	3,000000000000000E+000	1,7686403E+000	13	1,6204103E-006
2	0	0	1	0	6,354143898349139E+002	5,1061952E-001	5,1053482E-001	2,053537842428982E-003	3,000000000000000E+000	1,7686441E+000	13	1,0484026E-006
2	0	0	0	0	6,372145897894370E+002	4,9261791E-001	4,9265310E-001	1,040308607655418E-003	3,000000000000000E+000	1,7686461E+000	13	5,1251124E-007
2	0	0	1	0	6,390147897439601E+002	4,7461632E-001	4,7471508E-001	-6,600172276686805E-005	3,000000000000000E+000	1,7686462E+000	13	-3,1332014E-008
2	0	0	1	0	6,408147896984883E+002	4,5661476E-001	4,5660618E-001	-1,428854298999926E-003	3,000000000000000E+000	1,7686442E+000	13	-6,5242369E-007
2	0	0	0	0	6,426149896530114E+002	4,3861321E-001	4,3853235E-001	-2,844654096441634E-003	3,000000000000000E+000	1,7686397E+000	13	-1,2474728E-006
2	0	0	1	0	6,444151896075346E+002	4,2061168E-001	4,2057738E-001	-3,628038925664157E-003	3,000000000000000E+000	1,7686330E+000	13	-1,5258711E-006
2	0	0	0	0	6,462153895620577E+002	4,0261012E-001	4,0237617E-001	-3,863907047283871E-003	3,000000000000000E+000	1,7686256E+000	13	-1,5547441E-006
2	0	0	0	0	6,480153895165859E+002	3,8460857E-001	3,8467595E-001	-4,076861432117274E-003	3,000000000000000E+000	1,7686179E+000	13	-1,5682706E-006
2	0	0	1	0	6,498155894711090E+002	3,6660698E-001	3,6657557E-001	-3,614303829425382E-003	3,000000000000000E+000	1,7686102E+000	13	-1,3249155E-006
2	0	0	0	0	6,516157894256321E+002	3,4860542E-001	3,4855476E-001	-3,141621655096842E-003	3,000000000000000E+000	1,7686036E+000	13	-1,0950272E-006
2	1	0	1	0	6,534159893801552E+002	3,3060387E-001	3,3061573E-001	-2,872830323347585E-003	3,000000000000000E+000	1,7685975E+000	13	-9,4980288E-007
2	1	0	0	0	6,552161893346783E+002	3,1260234E-001	3,1233278E-001	-2,804744006408760E-003	3,000000000000000E+000	1,7685918E+000	13	-8,7601347E-007
2	1	0	0	0	6,570161892892065E+002	2,9460078E-001	2,9447123E-001	-2,826951011061108E-003	3,000000000000000E+000	1,7685862E+000	13	-8,3245573E-007
2	1	0	1	0	6,588163892437296E+002	2,7659923E-001	2,7654594E-001	-3,050818626745777E-003	3,000000000000000E+000	1,7685802E+000	13	-8,4369151E-007
2	1	0	0	0	6,606165891982528E+002	2,5859770E-001	2,5862917E-001	-3,262963255270673E-003	3,000000000000000E+000	1,7685740E+000	13	-8,4389751E-007
2	1	0	1	0	6,624167891527759E+002	2,4059612E-001	2,4054264E-001	-3,538872581472148E-003	3,000000000000000E+000	1,7685672E+000	13	-8,5124975E-007
2	1	0	1	0	6,642168891073015E+002	2,2259365E-001	2,2240825E-001	-3,860678109367226E-003	3,000000000000000E+000	1,7685598E+000	13	-8,5864667E-007
2	0	0	0	0	6,660169890618272E+002	2,0459299E-001	2,0449471E-001	-4,216810275853231E-003	3,000000000000000E+000	1,7685519E+000	13	-8,6231540E-007
2	0	0	1	0	6,678171890163503E+002	1,8659143E-001	1,8643466E-001	-4,553711496218635E-003	3,000000000000000E+000	1,7685432E+000	13	-8,4896965E-007
2	0	0	0	0	6,696173889708734E+002	1,6858988E-001	1,6842239E-001	-4,958187818071280E-003	3,000000000000000E+000	1,7685341E+000	13	-8,3506984E-007
2	0	0	1	0	6,714175889253966E+002	1,5058832E-001	1,5058309E-001	-5,367922292525362E-003	3,000000000000000E+000	1,7685241E+000	13	-8,0831830E-007
2	0	0	1	0	6,732175888799247E+002	1,3258676E-001	1,3252515E-001	-5,833075025024038E-003	3,000000000000000E+000	1,7685133E+000	13	-7,7302911E-007
2	0	0	0	0	6,750177888344479E+002	1,1458521E-001	1,1442798E-001	-6,371796290666115E-003	3,000000000000000E+000	1,7685016E+000	13	-7,2911178E-007
2	0	0	1	0	6,768179887889710E+002	9,6583650E-002	9,6499540E-002	-6,918443689452658E-003	3,000000000000000E+000	1,7684889E+000	13	-6,6762664E-007
2	0	0	0	0	6,786181887434941E+002	7,8582093E-002	7,8437366E-002	-7,521268727335440E-003	3,000000000000000E+000	1,7684752E+000	13	-5,8994851E-007
2	0	0	1	0	6,804183886980172E+002	6,0580537E-002	6,0571540E-002	-8,343889545627745E-003	3,000000000000000E+000	1,7684602E+000	13	-5,0540223E-007
2	0	0	1	0	6,822183886525454E+002	4,2578980E-002	4,2569865E-002	-9,163595992571633E-003	3,000000000000000E+000	1,7684436E+000	13	-3,9009305E-007
2	0	0	0	0	6,840185886070685E+002	2,4577424E-002	2,4479046E-002	-1,015362625993377E-002	3,000000000000000E+000	1,7684253E+000	13	-2,4855109E-007
2	0	0	1	0	6,858187885615916E+002	6,5758657E-003	6,4858636E-003	-1,162887727777060E-002	3,000000000000000E+000	1,7684048E+000	13	-7,5423308E-008
2	0	0	1	0	6,864713885451056E+002	2,5299727E-005	-6,5505737E-005	-1,152963230075937E-002	3,000000000000000E+000	1,7683969E+000	13	7,5525708E-010