File: Data/2022_01_05 CoNx Ti electrode1_02_CV_C05.mpt
EC-Lab ASCII FILE
Nb header lines : 58

Cyclic Voltammetry

Run on channel : 5 (SN 30436)
User :
CE vs. WE compliance from -10 V to 10 V
Electrode connection : standard
Potential control : Ewe
Ewe ctrl range : min = -2.50 V, max = 2.50 V
Safety Limits :
	Do not start on E overload
Acquisition started on : 01/05/2023 11:11:11.191
Technique started on : 01/05/2023 11:12:32.302
Loaded Setting File :  C:\Users\grupogalan\Documents\EC-Lab\Data\Scott\2022_01_04 NiNx Ti electrode1.mps
Saved on :
	File : 2022_01_05 CoNx Ti electrode1_02_CV_C05.mpr
	Directory : C:\Users\grupogalan\Documents\EC-Lab\Data\Scott\
	Host : 169.254.104.159
Device : VSP (SN 1176)
Address : USB
EC-Lab for windows v11.46 (software)
Internet server v11.40 (firmware)
Command interpretor v11.40 (firmware)
Electrode material :
Initial state :
Electrolyte :
Comments :
Electrode surface area : 0.000 cm²
Characteristic mass : 0.001 g
Equivalent Weight : 0.000 g/eq.
Density : 0.000 g/cm3
Volume (V) : 0.001 cm³
Cycle Definition : Charge/Discharge alternance
Ei (V)              0.000
vs.                 Eoc
dE/dt               10.000
dE/dt unit          mV/s
E1 (V)              1.000
vs.                 Ref
Step percent        50
N                   10
E range min (V)     -2.500
E range max (V)     2.500
I Range             Auto
I Range min         Unset
I Range max         Unset
I Range init        Unset
Bandwidth           5
E2 (V)              0.000
vs.                 Ref
nc cycles           2
Reverse Scan        0
Ef (V)              0.000
vs.                 Ref

mode	ox/red	error	control changes	counter inc.	time/s	control/V	Ewe/V	<I>/mA	cycle number	(Q-Qo)/C	I Range	P/W
2	0	0	1	0	81.1106	-0.274206	-0.274491	-0.019174	1	0.0000000E+000	13	5.2631e-06
2	1	0	0	0	81.9658	-0.265655	-0.265776	0.000378607	1	3.46224e-07	13	-1.00625e-07
2	1	0	1	0	82.8659	-0.256653	-0.256762	0.000522794	1	8.08548e-07	13	-1.34234e-07
2	1	0	1	0	83.766	-0.247653	-0.247629	0.000727227	1	1.44179e-06	13	-1.80082e-07
2	1	0	1	0	84.6661	-0.238652	-0.238939	0.000728592	1	2.17188e-06	13	-1.74089e-07
2	1	0	0	0	85.5662	-0.229651	-0.229735	0.00127145	1	3.07217e-06	13	-2.92098e-07
2	1	0	1	0	86.4664	-0.22065	-0.220662	0.000754985	1	4.04981e-06	13	-1.66597e-07
2	1	0	1	0	87.3664	-0.211649	-0.211729	0.000779192	1	4.85236e-06	13	-1.64978e-07
2	0	0	0	0	88.2666	-0.202648	-0.202739	0.000821833	1	5.69235e-06	13	-1.66618e-07
2	1	0	0	0	89.1666	-0.193647	-0.193674	0.00111659	1	6.84198e-06	13	-2.16255e-07
2	0	0	1	0	90.0668	-0.184646	-0.184773	0.000873541	1	7.78331e-06	13	-1.61407e-07
2	0	0	1	0	90.9668	-0.175645	-0.175776	0.000917723	1	8.68342e-06	13	-1.61313e-07
2	0	0	0	0	91.867	-0.166644	-0.16672	0.00098336	1	9.6183e-06	13	-1.63945e-07
2	0	0	0	0	92.767	-0.157643	-0.157886	0.00109835	1	1.06639e-05	13	-1.73414e-07
2	0	0	1	0	93.6672	-0.148642	-0.148741	0.00111166	1	1.17082e-05	13	-1.6535e-07
2	1	0	1	0	94.5672	-0.139641	-0.139755	0.00108822	1	1.28424e-05	13	-1.52084e-07
2	1	0	0	0	95.4674	-0.130639	-0.130767	0.00112974	1	1.39367e-05	13	-1.47733e-07
2	1	0	0	0	96.3674	-0.121638	-0.121755	0.00119834	1	1.5206e-05	13	-1.45904e-07
2	1	0	1	0	97.2676	-0.112637	-0.11277	0.00132899	1	1.66515e-05	13	-1.4987e-07
2	0	0	1	0	98.1676	-0.103636	-0.103655	0.00131515	1	1.7946e-05	13	-1.36323e-07
2	0	0	0	0	99.0678	-0.0946353	-0.0947873	0.00139557	1	1.92815e-05	13	-1.32283e-07
2	0	0	0	0	99.9678	-0.0856343	-0.0857206	0.00140688	1	2.07358e-05	13	-1.20598e-07
2	0	0	1	0	100.868	-0.0766333	-0.0767347	0.00153886	1	2.21768e-05	13	-1.18084e-07
2	0	0	1	0	101.768	-0.0676323	-0.0677444	0.00153552	1	2.36432e-05	13	-1.04023e-07
2	0	0	0	0	102.668	-0.0586312	-0.058785	0.0016906	1	2.52028e-05	13	-9.93818e-08
2	0	0	0	0	103.568	-0.0496302	-0.049747	0.00164554	1	2.67975e-05	13	-8.18606e-08
2	0	0	1	0	104.468	-0.0406292	-0.0407483	0.00172929	1	2.84181e-05	13	-7.04655e-08
2	1	0	1	0	105.368	-0.0316281	-0.0316403	0.00183346	1	3.01605e-05	13	-5.8011e-08
2	1	0	0	0	106.269	-0.0226271	-0.0226649	0.00236587	1	3.22268e-05	13	-5.36222e-08
2	1	0	0	0	107.169	-0.0136261	-0.0137447	0.0020905	1	3.42727e-05	13	-2.87333e-08
2	1	0	1	0	108.069	-0.00462504	-0.00474281	0.00205574	1	3.64122e-05	13	-9.74996e-09
2	1	0	1	0	108.969	0.00437598	0.00434187	0.00181112	1	3.82996e-05	13	7.86364e-09
2	1	0	0	0	109.869	0.013377	0.0134329	0.00180128	1	4.00501e-05	13	2.41964e-08
2	1	0	0	0	110.769	0.022378	0.0223913	0.00190729	1	4.17993e-05	13	4.27067e-08
2	1	0	1	0	111.669	0.0313791	0.031389	0.00208798	1	4.3642e-05	13	6.55395e-08
2	1	0	1	0	112.569	0.0403801	0.0403367	0.00203835	1	4.55472e-05	13	8.22204e-08
2	1	0	0	0	113.469	0.0493811	0.0493853	0.00223644	1	4.75506e-05	13	1.10447e-07
2	1	0	1	0	114.37	0.0583826	0.0584539	0.00220142	1	4.97366e-05	13	1.28682e-07
2	1	0	1	0	115.27	0.0673832	0.0673721	0.00229296	1	5.17943e-05	13	1.54482e-07
2	1	0	1	0	116.17	0.0763835	0.0763446	0.00236175	1	5.39195e-05	13	1.80307e-07
2	1	0	0	0	117.07	0.0853852	0.0853844	0.00271395	1	5.61907e-05	13	2.31729e-07
2	1	0	1	0	117.97	0.0943862	0.094399	0.00265956	1	5.87259e-05	13	2.5106e-07
2	1	0	1	0	118.87	0.103387	0.103557	0.00291419	1	6.13581e-05	13	3.01785e-07
2	1	0	0	0	119.77	0.112388	0.112445	0.0030636	1	6.40917e-05	13	3.44488e-07
2	1	0	0	0	120.67	0.121389	0.121353	0.00355573	1	6.71362e-05	13	4.31497e-07
2	1	0	1	0	121.57	0.13039	0.130361	0.00374648	1	7.04642e-05	13	4.88395e-07
2	1	0	1	0	122.47	0.139391	0.139395	0.00439653	1	7.4216e-05	13	6.12854e-07
2	1	0	0	0	123.371	0.148392	0.1484	0.00524053	1	7.8644e-05	13	7.77693e-07
2	1	0	0	0	124.271	0.157393	0.157377	0.00635079	1	8.40107e-05	13	9.9947e-07
2	1	0	1	0	125.171	0.166394	0.166303	0.00787016	1	9.0532e-05	13	1.30883e-06
2	1	0	1	0	126.071	0.175395	0.175396	0.00957869	1	9.8491e-05	13	1.68006e-06
2	1	0	0	0	126.971	0.184397	0.184308	0.0117093	1	0.000108177	13	2.15812e-06
2	1	0	0	0	127.871	0.193398	0.193472	0.0144366	1	0.000120127	13	2.79307e-06
2	1	0	1	0	128.771	0.202399	0.202285	0.0177765	1	0.000134764	13	3.59591e-06
2	1	0	1	0	129.671	0.2114	0.211415	0.0220432	1	0.00015288	13	4.66027e-06
2	1	0	0	0	130.571	0.220401	0.220396	0.0273529	1	0.000175346	13	6.02846e-06
2	1	0	0	0	131.471	0.229402	0.229389	0.0338243	1	0.000203384	13	7.75894e-06
2	1	0	1	0	132.372	0.238403	0.238366	0.041933	1	0.000237834	13	9.99539e-06
2	1	0	1	0	133.272	0.247404	0.247401	0.0521221	1	0.000280486	13	1.2895e-05
2	1	0	0	0	134.172	0.256405	0.25644	0.0647779	1	0.000333443	13	1.66116e-05
2	1	0	0	0	135.072	0.265406	0.265254	0.0805823	1	0.000399271	13	2.13748e-05
2	1	0	1	0	135.972	0.274407	0.274491	0.0999612	1	0.000481124	13	2.74385e-05
2	1	0	1	0	136.902	0.283708	0.283638	0.125148	1	0.000586404	12	3.54969e-05
2	1	0	0	0	137.802	0.292709	0.292656	0.15246	1	0.000711803	12	4.46184e-05
2	1	0	0	0	138.702	0.30171	0.301611	0.183495	1	0.000863538	12	5.5344e-05
2	1	0	1	0	139.602	0.310711	0.310676	0.217429	1	0.00104469	12	6.75499e-05
2	1	0	1	0	140.502	0.319712	0.319726	0.254347	1	0.00125765	12	8.13211e-05
2	1	0	0	0	141.403	0.328713	0.328614	0.293511	1	0.00150495	12	9.64518e-05
2	1	0	0	0	142.303	0.337714	0.337735	0.334771	1	0.00178852	12	0.000113064
2	1	0	1	0	143.203	0.346715	0.346675	0.379417	1	0.00211073	12	0.000131534
2	1	0	1	0	144.103	0.355716	0.355667	0.425114	1	0.00247399	12	0.000151199
2	1	0	0	0	145.003	0.364717	0.364723	0.47322	1	0.00287938	12	0.000172595
2	1	0	1	0	145.903	0.373718	0.373702	0.522534	1	0.00332859	12	0.000195272
2	1	0	1	0	146.803	0.382719	0.382656	0.574636	1	0.00382337	12	0.000219888
2	1	0	0	0	147.703	0.39172	0.391689	0.63133	1	0.00436732	12	0.000247285
2	1	0	0	0	148.603	0.400721	0.400674	0.689552	1	0.00496324	12	0.000276285
2	1	0	1	0	149.504	0.409722	0.409755	0.749341	1	0.00561168	12	0.000307047
2	1	0	1	0	150.404	0.418723	0.418602	0.812537	1	0.00631607	12	0.00034013
2	1	0	0	0	151.304	0.427724	0.427661	0.878994	1	0.00707879	12	0.000375912
2	1	0	0	0	152.204	0.436725	0.436668	0.945204	1	0.00790157	12	0.00041274
2	1	0	1	0	153.104	0.445726	0.445757	1.01263	1	0.00878398	12	0.000451387
2	1	0	1	0	154.034	0.455027	0.455142	1.08538	1	0.00976256	11	0.000494001
2	1	0	0	0	154.934	0.464028	0.464034	1.15971	1	0.0107754	11	0.000538147
2	1	0	0	0	155.834	0.473029	0.47292	1.23947	1	0.0118565	11	0.00058617
2	1	0	1	0	156.734	0.48203	0.481947	1.32234	1	0.0130119	11	0.000637295
2	1	0	1	0	157.634	0.491031	0.490942	1.4096	1	0.0142431	11	0.00069203
2	1	0	0	0	158.535	0.500032	0.499939	1.49848	1	0.0155544	11	0.00074915
2	1	0	0	0	159.435	0.509034	0.508981	1.58533	1	0.0169442	11	0.000806901
2	1	0	1	0	160.335	0.518035	0.517999	1.67397	1	0.0184137	11	0.000867116
2	1	0	1	0	161.235	0.527036	0.527142	1.76673	1	0.0199636	11	0.000931317
2	1	0	0	0	162.135	0.536037	0.535945	1.86309	1	0.0215999	11	0.000998514
2	1	0	0	0	163.035	0.545038	0.545001	1.96144	1	0.0233232	11	0.00106898
2	1	0	1	0	163.935	0.554039	0.553956	2.06075	1	0.0251356	11	0.00114156
2	1	0	1	0	164.835	0.56304	0.563072	2.16629	1	0.0270397	11	0.00121978
2	1	0	0	0	165.735	0.572041	0.571991	2.27733	1	0.0290424	11	0.00130261
2	1	0	0	0	166.635	0.581042	0.580976	2.39172	1	0.0311463	11	0.00138953
2	1	0	1	0	167.536	0.590043	0.590118	2.50883	1	0.0333543	11	0.00148051
2	1	0	1	0	168.436	0.599044	0.598969	2.62584	1	0.0356675	11	0.0015728
2	1	0	0	0	169.336	0.608045	0.608133	2.7536	1	0.0380911	11	0.00167456
2	1	0	0	0	170.236	0.617046	0.617153	2.88653	1	0.0406313	11	0.00178143
2	1	0	1	0	171.136	0.626047	0.626016	3.02925	1	0.0432963	11	0.00189636
2	1	0	1	0	172.036	0.635048	0.634903	3.18817	1	0.0460963	11	0.00202418
2	1	0	0	0	172.936	0.644049	0.64412	3.3654	1	0.0490481	11	0.00216772
2	1	0	1	0	173.836	0.653051	0.653026	3.56117	1	0.0521673	11	0.00232554
2	1	0	1	0	174.736	0.662051	0.662024	3.78624	1	0.0554756	11	0.00250658
2	1	0	1	0	175.637	0.671052	0.671045	4.04685	1	0.0590026	11	0.00271562
2	1	0	0	0	176.537	0.680053	0.680003	4.33858	1	0.0627777	11	0.00295025
2	1	0	1	0	177.437	0.689053	0.689024	4.66501	1	0.0668314	11	0.0032143
2	1	0	1	0	178.337	0.698055	0.697936	5.03323	1	0.0711984	11	0.00351287
2	1	0	0	0	179.237	0.707056	0.707072	5.44836	1	0.0759182	11	0.00385239
2	1	0	0	0	180.137	0.716057	0.716037	5.89517	1	0.0810209	11	0.00422116
2	1	0	1	0	181.037	0.725058	0.72515	6.3966	1	0.0865537	11	0.00463849
2	1	0	1	0	181.937	0.734059	0.733989	6.93796	1	0.0925562	11	0.00509239
2	1	0	0	0	182.837	0.74306	0.742994	7.54197	1	0.0990696	11	0.00560364
2	1	0	0	0	183.737	0.752061	0.751978	8.17592	1	0.106145	11	0.00614811
2	1	0	1	0	184.638	0.761062	0.761027	8.85752	1	0.113818	11	0.00674081
2	1	0	1	0	185.538	0.770063	0.770016	9.60436	1	0.122137	11	0.00739551
2	1	0	0	0	186.438	0.779064	0.778972	10.3605	1	0.131126	11	0.00807054
2	1	0	0	0	187.368	0.788365	0.788422	11.2433	1	0.141169	10	0.00886443
2	1	0	1	0	188.268	0.797366	0.797436	12.1028	1	0.15167	10	0.00965119
2	1	0	1	0	189.168	0.806367	0.806324	12.9689	1	0.162954	10	0.0104571
2	1	0	0	0	190.068	0.815368	0.815412	13.9462	1	0.175072	10	0.0113719
2	1	0	0	0	190.968	0.824369	0.82444	14.9539	1	0.188065	10	0.0123286
2	1	0	1	0	191.868	0.83337	0.833444	15.9164	1	0.201971	10	0.0132654
2	1	0	1	0	192.768	0.842372	0.842442	16.9765	1	0.216777	10	0.0143017
2	1	0	0	0	193.669	0.851373	0.851404	18.0551	1	0.232558	10	0.0153722
2	1	0	0	0	194.569	0.860374	0.86048	19.1243	1	0.249299	10	0.0164561
2	1	0	1	0	195.469	0.869375	0.869398	20.2677	1	0.267051	10	0.0176207
2	1	0	1	0	196.369	0.878376	0.878456	21.4471	1	0.285843	10	0.0188403
2	1	0	0	0	197.269	0.887377	0.887529	22.6713	1	0.30571	10	0.0201215
2	1	0	0	0	198.169	0.896378	0.896434	24.0851	1	0.32678	10	0.0215907
2	1	0	1	0	199.069	0.905379	0.905379	25.34	1	0.349011	10	0.0229423
2	1	0	1	0	199.969	0.91438	0.91437	26.5752	1	0.372367	10	0.0242995
2	1	0	0	0	200.869	0.923381	0.923413	27.9308	1	0.396864	10	0.0257917
2	1	0	0	0	201.769	0.932382	0.932523	29.4937	1	0.42273	10	0.0275036
2	1	0	1	0	202.67	0.941383	0.941418	30.6207	1	0.449814	10	0.0288269
2	1	0	1	0	203.57	0.950384	0.950487	32.0071	1	0.478076	10	0.0304223
2	1	0	0	0	204.47	0.959385	0.959425	32.9109	1	0.507233	10	0.0315756
2	1	0	1	0	205.37	0.968385	0.968286	34.0861	1	0.537492	10	0.0330051
2	1	0	1	0	206.27	0.977387	0.977404	35.3502	1	0.568758	10	0.0345514
2	1	0	0	0	207.17	0.986388	0.986576	36.2932	1	0.600988	10	0.035806
2	1	0	0	0	208.07	0.995389	0.995416	37.6852	1	0.63417	10	0.0375125
2	1	0	1	0	208.791	0.997489	0.99765	37.2858	1	0.661371	10	0.0371982
2	1	0	1	0	209.691	0.988488	0.988596	34.8886	1	0.693805	10	0.0344907
2	1	0	0	0	210.591	0.979487	0.979578	32.7938	1	0.724235	10	0.0321241
2	1	0	0	0	211.491	0.970486	0.97056	31.0703	1	0.753008	10	0.0301556
2	1	0	1	0	212.391	0.961485	0.961645	29.2133	1	0.780087	10	0.0280928
2	1	0	1	0	213.291	0.952484	0.952599	27.5281	1	0.805577	10	0.0262232
2	1	0	0	0	214.191	0.943483	0.9435	25.9318	1	0.829631	10	0.0244666
2	1	0	0	0	215.091	0.934482	0.934483	24.6916	1	0.85242	10	0.0230738
2	1	0	1	0	215.992	0.925481	0.925552	23.2282	1	0.874001	10	0.0214989
2	1	0	1	0	216.892	0.91648	0.916549	22.0789	1	0.894351	10	0.0202364
2	1	0	0	0	217.792	0.907479	0.907419	20.7418	1	0.913627	10	0.0188215
2	1	0	1	0	218.692	0.898478	0.898491	19.3726	1	0.931667	10	0.0174061
2	1	0	1	0	219.592	0.889477	0.889526	17.9786	1	0.948465	10	0.0159925
2	1	0	1	0	220.492	0.880476	0.88068	17.0077	1	0.9642	10	0.0149783
2	1	0	0	0	221.392	0.871475	0.871556	15.8344	1	0.97899	10	0.0138005
2	1	0	1	0	222.292	0.862474	0.862535	14.6528	1	0.992708	10	0.0126385
2	1	0	1	0	223.192	0.853473	0.853559	13.5672	1	1.00539	10	0.0115804
2	1	0	0	0	224.093	0.844472	0.844542	12.5064	1	1.01713	10	0.0105622
2	1	0	0	0	224.993	0.835471	0.835553	11.4576	1	1.0279	10	0.00957345
2	1	0	1	0	225.893	0.82647	0.82653	10.5273	1	1.03779	10	0.00870116
2	1	0	1	0	226.793	0.817469	0.817373	9.59743	1	1.04684	10	0.00784468
2	1	0	0	0	227.693	0.808468	0.808477	8.76461	1	1.05508	10	0.00708598
2	1	0	0	0	228.593	0.799467	0.799475	7.91782	1	1.06259	10	0.0063301
2	1	0	1	0	229.493	0.790466	0.790378	7.10128	1	1.06935	10	0.0056127
2	1	0	1	0	230.393	0.781465	0.781341	6.409	1	1.07542	10	0.00500762
2	1	0	0	0	231.293	0.772464	0.77242	5.78139	1	1.08089	10	0.00446566
2	1	0	0	0	232.193	0.763462	0.763441	5.15822	1	1.0858	10	0.003938
2	1	0	1	0	233.094	0.754462	0.754421	4.58154	1	1.09018	10	0.00345641
2	1	0	1	0	234.024	0.74516	0.745133	4.06001	1	1.0942	11	0.00302524
2	1	0	0	0	234.924	0.736159	0.73608	3.57096	1	1.09762	11	0.00262851
2	1	0	0	0	235.824	0.727158	0.727194	3.12521	1	1.10063	11	0.00227263
2	1	0	1	0	236.724	0.718157	0.718218	2.7197	1	1.10326	11	0.00195334
2	1	0	1	0	237.624	0.709156	0.709044	2.35173	1	1.10553	11	0.00166748
2	1	0	0	0	238.524	0.700155	0.700136	2.02291	1	1.1075	11	0.00141631
2	1	0	0	0	239.424	0.691154	0.691114	1.72797	1	1.10918	11	0.00119422
2	1	0	1	0	240.324	0.682153	0.682064	1.46765	1	1.11061	11	0.00100103
2	1	0	1	0	241.224	0.673152	0.67308	1.23885	1	1.11182	11	0.000833848
2	1	0	0	0	242.125	0.664151	0.664133	1.04128	1	1.11285	11	0.000691547
2	1	0	0	0	243.025	0.65515	0.655067	0.872819	1	1.1137	11	0.000571755
2	1	0	1	0	243.925	0.646149	0.646047	0.730501	1	1.11442	11	0.000471938
2	1	0	1	0	244.825	0.637148	0.637134	0.61106	1	1.11502	11	0.000389327
2	1	0	0	0	245.725	0.628147	0.628022	0.512498	1	1.11552	11	0.00032186
2	1	0	1	0	246.655	0.618846	0.618857	0.429234	1	1.11596	12	0.000265634
2	1	0	1	0	247.555	0.609845	0.609811	0.361832	1	1.11631	12	0.000220649
2	1	0	1	0	248.455	0.600845	0.60076	0.306273	1	1.11661	12	0.000183997
2	1	0	0	0	249.355	0.591843	0.591821	0.260085	1	1.11686	12	0.000153924
2	1	0	1	0	250.256	0.582842	0.582817	0.221513	1	1.11707	12	0.000129101
2	1	0	1	0	251.156	0.573841	0.573895	0.188466	1	1.11726	12	0.00010816
2	1	0	0	0	252.056	0.56484	0.564794	0.16035	1	1.11741	12	9.05648e-05
2	1	0	0	0	252.956	0.555839	0.555784	0.136083	1	1.11754	12	7.56327e-05
2	1	0	1	0	253.856	0.546838	0.546821	0.114735	1	1.11765	12	6.27394e-05
2	1	0	1	0	254.756	0.537837	0.537846	0.096444	1	1.11775	12	5.1872e-05
2	1	0	0	0	255.656	0.528836	0.528827	0.0802443	1	1.11782	12	4.24353e-05
2	1	0	0	0	256.556	0.519835	0.51986	0.0658009	1	1.11789	12	3.42073e-05
2	1	0	1	0	257.456	0.510834	0.510752	0.053218	1	1.11794	12	2.71812e-05
2	1	0	1	0	258.386	0.501533	0.50144	0.0415556	1	1.11798	13	2.08377e-05
2	1	0	0	0	259.287	0.492532	0.492451	0.0313844	1	1.11801	13	1.54553e-05
2	1	0	0	0	260.187	0.483531	0.48342	0.0228625	1	1.11804	13	1.10522e-05
2	1	0	1	0	261.087	0.47453	0.474516	0.0155855	1	1.11805	13	7.3956e-06
2	1	0	1	0	261.987	0.465529	0.465411	0.00881574	1	1.11806	13	4.10294e-06
2	1	0	0	0	262.887	0.456528	0.456441	0.00293314	1	1.11807	13	1.33881e-06
2	1	0	0	0	263.787	0.447526	0.447382	-0.00238709	1	1.11807	13	-1.06794e-06
2	1	0	1	0	264.687	0.438526	0.438496	-0.00712486	1	1.11806	13	-3.12422e-06
2	0	0	1	0	265.587	0.429524	0.429529	-0.0112643	1	1.11805	13	-4.83836e-06
2	0	0	0	0	266.487	0.420523	0.420416	-0.0151416	1	1.11804	13	-6.36578e-06
2	0	0	0	0	267.387	0.411522	0.411556	-0.0183995	1	1.11802	13	-7.57242e-06
2	0	0	1	0	268.288	0.402521	0.402403	-0.021426	1	1.118	13	-8.62189e-06
2	0	0	1	0	269.188	0.39352	0.393497	-0.0241281	1	1.11798	13	-9.49435e-06
2	0	0	0	0	270.088	0.384519	0.384572	-0.0261884	1	1.11796	13	-1.00713e-05
2	0	0	0	0	270.988	0.375518	0.375469	-0.028194	1	1.11793	13	-1.0586e-05
2	0	0	1	0	271.888	0.366517	0.366445	-0.0298456	1	1.1179	13	-1.09368e-05
2	0	0	1	0	272.788	0.357516	0.35739	-0.0312552	1	1.11788	13	-1.11703e-05
2	0	0	0	0	273.688	0.348515	0.348461	-0.0324556	1	1.11785	13	-1.13095e-05
2	0	0	0	0	274.588	0.339514	0.339505	-0.0332818	1	1.11782	13	-1.12993e-05
2	0	0	1	0	275.488	0.330513	0.330487	-0.0339583	1	1.11779	13	-1.12228e-05
2	0	0	1	0	276.388	0.321511	0.321507	-0.034452	1	1.11775	13	-1.10766e-05
2	0	0	0	0	277.289	0.312511	0.312443	-0.0347807	1	1.11772	13	-1.0867e-05
2	0	0	1	0	278.189	0.303511	0.303445	-0.0349691	1	1.11769	13	-1.06112e-05
2	0	0	1	0	279.089	0.294509	0.294469	-0.0350448	1	1.11766	13	-1.03196e-05
2	0	0	0	0	279.989	0.285508	0.285416	-0.0349092	1	1.11763	13	-9.96365e-06
2	0	0	0	0	280.889	0.276507	0.276466	-0.0348566	1	1.11759	13	-9.63667e-06
2	0	0	1	0	281.789	0.267506	0.26745	-0.0344711	1	1.11756	13	-9.21931e-06
2	0	0	1	0	282.689	0.258505	0.258433	-0.0341353	1	1.11753	13	-8.82168e-06
2	0	0	0	0	283.589	0.249504	0.249387	-0.0336734	1	1.1175	13	-8.39772e-06
2	0	0	0	0	284.489	0.240503	0.240387	-0.0331164	1	1.11747	13	-7.96077e-06
2	0	0	1	0	285.39	0.231502	0.231359	-0.0325036	1	1.11744	13	-7.52001e-06
2	0	0	1	0	286.29	0.222501	0.222312	-0.0318591	1	1.11741	13	-7.08265e-06
2	0	0	0	0	287.19	0.2135	0.213292	-0.0311054	1	1.11738	13	-6.63452e-06
2	0	0	0	0	288.09	0.204499	0.204336	-0.0304022	1	1.11735	13	-6.21228e-06
2	0	0	1	0	288.99	0.195498	0.195411	-0.0295421	1	1.11733	13	-5.77285e-06
2	0	0	1	0	289.89	0.186497	0.186337	-0.0287027	1	1.1173	13	-5.34837e-06
2	0	0	0	0	290.79	0.177496	0.177356	-0.0278167	1	1.11727	13	-4.93346e-06
2	0	0	0	0	291.69	0.168495	0.168397	-0.0268718	1	1.11725	13	-4.52512e-06
2	0	0	1	0	292.59	0.159494	0.159425	-0.0259401	1	1.11722	13	-4.13549e-06
2	0	0	1	0	293.49	0.150493	0.150404	-0.0250056	1	1.1172	13	-3.76094e-06
2	0	0	0	0	294.391	0.141492	0.141453	-0.0240216	1	1.11718	13	-3.39792e-06
2	0	0	0	0	295.291	0.132491	0.132451	-0.0231382	1	1.11716	13	-3.06467e-06
2	0	0	1	0	296.191	0.12349	0.123367	-0.0222733	1	1.11714	13	-2.74779e-06
2	0	0	1	0	297.091	0.114489	0.114551	-0.0213949	1	1.11712	13	-2.45081e-06
2	0	0	0	0	297.991	0.105487	0.105544	-0.0205143	1	1.1171	13	-2.16516e-06
2	0	0	0	0	298.891	0.0964865	0.0965429	-0.019597	1	1.11708	13	-1.89195e-06
2	0	0	1	0	299.791	0.0874855	0.0875855	-0.018814	1	1.11706	13	-1.64783e-06
2	0	0	1	0	300.691	0.0784844	0.078538	-0.0181527	1	1.11705	13	-1.42567e-06
2	0	0	0	0	301.591	0.0694834	0.0695223	-0.0175992	1	1.11703	13	-1.22354e-06
2	0	0	0	0	302.491	0.0604824	0.0605979	-0.0171176	1	1.11702	13	-1.03729e-06
2	0	0	1	0	303.392	0.0514814	0.0513806	-0.0167096	1	1.117	13	-8.58549e-07
2	0	0	1	0	304.292	0.0424803	0.042592	-0.0163157	1	1.11698	13	-6.94919e-07
2	0	0	0	0	305.192	0.0334793	0.0335901	-0.0160168	1	1.11697	13	-5.38004e-07
2	0	0	0	0	306.092	0.0244783	0.0244449	-0.0157091	1	1.11696	13	-3.84007e-07
2	0	0	1	0	306.992	0.0154772	0.0154717	-0.0154608	1	1.11694	13	-2.39204e-07
2	0	0	1	0	307.892	0.00647578	0.0064544	-0.015233	1	1.11693	13	-9.83198e-08
2	0	0	0	1	308.693	0.00157567	0.00160373	-0.0140109	2	1.11692	13	-2.24697e-08
2	0	0	1	1	309.593	0.0105767	0.0104984	-0.0123016	2	1.1169	13	-1.29147e-07
2	0	0	1	1	310.493	0.0195777	0.0196468	-0.01095	2	1.11689	13	-2.15132e-07
2	0	0	0	1	311.393	0.0285787	0.0285659	-0.00984501	2	1.11688	13	-2.81232e-07
2	0	0	0	1	312.293	0.0375798	0.0375094	-0.00887076	2	1.11688	13	-3.32737e-07
2	0	0	1	1	313.193	0.0465808	0.0464402	-0.00802348	2	1.11687	13	-3.72612e-07
2	0	0	1	1	314.093	0.0555818	0.0556109	-0.00722256	2	1.11686	13	-4.01653e-07
2	0	0	0	1	314.993	0.0645828	0.0645969	-0.0065324	2	1.11686	13	-4.21973e-07
2	0	0	0	1	315.893	0.0735839	0.0735531	-0.00585191	2	1.11685	13	-4.30426e-07
2	0	0	1	1	316.794	0.0825849	0.0824871	-0.00522372	2	1.11684	13	-4.3089e-07
2	0	0	1	1	317.694	0.0915859	0.0914794	-0.00460185	2	1.11684	13	-4.20975e-07
2	0	0	0	1	318.594	0.100587	0.100499	-0.00397229	2	1.11684	13	-3.99213e-07
2	0	0	0	1	319.494	0.109588	0.109633	-0.00326783	2	1.11683	13	-3.58261e-07
2	0	0	1	1	320.394	0.118589	0.11842	-0.00243141	2	1.11683	13	-2.87928e-07
2	1	0	1	1	321.294	0.12759	0.127358	-0.00150924	2	1.11683	13	-1.92213e-07
2	1	0	0	1	322.194	0.136591	0.136419	-0.000413522	2	1.11683	13	-5.64122e-08
2	1	0	0	1	323.094	0.145592	0.145513	0.000996198	2	1.11683	13	1.4496e-07
2	1	0	1	1	323.994	0.154593	0.154555	0.00269175	2	1.11683	13	4.16024e-07
2	1	0	1	1	324.894	0.163594	0.163501	0.00474776	2	1.11683	13	7.76265e-07
2	1	0	0	1	325.795	0.172595	0.172466	0.00720382	2	1.11684	13	1.24241e-06
2	1	0	1	1	326.695	0.181596	0.181485	0.0101013	2	1.11685	13	1.83323e-06
2	1	0	1	1	327.595	0.190597	0.19044	0.0132582	2	1.11686	13	2.5249e-06
2	1	0	0	1	328.495	0.199598	0.199388	0.0166963	2	1.11687	13	3.32904e-06
2	1	0	0	1	329.395	0.208599	0.208497	0.0203099	2	1.11689	13	4.23455e-06
2	1	0	1	1	330.295	0.2176	0.217521	0.0236599	2	1.11691	13	5.14652e-06
2	1	0	1	1	331.195	0.226601	0.226539	0.0263989	2	1.11693	13	5.98037e-06
2	1	0	0	1	332.095	0.235602	0.235527	0.0283153	2	1.11696	13	6.66902e-06
2	1	0	0	1	332.995	0.244603	0.244676	0.0296314	2	1.11698	13	7.2501e-06
2	1	0	1	1	333.896	0.253604	0.253615	0.0308668	2	1.11701	13	7.8283e-06
2	1	0	1	1	334.796	0.262605	0.262597	0.0323835	2	1.11704	13	8.50381e-06
2	1	0	0	1	335.696	0.271606	0.271689	0.0343005	2	1.11707	13	9.31909e-06
2	1	0	0	1	336.596	0.280607	0.280611	0.0367985	2	1.1171	13	1.03261e-05
2	1	0	1	1	337.496	0.289608	0.289631	0.0396113	2	1.11714	13	1.14726e-05
2	1	0	1	1	338.396	0.29861	0.298653	0.0428263	2	1.11717	13	1.27902e-05
2	1	0	0	1	339.296	0.307611	0.307666	0.0464404	2	1.11721	13	1.42881e-05
2	1	0	0	1	340.196	0.316612	0.316681	0.0501894	2	1.11726	13	1.5894e-05
2	1	0	1	1	341.096	0.325613	0.325646	0.0542903	2	1.11731	13	1.76794e-05
2	1	0	1	1	341.996	0.334614	0.334659	0.0587985	2	1.11736	13	1.96775e-05
2	1	0	0	1	342.897	0.343615	0.343508	0.0635134	2	1.11741	13	2.18174e-05
2	1	0	0	1	343.797	0.352616	0.352513	0.0686323	2	1.11747	13	2.41938e-05
2	1	0	1	1	344.697	0.361617	0.361662	0.0740257	2	1.11754	13	2.67722e-05
2	1	0	1	1	345.597	0.370618	0.370652	0.0797763	2	1.11761	13	2.95692e-05
2	1	0	0	1	346.497	0.379619	0.379502	0.0859038	2	1.11768	13	3.26007e-05
2	1	0	0	1	347.397	0.38862	0.38867	0.0924886	2	1.11776	13	3.59476e-05
2	1	0	1	1	348.297	0.397621	0.397529	0.0994576	2	1.11785	13	3.95373e-05
2	1	0	1	1	349.227	0.406922	0.406798	0.10719	2	1.11795	12	4.36048e-05
2	1	0	0	1	350.127	0.415923	0.415906	0.115121	2	1.11805	12	4.78796e-05
2	1	0	0	1	351.027	0.424924	0.42473	0.123594	2	1.11816	12	5.24943e-05
2	1	0	1	1	351.928	0.433925	0.433883	0.132481	2	1.11827	12	5.74812e-05
2	1	0	1	1	352.828	0.442926	0.442794	0.141857	2	1.1184	12	6.28135e-05
2	1	0	0	1	353.728	0.451927	0.451868	0.152058	2	1.11853	12	6.87104e-05
2	1	0	1	1	354.628	0.460928	0.460842	0.162915	2	1.11868	12	7.5078e-05
2	1	0	1	1	355.528	0.469929	0.469861	0.174488	2	1.11883	12	8.19849e-05
2	1	0	0	1	356.428	0.47893	0.478861	0.186549	2	1.11899	12	8.93313e-05
2	1	0	0	1	357.328	0.487931	0.487942	0.199762	2	1.11917	12	9.74722e-05
2	1	0	1	1	358.228	0.496932	0.496865	0.213721	2	1.11935	12	0.000106191
2	1	0	1	1	359.128	0.505933	0.50588	0.228343	2	1.11955	12	0.000115514
2	1	0	0	1	360.029	0.514934	0.514883	0.243825	2	1.11977	12	0.000125541
2	1	0	0	1	360.929	0.523935	0.524004	0.260549	2	1.12	12	0.000136528
2	1	0	1	1	361.829	0.532936	0.532885	0.278554	2	1.12024	12	0.000148437
2	1	0	1	1	362.729	0.541937	0.541971	0.297465	2	1.1205	12	0.000161218
2	1	0	0	1	363.629	0.550938	0.550976	0.317779	2	1.12078	12	0.000175089
2	1	0	0	1	364.529	0.559939	0.559963	0.339412	2	1.12108	12	0.000190058
2	1	0	1	1	365.429	0.56894	0.56895	0.363232	2	1.12139	12	0.000206661
2	1	0	1	1	366.329	0.577941	0.578108	0.390072	2	1.12174	12	0.000225504
2	1	0	0	1	367.229	0.586942	0.58694	0.420233	2	1.1221	12	0.000246652
2	1	0	0	1	368.129	0.595943	0.596004	0.456142	2	1.1225	12	0.000271862
2	1	0	1	1	369.03	0.604944	0.60485	0.499579	2	1.12293	12	0.00030217
2	1	0	1	1	369.93	0.613945	0.613942	0.553151	2	1.1234	12	0.000339602
2	1	0	0	1	370.83	0.622947	0.623042	0.620466	2	1.12393	12	0.000386577
2	1	0	0	1	371.73	0.631947	0.631951	0.704406	2	1.12453	12	0.00044515
2	1	0	1	1	372.63	0.640949	0.640897	0.808693	2	1.12521	12	0.000518289
2	1	0	1	1	373.53	0.64995	0.64978	0.936949	2	1.126	12	0.000608811
2	1	0	0	1	374.46	0.659251	0.659111	1.09753	2	1.12694	11	0.000723397
2	1	0	0	1	375.36	0.668252	0.668196	1.28423	2	1.12802	11	0.000858116
2	1	0	1	1	376.26	0.677253	0.677115	1.50321	2	1.12927	11	0.00101784
2	1	0	1	1	377.16	0.686254	0.686103	1.75686	2	1.13074	11	0.00120538
2	1	0	0	1	378.061	0.695255	0.695157	2.04767	2	1.13245	11	0.00142345
2	1	0	0	1	378.961	0.704256	0.70434	2.37523	2	1.13444	11	0.00167297
2	1	0	1	1	379.861	0.713257	0.713125	2.74403	2	1.13674	11	0.00195684
2	1	0	1	1	380.761	0.722258	0.722214	3.15729	2	1.1394	11	0.00228024
2	1	0	0	1	381.661	0.731259	0.731235	3.61524	2	1.14245	11	0.00264359
2	1	0	0	1	382.561	0.74026	0.74026	4.1228	2	1.14593	11	0.00305195
2	1	0	1	1	383.461	0.749261	0.749214	4.67846	2	1.14989	11	0.00350517
2	1	0	1	1	384.361	0.758262	0.758307	5.30097	2	1.15438	11	0.00401976
2	1	0	0	1	385.261	0.767263	0.76734	5.97389	2	1.15946	11	0.004584
2	1	0	1	1	386.161	0.776264	0.776239	6.68944	2	1.16516	11	0.0051926
2	1	0	1	1	387.062	0.785265	0.785287	7.47552	2	1.17153	11	0.00587043
2	1	0	0	1	387.962	0.794266	0.79432	8.30604	2	1.17864	11	0.00659766
2	1	0	0	1	388.862	0.803267	0.803334	9.20945	2	1.18652	11	0.00739826
2	1	0	1	1	389.762	0.812268	0.812221	10.1443	2	1.19523	11	0.00823938
2	1	0	1	1	390.692	0.821569	0.821808	11.1821	2	1.20515	10	0.00918956
2	1	0	0	1	391.592	0.83057	0.830739	12.2558	2	1.21571	10	0.0101814
2	1	0	0	1	392.492	0.839571	0.839654	13.3504	2	1.22725	10	0.0112097
2	1	0	1	1	393.392	0.848572	0.848657	14.5144	2	1.23979	10	0.0123178
2	1	0	1	1	394.292	0.857573	0.857596	15.672	2	1.25336	10	0.0134402
2	1	0	0	1	395.193	0.866574	0.866663	16.9913	2	1.26805	10	0.0147257
2	1	0	0	1	396.093	0.875575	0.875563	18.3761	2	1.28395	10	0.0160894
2	1	0	1	1	396.993	0.884576	0.884575	19.7219	2	1.3011	10	0.0174455
2	1	0	1	1	397.893	0.893577	0.893577	21.0452	2	1.31945	10	0.0188055
2	1	0	0	1	398.793	0.902578	0.902535	22.5118	2	1.33906	10	0.0203177
2	1	0	0	1	399.693	0.911579	0.911552	23.9491	2	1.35998	10	0.0218308
2	1	0	1	1	400.593	0.92058	0.920505	25.6619	2	1.38228	10	0.0236219
2	1	0	1	1	401.493	0.929581	0.929575	27.3068	2	1.40618	10	0.0253837
2	1	0	0	1	402.393	0.938582	0.938576	28.7119	2	1.43137	10	0.0269483
2	1	0	0	1	403.293	0.947584	0.947652	30.265	2	1.4579	10	0.0286807
2	1	0	1	1	404.194	0.956585	0.956587	31.7591	2	1.4858	10	0.0303804
2	1	0	1	1	405.094	0.965585	0.965607	33.2463	2	1.51499	10	0.0321028
2	1	0	0	1	405.994	0.974587	0.974598	34.6025	2	1.54553	10	0.0337235
2	1	0	0	1	406.894	0.983588	0.983577	35.788	2	1.57717	10	0.0352003
2	1	0	1	1	407.794	0.992589	0.99263	37.3624	2	1.61004	10	0.037087
2	1	0	0	1	408.595	0.999489	0.999426	38.7759	2	1.64064	10	0.0387537
2	1	0	0	1	409.495	0.990488	0.990487	36.7698	2	1.67457	10	0.03642
2	1	0	1	1	410.395	0.981487	0.981467	34.7264	2	1.70669	10	0.0340828
2	1	0	1	1	411.295	0.972486	0.972488	32.997	2	1.73716	10	0.0320892
2	1	0	0	1	412.195	0.963485	0.963435	31.1379	2	1.76596	10	0.0299994
2	1	0	0	1	413.095	0.954484	0.954544	29.2348	2	1.79307	10	0.0279059
2	1	0	1	1	413.995	0.945483	0.945495	27.6234	2	1.8186	10	0.0261178
2	1	0	1	1	414.895	0.936482	0.936531	26.4259	2	1.84284	10	0.0247486
2	1	0	0	1	415.795	0.927481	0.92767	24.9305	2	1.86599	10	0.0231273
2	1	0	0	1	416.695	0.91848	0.918561	23.3107	2	1.88771	10	0.0214123
2	1	0	1	1	417.596	0.909479	0.909614	21.8194	2	1.908	10	0.0198472
2	1	0	1	1	418.496	0.900478	0.900587	20.2123	2	1.92692	10	0.0182029
2	1	0	0	1	419.396	0.891477	0.891544	18.935	2	1.94454	10	0.0168814
2	1	0	0	1	420.296	0.882476	0.882551	17.6516	2	1.96099	10	0.0155784
2	1	0	1	1	421.196	0.873475	0.873548	16.3236	2	1.97628	10	0.0142595
2	1	0	1	1	422.096	0.864474	0.864577	15.0287	2	1.99038	10	0.0129934
2	1	0	0	1	422.996	0.855473	0.855745	13.8308	2	2.00336	10	0.0118356
2	1	0	0	1	423.896	0.846472	0.846501	12.6955	2	2.01531	10	0.0107468
2	1	0	1	1	424.796	0.837471	0.837523	11.6401	2	2.02626	10	0.00974881
2	1	0	1	1	425.696	0.828469	0.828416	10.5373	2	2.03626	10	0.00872925
2	1	0	0	1	426.597	0.819469	0.8195	9.58351	2	2.04529	10	0.00785368
2	1	0	1	1	427.497	0.810468	0.810386	8.61714	2	2.05348	10	0.00698321
2	1	0	1	1	428.397	0.801467	0.801329	7.76493	2	2.06084	10	0.00622226
2	1	0	0	1	429.297	0.792466	0.792467	6.97576	2	2.06747	10	0.00552806
2	1	0	0	1	430.197	0.783465	0.783525	6.22651	2	2.07341	10	0.00487863
2	1	0	1	1	431.097	0.774464	0.774421	5.5648	2	2.07872	10	0.0043095
2	1	0	1	1	431.997	0.765463	0.76546	4.92983	2	2.08343	10	0.00377358
2	1	0	0	1	432.927	0.756162	0.756025	4.33318	2	2.08773	11	0.00327599
2	1	0	0	1	433.827	0.747161	0.747216	3.79696	2	2.09138	11	0.00283715
2	1	0	1	1	434.728	0.73816	0.738039	3.3135	2	2.09457	11	0.00244549
2	1	0	1	1	435.628	0.729159	0.729223	2.86455	2	2.09735	11	0.00208889
2	1	0	0	1	436.528	0.720158	0.720207	2.46247	2	2.09974	11	0.00177349
2	1	0	0	1	437.428	0.711156	0.711129	2.10422	2	2.10179	11	0.00149637
2	1	0	1	1	438.328	0.702155	0.702089	1.78092	2	2.10353	11	0.00125036
2	1	0	1	1	439.228	0.693154	0.693102	1.49712	2	2.105	11	0.00103765
2	1	0	0	1	440.128	0.684153	0.684146	1.2472	2	2.10623	11	0.000853268
2	1	0	0	1	441.028	0.675152	0.675113	1.02934	2	2.10725	11	0.000694921
2	1	0	1	1	441.928	0.666151	0.666183	0.842865	2	2.10809	11	0.000561502
2	1	0	1	1	442.828	0.65715	0.657043	0.686722	2	2.10877	11	0.000451206
2	1	0	0	1	443.729	0.648149	0.64809	0.551092	2	2.10932	11	0.000357157
2	1	0	0	1	444.659	0.638848	0.638951	0.435381	2	2.10978	12	0.000278187
2	1	0	1	1	445.559	0.629847	0.629817	0.348997	2	2.11012	12	0.000219804
2	1	0	1	1	446.459	0.620846	0.620675	0.268615	2	2.1104	12	0.000166723
2	1	0	0	1	447.359	0.611845	0.611857	0.209097	2	2.11061	12	0.000127938
2	1	0	0	1	448.259	0.602844	0.602635	0.16087	2	2.11077	12	9.69457e-05
2	1	0	1	1	449.159	0.593843	0.593568	0.121441	2	2.1109	12	7.20836e-05
2	1	0	1	1	450.059	0.584842	0.584703	0.0891826	2	2.11099	12	5.21453e-05
2	1	0	0	1	450.959	0.575841	0.575676	0.0622968	2	2.11105	12	3.58628e-05
2	1	0	1	1	451.889	0.56654	0.566498	0.0390537	2	2.1111	13	2.21239e-05
2	1	0	1	1	452.79	0.557539	0.557495	0.0204241	2	2.11112	13	1.13863e-05
2	1	0	1	1	453.69	0.548538	0.548465	0.00469258	2	2.11113	13	2.57371e-06
2	1	0	0	1	454.59	0.539537	0.539599	-0.00838351	2	2.11113	13	-4.52373e-06
2	0	0	1	1	455.49	0.530536	0.530571	-0.0194123	2	2.11112	13	-1.02996e-05
2	0	0	1	1	456.39	0.521535	0.52155	-0.0287467	2	2.1111	13	-1.49929e-05
2	0	0	0	1	457.29	0.512534	0.512563	-0.0361142	2	2.11107	13	-1.85108e-05
2	0	0	0	1	458.19	0.503533	0.503657	-0.0422384	2	2.11103	13	-2.12737e-05
2	0	0	1	1	459.09	0.494532	0.494607	-0.0475743	2	2.11099	13	-2.35306e-05
2	0	0	1	1	459.99	0.485531	0.485502	-0.0511899	2	2.11094	13	-2.48528e-05
2	0	0	0	1	460.891	0.47653	0.476497	-0.0544641	2	2.11089	13	-2.59519e-05
2	0	0	0	1	461.791	0.467529	0.467537	-0.0565974	2	2.11084	13	-2.64614e-05
2	0	0	1	1	462.691	0.458528	0.458542	-0.0582849	2	2.11079	13	-2.6726e-05
2	0	0	1	1	463.591	0.449527	0.449621	-0.059378	2	2.11074	13	-2.66976e-05
2	0	0	0	1	464.491	0.440526	0.440534	-0.0598886	2	2.11068	13	-2.6383e-05
2	0	0	0	1	465.391	0.431525	0.431533	-0.0604407	2	2.11063	13	-2.60821e-05
2	0	0	1	1	466.291	0.422524	0.42257	-0.0605431	2	2.11057	13	-2.55837e-05
2	0	0	1	1	467.191	0.413523	0.413497	-0.0602638	2	2.11051	13	-2.49189e-05
2	0	0	0	1	468.091	0.404522	0.4045	-0.0600731	2	2.11046	13	-2.42995e-05
2	0	0	0	1	468.991	0.395521	0.395587	-0.059756	2	2.1104	13	-2.36387e-05
2	0	0	1	1	469.892	0.38652	0.386606	-0.0592561	2	2.11035	13	-2.29088e-05
2	0	0	1	1	470.792	0.377518	0.377511	-0.0587382	2	2.11029	13	-2.21743e-05
2	0	0	0	1	471.692	0.368517	0.36847	-0.0580502	2	2.11024	13	-2.13898e-05
2	0	0	0	1	472.592	0.359516	0.359573	-0.0572955	2	2.11019	13	-2.06019e-05
2	0	0	1	1	473.492	0.350515	0.350581	-0.05676	2	2.11014	13	-1.98989e-05
2	0	0	1	1	474.392	0.341514	0.341495	-0.0560047	2	2.11008	13	-1.91253e-05
2	0	0	0	1	475.292	0.332513	0.332488	-0.0553212	2	2.11003	13	-1.83936e-05
2	0	0	0	1	476.192	0.323512	0.323417	-0.0545693	2	2.10998	13	-1.76486e-05
2	0	0	1	1	477.092	0.314511	0.314494	-0.0537469	2	2.10993	13	-1.69031e-05
2	0	0	1	1	477.992	0.30551	0.305574	-0.0529835	2	2.10988	13	-1.61904e-05
2	0	0	0	1	478.893	0.296509	0.296406	-0.0521382	2	2.10984	13	-1.54541e-05
2	0	0	0	1	479.793	0.287508	0.28748	-0.0513273	2	2.10979	13	-1.47556e-05
2	0	0	1	1	480.693	0.278507	0.278423	-0.0504763	2	2.10974	13	-1.40538e-05
2	0	0	1	1	481.593	0.269506	0.269397	-0.0495188	2	2.1097	13	-1.33402e-05
2	0	0	0	1	482.493	0.260505	0.260396	-0.0485964	2	2.10965	13	-1.26543e-05
2	0	0	1	1	483.393	0.251504	0.251534	-0.0477278	2	2.10961	13	-1.20052e-05
2	0	0	1	1	484.293	0.242503	0.24236	-0.0467338	2	2.10956	13	-1.13264e-05
2	0	0	1	1	485.193	0.233503	0.233412	-0.045784	2	2.10952	13	-1.06865e-05
2	0	0	0	1	486.093	0.224501	0.224438	-0.0448679	2	2.10948	13	-1.00701e-05
2	0	0	1	1	486.994	0.2155	0.215349	-0.0439001	2	2.10944	13	-9.45387e-06
2	0	0	1	1	487.894	0.206499	0.206231	-0.0429107	2	2.1094	13	-8.8495e-06
2	0	0	0	1	488.794	0.197498	0.197298	-0.0418814	2	2.10936	13	-8.26311e-06
2	0	0	0	1	489.694	0.188497	0.18835	-0.0409011	2	2.10932	13	-7.70372e-06
2	0	0	1	1	490.594	0.179496	0.179469	-0.0398199	2	2.10929	13	-7.14644e-06
2	0	0	1	1	491.494	0.170495	0.170398	-0.038681	2	2.10925	13	-6.59118e-06
2	0	0	0	1	492.394	0.161494	0.161421	-0.0375901	2	2.10922	13	-6.06783e-06
2	0	0	0	1	493.294	0.152493	0.152484	-0.0363122	2	2.10918	13	-5.53702e-06
2	0	0	1	1	494.194	0.143492	0.143478	-0.0350008	2	2.10915	13	-5.02183e-06
2	0	0	1	1	495.094	0.134491	0.134444	-0.0336592	2	2.10912	13	-4.52527e-06
2	0	0	0	1	495.995	0.12549	0.125411	-0.0322798	2	2.10909	13	-4.04825e-06
2	0	0	0	1	496.895	0.116489	0.116484	-0.0308818	2	2.10906	13	-3.59722e-06
2	0	0	1	1	497.795	0.107488	0.107424	-0.0295295	2	2.10903	13	-3.17219e-06
2	0	0	1	1	498.695	0.0984867	0.0984734	-0.0281763	2	2.10901	13	-2.77461e-06
2	0	0	0	1	499.595	0.0894857	0.0895128	-0.0270116	2	2.10898	13	-2.41788e-06
2	0	0	0	1	500.495	0.0804847	0.080494	-0.0259753	2	2.10896	13	-2.09086e-06
2	0	0	1	1	501.395	0.0714836	0.0714136	-0.0251401	2	2.10894	13	-1.79534e-06
2	0	0	1	1	502.295	0.0624826	0.0624923	-0.0243889	2	2.10891	13	-1.52412e-06
2	0	0	0	1	503.195	0.0534816	0.0534002	-0.0237722	2	2.10889	13	-1.26944e-06
2	0	0	0	1	504.095	0.0444806	0.0445448	-0.0232019	2	2.10887	13	-1.03352e-06
2	0	0	1	1	504.996	0.0354795	0.035286	-0.0227106	2	2.10885	13	-8.01366e-07
2	0	0	1	1	505.896	0.0264785	0.0264274	-0.0222743	2	2.10883	13	-5.88651e-07
2	0	0	0	1	506.796	0.0174775	0.0175221	-0.0218588	2	2.10881	13	-3.83012e-07
2	0	0	0	1	507.696	0.00847645	0.00832173	-0.0215213	2	2.10879	13	-1.79095e-07
2	0	0	1	0	508.541	2.54892e-05	4.25712e-05	-0.0210229	2	2.10877	13	-8.9497e-10
2	0	0	0	0	509.397	0.00857646	0.00857644	-0.0182859	3	2.10876	13	-1.56828e-07
2	0	0	0	0	510.297	0.0175775	0.0174425	-0.016543	3	2.10874	13	-2.88551e-07
2	0	0	1	0	511.197	0.0265785	0.0266248	-0.0150607	3	2.10873	13	-4.00987e-07
2	0	0	1	0	512.097	0.0355795	0.0356267	-0.0137577	3	2.10871	13	-4.90143e-07
2	0	0	0	0	512.997	0.0445806	0.0444673	-0.0126272	3	2.1087	13	-5.61499e-07
2	0	0	0	0	513.897	0.0535816	0.0535403	-0.0116209	3	2.10869	13	-6.22184e-07
2	0	0	1	0	514.797	0.0625826	0.0624849	-0.0106774	3	2.10868	13	-6.67177e-07
2	0	0	1	0	515.697	0.0715836	0.0714496	-0.0098155	3	2.10867	13	-7.01314e-07
2	0	0	0	0	516.597	0.0805847	0.0805428	-0.00899797	3	2.10866	13	-7.24722e-07
2	0	0	0	0	517.497	0.0895857	0.0895097	-0.00817623	3	2.10866	13	-7.31852e-07
2	0	0	1	0	518.398	0.0985867	0.0985763	-0.00741812	3	2.10865	13	-7.31251e-07
2	0	0	1	0	519.298	0.107588	0.107474	-0.00657582	3	2.10864	13	-7.06731e-07
2	0	0	0	0	520.198	0.116589	0.116402	-0.00557241	3	2.10864	13	-6.48638e-07
2	0	0	0	0	521.098	0.12559	0.125509	-0.00441372	3	2.10863	13	-5.5396e-07
2	0	0	1	0	521.998	0.134591	0.134506	-0.0030384	3	2.10863	13	-4.08685e-07
2	0	0	1	0	522.898	0.143592	0.143565	-0.00139268	3	2.10863	13	-1.9994e-07
2	1	0	0	0	523.798	0.152593	0.152483	0.00063599	3	2.10863	13	9.69774e-08
2	1	0	0	0	524.698	0.161594	0.161465	0.0030308	3	2.10863	13	4.8937e-07
2	1	0	1	0	525.598	0.170595	0.170508	0.00582768	3	2.10863	13	9.93665e-07
2	1	0	1	0	526.498	0.179596	0.179595	0.00903197	3	2.10864	13	1.6221e-06
2	1	0	0	0	527.399	0.188597	0.188567	0.0124504	3	2.10865	13	2.34773e-06
2	1	0	0	0	528.299	0.197598	0.197602	0.0160546	3	2.10866	13	3.17244e-06
2	1	0	1	0	529.199	0.206599	0.20648	0.0194949	3	2.10868	13	4.02531e-06
2	1	0	1	0	530.099	0.215601	0.215529	0.0222276	3	2.1087	13	4.7907e-06
2	1	0	0	0	530.999	0.224601	0.224452	0.0240569	3	2.10872	13	5.39963e-06
2	1	0	1	0	531.899	0.233602	0.233453	0.0250762	3	2.10874	13	5.85412e-06
2	1	0	1	0	532.799	0.242603	0.242606	0.02568	3	2.10876	13	6.2301e-06
2	1	0	1	0	533.699	0.251603	0.251669	0.0263907	3	2.10879	13	6.64171e-06
2	1	0	0	0	534.599	0.260605	0.260549	0.0275469	3	2.10881	13	7.17731e-06
2	1	0	1	0	535.5	0.269606	0.269531	0.0291612	3	2.10884	13	7.85984e-06
2	1	0	1	0	536.4	0.278607	0.278545	0.0310714	3	2.10887	13	8.65479e-06
2	1	0	0	0	537.3	0.287608	0.287565	0.0332844	3	2.1089	13	9.57145e-06
2	1	0	0	0	538.2	0.296609	0.296542	0.035793	3	2.10893	13	1.06141e-05
2	1	0	1	0	539.1	0.30561	0.30562	0.0384979	3	2.10896	13	1.17657e-05
2	1	0	1	0	540	0.314611	0.314473	0.0413945	3	2.109	13	1.30175e-05
2	1	0	0	0	540.9	0.323612	0.32352	0.0445508	3	2.10904	13	1.44131e-05
2	1	0	0	0	541.8	0.332613	0.332543	0.0478174	3	2.10908	13	1.59013e-05
2	1	0	1	0	542.7	0.341614	0.341549	0.0512634	3	2.10913	13	1.7509e-05
2	1	0	1	0	543.6	0.350615	0.350394	0.0549811	3	2.10917	13	1.9265e-05
2	1	0	0	0	544.501	0.359616	0.359608	0.0589615	3	2.10923	13	2.1203e-05
2	1	0	0	0	545.401	0.368617	0.368546	0.0631221	3	2.10928	13	2.32634e-05
2	1	0	1	0	546.301	0.377619	0.377533	0.0675701	3	2.10934	13	2.551e-05
2	1	0	1	0	547.201	0.38662	0.386583	0.0722543	3	2.10941	13	2.79323e-05
2	1	0	0	0	548.101	0.395621	0.395565	0.0772699	3	2.10947	13	3.05653e-05
2	1	0	0	0	549.001	0.404622	0.404628	0.0823806	3	2.10955	13	3.33335e-05
2	1	0	1	0	549.901	0.413623	0.413553	0.0880744	3	2.10962	13	3.64234e-05
2	1	0	1	0	550.801	0.422624	0.422603	0.0940072	3	2.10971	13	3.97277e-05
2	1	0	0	0	551.701	0.431625	0.431656	0.100092	3	2.1098	13	4.32053e-05
2	1	0	0	0	552.631	0.440926	0.440976	0.106767	3	2.10989	12	4.70817e-05
2	1	0	1	0	553.532	0.449927	0.449856	0.11368	3	2.10999	12	5.11398e-05
2	1	0	1	0	554.432	0.458928	0.458889	0.1209	3	2.1101	12	5.54794e-05
2	1	0	0	0	555.332	0.467929	0.467937	0.128424	3	2.11021	12	6.00946e-05
2	1	0	0	0	556.232	0.47693	0.476743	0.136283	3	2.11033	12	6.49719e-05
2	1	0	1	0	557.132	0.485931	0.485883	0.144624	3	2.11046	12	7.02701e-05
2	1	0	1	0	558.032	0.494932	0.49498	0.153062	3	2.1106	12	7.57625e-05
2	1	0	0	0	558.932	0.503933	0.503821	0.16202	3	2.11074	12	8.1629e-05
2	1	0	0	0	559.832	0.512934	0.512803	0.171508	3	2.11089	12	8.79499e-05
2	1	0	1	0	560.732	0.521935	0.521937	0.181372	3	2.11105	12	9.46648e-05
2	1	0	1	0	561.632	0.530936	0.530881	0.191309	3	2.11122	12	0.000101562
2	1	0	0	0	562.533	0.539937	0.539905	0.202187	3	2.1114	12	0.000109162
2	1	0	1	0	563.433	0.548938	0.548739	0.213536	3	2.11159	12	0.000117176
2	1	0	1	0	564.333	0.557939	0.557934	0.225518	3	2.11179	12	0.000125824
2	1	0	0	0	565.233	0.56694	0.566995	0.239409	3	2.112	12	0.000135744
2	1	0	0	0	566.133	0.575941	0.575828	0.254815	3	2.11222	12	0.00014673
2	1	0	1	0	567.033	0.584942	0.584829	0.272815	3	2.11246	12	0.00015955
2	1	0	1	0	567.933	0.593943	0.593977	0.295102	3	2.11272	12	0.000175284
2	1	0	0	0	568.833	0.602944	0.602916	0.323923	3	2.113	12	0.000195299
2	1	0	0	0	569.733	0.611945	0.611899	0.361201	3	2.11331	12	0.000221019
2	1	0	1	0	570.634	0.620946	0.620883	0.409957	3	2.11365	12	0.000254535
2	1	0	1	0	571.534	0.629947	0.629876	0.473551	3	2.11405	12	0.000298278
2	1	0	0	0	572.434	0.638948	0.63891	0.556566	3	2.11452	12	0.000355596
2	1	0	0	0	573.334	0.647949	0.647997	0.660451	3	2.11507	12	0.00042797
2	1	0	1	0	574.234	0.65695	0.656855	0.789539	3	2.11572	12	0.000518613
2	1	0	1	0	575.134	0.665951	0.665924	0.948117	3	2.1165	12	0.000631374
2	1	0	0	0	576.064	0.675252	0.675402	1.1437	3	2.11747	11	0.000772455
2	1	0	0	0	576.964	0.684253	0.684153	1.36829	3	2.1186	11	0.000936121
2	1	0	1	0	577.864	0.693255	0.693335	1.62767	3	2.11995	11	0.00112852
2	1	0	1	0	578.764	0.702256	0.702331	1.92369	3	2.12155	11	0.00135107
2	1	0	0	0	579.665	0.711256	0.71119	2.25726	3	2.12343	11	0.00160534
2	1	0	0	0	580.565	0.720258	0.72024	2.63239	3	2.12563	11	0.00189596
2	1	0	1	0	581.465	0.729259	0.729261	3.05272	3	2.12819	11	0.00222623
2	1	0	1	0	582.365	0.73826	0.738354	3.51716	3	2.13115	11	0.00259691
2	1	0	0	0	583.265	0.747261	0.747264	4.03515	3	2.13455	11	0.00301532
2	1	0	0	0	584.165	0.756262	0.756197	4.59479	3	2.13843	11	0.00347457
2	1	0	1	0	585.065	0.765263	0.765221	5.21409	3	2.14285	11	0.00398993
2	1	0	1	0	585.965	0.774264	0.774255	5.88236	3	2.14784	11	0.00455445
2	1	0	0	0	586.865	0.783265	0.783267	6.61349	3	2.15347	11	0.00518013
2	1	0	0	0	587.765	0.792266	0.792155	7.40848	3	2.15978	11	0.00586867
2	1	0	1	0	588.666	0.801267	0.801026	8.24537	3	2.16682	11	0.00660475
2	1	0	1	0	589.566	0.810268	0.810219	9.15225	3	2.17465	11	0.00741532
2	1	0	0	0	590.466	0.819269	0.819321	10.0942	3	2.18331	11	0.00827039
2	1	0	1	0	591.396	0.828569	0.828574	11.0948	3	2.19317	10	0.00919284
2	1	0	1	0	592.296	0.837571	0.837485	12.1336	3	2.20363	10	0.0101617
2	1	0	0	0	593.196	0.846572	0.846608	13.2703	3	2.21506	10	0.0112347
2	1	0	0	0	594.096	0.855573	0.85559	14.4259	3	2.22752	10	0.0123426
2	1	0	1	0	594.996	0.864574	0.864664	15.6307	3	2.24102	10	0.0135153
2	1	0	1	0	595.896	0.873575	0.873794	16.8962	3	2.25567	10	0.0147638
2	1	0	0	0	596.797	0.882576	0.88265	18.169	3	2.27145	10	0.0160368
2	1	0	0	0	597.697	0.891577	0.891695	19.4536	3	2.28838	10	0.0173467
2	1	0	1	0	598.597	0.900578	0.900609	20.8965	3	2.30654	10	0.0188196
2	1	0	1	0	599.497	0.909579	0.909631	22.2679	3	2.32595	10	0.0202555
2	1	0	0	0	600.397	0.91858	0.918648	23.7306	3	2.34667	10	0.0218001
2	1	0	0	0	601.297	0.927581	0.927642	25.1167	3	2.36868	10	0.0232993
2	1	0	1	0	602.197	0.936582	0.936698	26.5053	3	2.39193	10	0.0248275
2	1	0	1	0	603.097	0.945583	0.945567	28.0704	3	2.41653	10	0.0265425
2	1	0	0	0	603.997	0.954584	0.954724	29.7505	3	2.4426	10	0.0284036
2	1	0	0	0	604.897	0.963585	0.963655	31.3904	3	2.47008	10	0.0302495
2	1	0	1	0	605.798	0.972586	0.972746	32.9192	3	2.49902	10	0.032022
2	1	0	1	0	606.698	0.981587	0.981683	34.4543	3	2.52932	10	0.0338232
2	1	0	0	0	607.598	0.990588	0.990605	35.7763	3	2.56093	10	0.0354402
2	1	0	0	0	608.493	0.999539	0.999596	37.3521	3	2.59376	10	0.037337
2	1	0	1	0	609.298	0.992489	0.992768	35.8887	3	2.62331	10	0.0356292
2	1	0	0	0	610.199	0.983488	0.983663	34.316	3	2.65493	10	0.0337553
2	1	0	0	0	611.099	0.974487	0.974466	32.4991	3	2.68495	10	0.0316692
2	1	0	1	0	611.999	0.965486	0.965498	30.7684	3	2.71337	10	0.0297068
2	1	0	1	0	612.899	0.956485	0.956627	29.0357	3	2.74027	10	0.0277763
2	1	0	0	0	613.799	0.947484	0.94769	27.2305	3	2.76559	10	0.0258061
2	1	0	0	0	614.699	0.938483	0.938457	25.7525	3	2.78946	10	0.0241676
2	1	0	1	0	615.599	0.929481	0.929568	24.2469	3	2.81202	10	0.0225391
2	1	0	1	0	616.499	0.92048	0.920524	22.7339	3	2.83319	10	0.0209271
2	1	0	0	0	617.399	0.911479	0.911587	21.2984	3	2.85298	10	0.0194154
2	1	0	0	0	618.299	0.902478	0.902469	19.8737	3	2.87149	10	0.0179354
2	1	0	1	0	619.2	0.893477	0.893486	18.4387	3	2.88874	10	0.0164747
2	1	0	1	0	620.1	0.884476	0.884634	17.1029	3	2.90476	10	0.0151298
2	1	0	0	0	621	0.875475	0.875508	15.8314	3	2.91957	10	0.0138605
2	1	0	0	0	621.9	0.866474	0.866342	14.6756	3	2.9333	10	0.0127141
2	1	0	1	0	622.8	0.857473	0.85748	13.4899	3	2.94595	10	0.0115673
2	1	0	1	0	623.7	0.848472	0.848539	12.3665	3	2.95757	10	0.0104934
2	1	0	0	0	624.6	0.839471	0.839477	11.2718	3	2.96821	10	0.0094624
2	1	0	0	0	625.5	0.83047	0.830538	10.2541	3	2.97789	10	0.00851643
2	1	0	1	0	626.4	0.821469	0.82154	9.29366	3	2.98668	10	0.00763511
2	1	0	1	0	627.3	0.812468	0.812572	8.38875	3	2.99463	10	0.00681646
2	1	0	0	0	628.201	0.803467	0.803444	7.56156	3	3.0018	10	0.0060753
2	1	0	0	0	629.101	0.794466	0.79456	6.77513	3	3.00824	10	0.00538325
2	1	0	1	0	630.001	0.785465	0.785492	6.04674	3	3.01401	10	0.00474966
2	1	0	1	0	630.901	0.776464	0.77637	5.36763	3	3.01914	10	0.00416727
2	1	0	0	0	631.801	0.767463	0.767404	4.74554	3	3.02368	10	0.00364175
2	1	0	1	0	632.731	0.758163	0.758015	4.1656	3	3.02782	11	0.00315759
2	1	0	1	0	633.631	0.749161	0.749281	3.64477	3	3.03132	11	0.00273095
2	1	0	0	0	634.531	0.74016	0.740192	3.17204	3	3.03439	11	0.00234792
2	1	0	0	0	635.431	0.731159	0.73111	2.74392	3	3.03704	11	0.00200611
2	1	0	1	0	636.332	0.722158	0.722228	2.35826	3	3.03933	11	0.0017032
2	1	0	1	0	637.232	0.713157	0.713128	2.01201	3	3.04129	11	0.00143482
2	1	0	0	0	638.132	0.704156	0.7042	1.70264	3	3.04296	11	0.001199
2	1	0	0	0	639.032	0.695155	0.695173	1.42713	3	3.04436	11	0.000992103
2	1	0	1	0	639.932	0.686154	0.68624	1.18251	3	3.04553	11	0.000811489
2	1	0	1	0	640.832	0.677153	0.67704	0.971057	3	3.0465	11	0.000657445
2	1	0	0	0	641.732	0.668152	0.668276	0.789547	3	3.04728	11	0.000527635
2	1	0	0	0	642.632	0.659151	0.65917	0.633721	3	3.04792	11	0.00041773
2	1	0	1	0	643.532	0.65015	0.650155	0.503022	3	3.04843	11	0.000327042
2	1	0	1	0	644.462	0.640849	0.640852	0.392389	3	3.04884	12	0.000251463
2	1	0	0	0	645.363	0.631848	0.631826	0.303772	3	3.04915	12	0.000191931
2	1	0	0	0	646.263	0.622847	0.62288	0.23236	3	3.04939	12	0.000144733
2	1	0	1	0	647.163	0.613845	0.613821	0.174612	3	3.04957	12	0.00010718
2	1	0	1	0	648.063	0.604844	0.604856	0.128087	3	3.0497	12	7.7474e-05
2	1	0	0	0	648.963	0.595843	0.595978	0.0910706	3	3.0498	12	5.42761e-05
2	1	0	0	0	649.863	0.586842	0.586747	0.0605087	3	3.04986	12	3.55033e-05
2	1	0	1	0	650.793	0.577541	0.577544	0.034668	3	3.04991	13	2.00223e-05
2	1	0	1	0	651.693	0.56854	0.568504	0.0145239	3	3.04993	13	8.25688e-06
2	0	0	0	0	652.593	0.559539	0.55955	-0.00248058	3	3.04993	13	-1.38801e-06
2	0	0	0	0	653.493	0.550538	0.550507	-0.0164545	3	3.04992	13	-9.05833e-06
2	0	0	1	0	654.394	0.541537	0.541519	-0.0279475	3	3.0499	13	-1.51341e-05
2	0	0	1	0	655.294	0.532536	0.532453	-0.0379308	3	3.04987	13	-2.01964e-05
2	0	0	0	0	656.194	0.523535	0.523536	-0.0460914	3	3.04983	13	-2.41305e-05
2	0	0	0	0	657.094	0.514534	0.514476	-0.0529832	3	3.04979	13	-2.72586e-05
2	0	0	1	0	657.994	0.505533	0.505443	-0.0587221	3	3.04973	13	-2.96806e-05
2	0	0	1	0	658.894	0.496532	0.496371	-0.0628888	3	3.04968	13	-3.12161e-05
2	0	0	0	0	659.794	0.487531	0.487335	-0.0663933	3	3.04962	13	-3.23558e-05
2	0	0	1	0	660.694	0.47853	0.478504	-0.0689779	3	3.04956	13	-3.30062e-05
2	0	0	1	0	661.594	0.469529	0.469587	-0.0708108	3	3.04949	13	-3.32518e-05
2	0	0	1	0	662.494	0.460529	0.460534	-0.0720791	3	3.04943	13	-3.31948e-05
2	0	0	0	0	663.395	0.451527	0.451462	-0.0725675	3	3.04936	13	-3.27614e-05
2	0	0	1	0	664.295	0.442526	0.442509	-0.0727418	3	3.04929	13	-3.21889e-05
2	0	0	1	0	665.195	0.433525	0.433578	-0.0726909	3	3.04923	13	-3.15172e-05
2	0	0	0	0	666.095	0.424524	0.424532	-0.0719716	3	3.04916	13	-3.05542e-05
2	0	0	0	0	666.995	0.415523	0.415495	-0.0714151	3	3.0491	13	-2.96726e-05
2	0	0	1	0	667.895	0.406522	0.406422	-0.0705645	3	3.04903	13	-2.86789e-05
2	0	0	1	0	668.795	0.397521	0.397432	-0.0695376	3	3.04897	13	-2.76365e-05
2	0	0	0	0	669.695	0.38852	0.38849	-0.0684781	3	3.0489	13	-2.66031e-05
2	0	0	0	0	670.595	0.379519	0.379478	-0.0673802	3	3.04884	13	-2.55693e-05
2	0	0	1	0	671.496	0.370518	0.370467	-0.0662318	3	3.04878	13	-2.45367e-05
2	0	0	1	0	672.396	0.361517	0.361503	-0.0651652	3	3.04872	13	-2.35575e-05
2	0	0	0	0	673.296	0.352516	0.352439	-0.063971	3	3.04866	13	-2.25459e-05
2	0	0	0	0	674.196	0.343515	0.343608	-0.0629295	3	3.0486	13	-2.16231e-05
2	0	0	1	0	675.096	0.334514	0.334518	-0.0617525	3	3.04854	13	-2.06573e-05
2	0	0	1	0	675.996	0.325513	0.325527	-0.060627	3	3.04849	13	-1.97357e-05
2	0	0	0	0	676.896	0.316512	0.316629	-0.0595404	3	3.04843	13	-1.88522e-05
2	0	0	0	0	677.796	0.307511	0.307476	-0.0583871	3	3.04838	13	-1.79526e-05
2	0	0	1	0	678.696	0.29851	0.298476	-0.0573109	3	3.04833	13	-1.71059e-05
2	0	0	1	0	679.596	0.289508	0.289449	-0.0562888	3	3.04827	13	-1.62927e-05
2	0	0	0	0	680.497	0.280507	0.280458	-0.0551759	3	3.04822	13	-1.54745e-05
2	0	0	0	0	681.397	0.271506	0.271517	-0.0541423	3	3.04817	13	-1.47006e-05
2	0	0	1	0	682.297	0.262505	0.262492	-0.0531193	3	3.04812	13	-1.39434e-05
2	0	0	1	0	683.197	0.253504	0.253511	-0.0520731	3	3.04808	13	-1.32011e-05
2	0	0	0	0	684.097	0.244503	0.244447	-0.0509585	3	3.04803	13	-1.24566e-05
2	0	0	0	0	684.997	0.235502	0.235373	-0.0499659	3	3.04798	13	-1.17606e-05
2	0	0	1	0	685.897	0.226501	0.226317	-0.0490084	3	3.04794	13	-1.10914e-05
2	0	0	1	0	686.797	0.2175	0.217382	-0.0478872	3	3.04789	13	-1.04098e-05
2	0	0	0	0	687.697	0.208499	0.208362	-0.0468351	3	3.04785	13	-9.75864e-06
2	0	0	0	0	688.597	0.199498	0.199277	-0.0458374	3	3.04781	13	-9.13434e-06
2	0	0	1	0	689.498	0.190497	0.190359	-0.0447785	3	3.04777	13	-8.524e-06
2	0	0	1	0	690.398	0.181495	0.181338	-0.0437424	3	3.04773	13	-7.93216e-06
2	0	0	0	0	691.298	0.172495	0.172373	-0.0426472	3	3.04769	13	-7.35124e-06
2	0	0	1	0	692.198	0.163495	0.163393	-0.0414828	3	3.04765	13	-6.77801e-06
2	0	0	1	0	693.098	0.154493	0.154337	-0.0402419	3	3.04761	13	-6.2108e-06
2	0	0	0	0	693.998	0.145492	0.145471	-0.038955	3	3.04758	13	-5.66681e-06
2	0	0	0	0	694.898	0.136491	0.136506	-0.0375532	3	3.04754	13	-5.12623e-06
2	0	0	1	0	695.798	0.12749	0.127411	-0.0361203	3	3.04751	13	-4.60212e-06
2	0	0	1	0	696.698	0.118489	0.118472	-0.0346675	3	3.04748	13	-4.10715e-06
2	0	0	0	0	697.599	0.109488	0.109415	-0.0331519	3	3.04745	13	-3.62732e-06
2	0	0	0	0	698.499	0.100487	0.100499	-0.0316996	3	3.04742	13	-3.18579e-06
2	0	0	1	0	699.399	0.0914859	0.0914678	-0.030368	3	3.04739	13	-2.77769e-06
2	0	0	1	0	700.299	0.0824849	0.0822918	-0.0292665	3	3.04736	13	-2.4084e-06
2	0	0	0	0	701.199	0.0734839	0.0735351	-0.0283445	3	3.04734	13	-2.08432e-06
2	0	0	0	0	702.099	0.0644828	0.0645852	-0.0275196	3	3.04731	13	-1.77736e-06
2	0	0	1	0	702.999	0.0554818	0.0553434	-0.0267496	3	3.04729	13	-1.48041e-06
2	0	0	1	0	703.899	0.0464808	0.0463171	-0.0261409	3	3.04726	13	-1.21077e-06
2	0	0	0	0	704.799	0.0374798	0.0373089	-0.0255702	3	3.04724	13	-9.53996e-07
2	0	0	0	0	705.699	0.0284787	0.0283059	-0.0250832	3	3.04722	13	-7.10003e-07
2	0	0	1	0	706.6	0.0194777	0.0193974	-0.0246014	3	3.04719	13	-4.77203e-07
2	0	0	1	0	707.5	0.0104767	0.0104029	-0.0241306	3	3.04717	13	-2.51029e-07
2	0	0	0	0	708.4	0.00147565	0.0013607	-0.0237552	3	3.04715	13	-3.23237e-08
2	0	0	0	0	708.542	2.54892e-05	0.000271811	-0.0244068	3	3.04715	13	-6.63403e-09