File: Data/2022_01_05 CoNx Ti electrode1_04_CP_C05.mpt
EC-Lab ASCII FILE
Nb header lines : 54

Chronopotentiometry

Run on channel : 5 (SN 30436)
User :
CE vs. WE compliance from -10 V to 10 V
Electrode connection : standard
Potential control : Ewe
Ewe ctrl range : min = -2.50 V, max = 2.50 V
Safety Limits :
	Do not start on E overload
Acquisition started on : 01/05/2023 11:11:11.191
Technique started on : 01/05/2023 11:24:36.077
Loaded Setting File :  C:\Users\grupogalan\Documents\EC-Lab\Data\Scott\2022_01_04 NiNx Ti electrode1.mps
Saved on :
	File : 2022_01_05 CoNx Ti electrode1_04_CP_C05.mpr
	Directory : C:\Users\grupogalan\Documents\EC-Lab\Data\Scott\
	Host : 169.254.104.159
Device : VSP (SN 1176)
Address : USB
EC-Lab for windows v11.46 (software)
Internet server v11.40 (firmware)
Command interpretor v11.40 (firmware)
Electrode material :
Initial state :
Electrolyte :
Comments :
Electrode surface area : 0.000 cm²
Characteristic mass : 0.001 g
Equivalent Weight : 0.000 g/eq.
Density : 0.000 g/cm3
Volume (V) : 0.001 cm³
Cycle Definition : Charge/Discharge alternance
Ns                  0                   1                   2                   3                   4                   5                   6                   7                   8                   9                   10                  11                  12
Is                  10.000              18.000              32.000              56.000              100.000             178.000             316.000             562.000             1.000               1.778               3.162               5.623               10.000
unit Is             µA                  µA                  µA                  µA                  µA                  µA                  µA                  µA                  mA                  mA                  mA                  mA                  mA
vs.                 <None>              <None>              <None>              <None>              <None>              <None>              <None>              <None>              <None>              <None>              <None>              <None>              <None>
ts (h:m:s)          0:03:0.0000         0:03:0.0000         0:03:0.0000         0:03:0.0000         0:03:0.0000         0:03:0.0000         0:03:0.0000         0:03:0.0000         0:03:0.0000         0:03:0.0000         0:03:0.0000         0:03:0.0000         0:03:0.0000
EM (V)              pass                pass                pass                pass                pass                pass                pass                pass                pass                pass                pass                pass                pass
dQM                 500.000             900.000             1.600               2.800               5.000               8.900               15.800              28.100              50.000              88.900              158.100             281.150             500.000
unit dQM            nA.h                nA.h                µA.h                µA.h                µA.h                µA.h                µA.h                µA.h                µA.h                µA.h                µA.h                µA.h                µA.h
record              <Ewe>               <Ewe>               <Ewe>               <Ewe>               <Ewe>               <Ewe>               <Ewe>               <Ewe>               <Ewe>               <Ewe>               <Ewe>               <Ewe>               <Ewe>
dEs (mV)            0.00                0.00                0.00                0.00                0.00                0.00                0.00                0.00                0.00                0.00                0.00                0.00                0.00
dts (s)             1.0000              1.0000              1.0000              1.0000              1.0000              1.0000              1.0000              1.0000              1.0000              1.0000              1.0000              1.0000              1.0000
E range min (V)     -2.500              -2.500              -2.500              -2.500              -2.500              -2.500              -2.500              -2.500              -2.500              -2.500              -2.500              -2.500              -2.500
E range max (V)     2.500               2.500               2.500               2.500               2.500               2.500               2.500               2.500               2.500               2.500               2.500               2.500               2.500
I Range             10 mA               10 mA               10 mA               10 mA               10 mA               10 mA               10 mA               10 mA               10 mA               10 mA               10 mA               10 mA               10 mA
Bandwidth           5                   5                   5                   5                   5                   5                   5                   5                   5                   5                   5                   5                   5
goto Ns'            0                   0                   0                   0                   0                   0                   0                   0                   0                   0                   0                   0                   0
nc cycles           0                   0                   0                   0                   0                   0                   0                   0                   0                   0                   0                   0                   0

mode	ox/red	error	control changes	Ns changes	counter inc.	Ns	time/s	control/mA	<Ewe>/V	I/mA	dQ/C	(Q-Qo)/C	half cycle	Q charge/discharge/mA.h	I Range	Energy charge/W.h	Energy discharge/W.h	Capacitance charge/µF	Capacitance discharge/µF	Q discharge/mA.h	Q charge/mA.h	Capacity/mA.h	Efficiency/%	cycle number	P/W
1	1	0	1	0	0	0	804.886	0.01	0.217718	0.00954851	9.25577e-06	9.25577e-06	0	2.57105e-06	11	5.59764e-10	0.000000000000000E+000	0.000000000000000E+000	0.000000000000000E+000	0.000000000000000E+000	2.57105e-06	2.57105e-06	0.0000000E+000	0.000000000000000E+000	2.07888e-06
1	1	0	1	0	0	0	816.886	0.01	0.260064	0.00903948	0.000125718	0.000125718	0	3.49217e-05	11	8.53122e-09	0.000000000000000E+000	2968.86	0.000000000000000E+000	0.000000000000000E+000	3.49217e-05	3.49217e-05	0.0000000E+000	0.000000000000000E+000	2.35084e-06
1	1	0	1	0	0	0	828.886	0.01	0.27483	0.009294	0.000241868	0.000241868	0	6.71857e-05	11	1.72054e-08	0.000000000000000E+000	4235	0.000000000000000E+000	0.000000000000000E+000	6.71857e-05	6.71857e-05	0.0000000E+000	0.000000000000000E+000	2.55427e-06
1	1	0	1	0	0	0	840.886	0.01	0.283331	0.00935762	0.00035732	0.00035732	0	9.92554e-05	11	2.6177e-08	0.000000000000000E+000	5445.88	0.000000000000000E+000	0.000000000000000E+000	9.92554e-05	9.92554e-05	0.0000000E+000	0.000000000000000E+000	2.6513e-06
1	1	0	1	0	0	0	852.886	0.01	0.288788	0.00935762	0.00047261	0.00047261	0	0.000131281	11	3.53515e-08	0.000000000000000E+000	6649.92	0.000000000000000E+000	0.000000000000000E+000	0.000131281	0.000131281	0.0000000E+000	0.000000000000000E+000	2.70237e-06
1	1	0	1	0	0	0	864.886	0.01	0.292602	0.00967576	0.000588249	0.000588249	0	0.000163402	11	4.4696e-08	0.000000000000000E+000	7855.53	0.000000000000000E+000	0.000000000000000E+000	0.000163402	0.000163402	0.0000000E+000	0.000000000000000E+000	2.83114e-06
1	1	0	1	0	0	0	876.886	0.01	0.294626	0.00891223	0.000703176	0.000703176	0	0.000195327	11	5.40743e-08	0.000000000000000E+000	9143.12	0.000000000000000E+000	0.000000000000000E+000	0.000195327	0.000195327	0.0000000E+000	0.000000000000000E+000	2.62577e-06
1	1	0	1	0	0	0	888.886	0.01	0.295724	0.00878497	0.000817845	0.000817845	0	0.000227179	11	6.34793e-08	0.000000000000000E+000	10484.4	0.000000000000000E+000	0.000000000000000E+000	0.000227179	0.000227179	0.0000000E+000	0.000000000000000E+000	2.59793e-06
1	1	0	1	0	0	0	900.886	0.01	0.295886	0.00916674	0.000932376	0.000932376	0	0.000258993	11	7.28916e-08	0.000000000000000E+000	11927.8	0.000000000000000E+000	0.000000000000000E+000	0.000258993	0.000258993	0.0000000E+000	0.000000000000000E+000	2.71231e-06
1	1	0	1	0	0	0	912.886	0.01	0.295309	0.00935762	0.0010469	0.0010469	0	0.000290807	11	8.22969e-08	0.000000000000000E+000	13492.7	0.000000000000000E+000	0.000000000000000E+000	0.000290807	0.000290807	0.0000000E+000	0.000000000000000E+000	2.76339e-06
1	1	0	1	0	0	0	924.886	0.01	0.293911	0.00923037	0.00116157	0.00116157	0	0.000322659	11	9.16815e-08	0.000000000000000E+000	15245.1	0.000000000000000E+000	0.000000000000000E+000	0.000322659	0.000322659	0.0000000E+000	0.000000000000000E+000	2.71291e-06
1	1	0	1	0	0	0	936.886	0.01	0.291748	0.00948488	0.00127609	0.00127609	0	0.00035447	11	1.00996e-07	0.000000000000000E+000	17237.5	0.000000000000000E+000	0.000000000000000E+000	0.00035447	0.00035447	0.0000000E+000	0.000000000000000E+000	2.7672e-06
1	1	0	1	0	0	0	948.886	0.01	0.288917	0.00961214	0.00139065	0.00139065	0	0.000386291	11	1.10232e-07	0.000000000000000E+000	19531.8	0.000000000000000E+000	0.000000000000000E+000	0.000386291	0.000386291	0.0000000E+000	0.000000000000000E+000	2.77711e-06
1	1	0	1	0	0	0	960.886	0.01	0.285436	0.00967576	0.00150521	0.00150521	0	0.000418115	11	1.19368e-07	0.000000000000000E+000	22227.8	0.000000000000000E+000	0.000000000000000E+000	0.000418115	0.000418115	0.0000000E+000	0.000000000000000E+000	2.76181e-06
1	1	0	1	0	0	0	972.886	0.01	0.28135	0.00942125	0.00161972	0.00161972	0	0.000449922	11	1.28378e-07	0.000000000000000E+000	25454.4	0.000000000000000E+000	0.000000000000000E+000	0.000449922	0.000449922	0.0000000E+000	0.000000000000000E+000	2.65067e-06
1	1	0	1	0	0	0	983.938	0.01	0.27685	0.00980302	0.00172508	0.00172508	0	0.000479188	11	1.36543e-07	0.000000000000000E+000	29173.4	0.000000000000000E+000	0.000000000000000E+000	0.000479188	0.000479188	0.0000000E+000	0.000000000000000E+000	2.71397e-06
1	1	0	0	0	0	1	995.938	0.018	0.295633	0.0166112	0.000201683	0.00192676	0	0.000535211	11	1.52851e-07	0.000000000000000E+000	24729.2	0.000000000000000E+000	0.000000000000000E+000	0.000535211	0.000535211	0.0000000E+000	0.000000000000000E+000	4.91081e-06
1	1	0	0	0	0	1	1007.94	0.018	0.29757	0.0168021	0.000403576	0.00212865	0	0.000591292	11	1.69509e-07	0.000000000000000E+000	26657.4	0.000000000000000E+000	0.000000000000000E+000	0.000591292	0.000591292	0.0000000E+000	0.000000000000000E+000	4.9998e-06
1	1	0	0	0	0	1	1019.94	0.018	0.296818	0.0165476	0.00060472	0.0023298	0	0.000647166	11	1.86122e-07	0.000000000000000E+000	29454	0.000000000000000E+000	0.000000000000000E+000	0.000647166	0.000647166	0.0000000E+000	0.000000000000000E+000	4.91161e-06
1	1	0	0	0	0	1	1031.94	0.018	0.294563	0.0165476	0.00080611	0.00253119	0	0.000703107	11	2.02665e-07	0.000000000000000E+000	32939	0.000000000000000E+000	0.000000000000000E+000	0.000703107	0.000703107	0.0000000E+000	0.000000000000000E+000	4.8743e-06
1	1	0	0	0	0	1	1043.94	0.018	0.291216	0.017502	0.00100728	0.00273236	0	0.000758989	11	2.19028e-07	0.000000000000000E+000	37176.1	0.000000000000000E+000	0.000000000000000E+000	0.000758989	0.000758989	0.0000000E+000	0.000000000000000E+000	5.09686e-06
1	1	0	0	0	0	1	1055.94	0.018	0.287024	0.0161022	0.00120822	0.00293329	0	0.000814804	11	2.35159e-07	0.000000000000000E+000	42323.7	0.000000000000000E+000	0.000000000000000E+000	0.000814804	0.000814804	0.0000000E+000	0.000000000000000E+000	4.62172e-06
1	1	0	0	0	0	1	1067.94	0.018	0.282176	0.0166748	0.00140922	0.00313429	0	0.000870637	11	2.5104e-07	0.000000000000000E+000	48625.6	0.000000000000000E+000	0.000000000000000E+000	0.000870637	0.000870637	0.0000000E+000	0.000000000000000E+000	4.70523e-06
1	1	0	0	0	0	1	1079.94	0.018	0.276882	0.0166748	0.00160999	0.00333507	0	0.000926408	11	2.6662e-07	0.000000000000000E+000	56369.7	0.000000000000000E+000	0.000000000000000E+000	0.000926408	0.000926408	0.0000000E+000	0.000000000000000E+000	4.61697e-06
1	1	0	0	0	0	1	1091.94	0.018	0.271046	0.0172475	0.00181063	0.00353571	0	0.000982141	11	2.81877e-07	0.000000000000000E+000	66300.7	0.000000000000000E+000	0.000000000000000E+000	0.000982141	0.000982141	0.0000000E+000	0.000000000000000E+000	4.67487e-06
1	1	0	0	0	0	1	1103.94	0.018	0.264875	0.0171839	0.00201174	0.00373682	0	0.00103801	11	2.96832e-07	0.000000000000000E+000	79243.1	0.000000000000000E+000	0.000000000000000E+000	0.00103801	0.00103801	0.0000000E+000	0.000000000000000E+000	4.55157e-06
1	1	0	0	0	0	1	1115.94	0.018	0.258104	0.0158477	0.00221238	0.00393746	0	0.00109374	11	3.11389e-07	0.000000000000000E+000	97495	0.000000000000000E+000	0.000000000000000E+000	0.00109374	0.00109374	0.0000000E+000	0.000000000000000E+000	4.09035e-06
1	1	0	0	0	0	1	1127.94	0.018	0.25082	0.0166748	0.00241352	0.0041386	0	0.00114961	11	3.25588e-07	0.000000000000000E+000	125026	0.000000000000000E+000	0.000000000000000E+000	0.00114961	0.00114961	0.0000000E+000	0.000000000000000E+000	4.18238e-06
1	1	0	0	0	0	1	1139.94	0.018	0.243431	0.0164203	0.00261428	0.00433935	0	0.00120538	11	3.3935e-07	0.000000000000000E+000	168764	0.000000000000000E+000	0.000000000000000E+000	0.00120538	0.00120538	0.0000000E+000	0.000000000000000E+000	3.99721e-06
1	1	0	0	0	0	1	1151.94	0.018	0.235794	0.0161658	0.00281527	0.00454035	0	0.00126121	11	3.52704e-07	0.000000000000000E+000	251185	0.000000000000000E+000	0.000000000000000E+000	0.00126121	0.00126121	0.0000000E+000	0.000000000000000E+000	3.8118e-06
1	1	0	0	0	0	1	1163.94	0.018	0.228019	0.016993	0.0030159	0.00474097	0	0.00131694	11	3.65611e-07	0.000000000000000E+000	460229	0.000000000000000E+000	0.000000000000000E+000	0.00131694	0.00131694	0.0000000E+000	0.000000000000000E+000	3.87473e-06
1	1	0	1	0	0	2	1174.94	0.032	0.258899	0.0313729	0.000339906	0.00508088	0	0.00141136	11	3.89462e-07	0.000000000000000E+000	123379	0.000000000000000E+000	0.000000000000000E+000	0.00141136	0.00141136	0.0000000E+000	0.000000000000000E+000	8.12242e-06
1	1	0	1	0	0	2	1186.94	0.032	0.263045	0.0299731	0.000710873	0.00545185	0	0.0015144	11	4.16409e-07	0.000000000000000E+000	120278	0.000000000000000E+000	0.000000000000000E+000	0.0015144	0.0015144	0.0000000E+000	0.000000000000000E+000	7.88428e-06
1	1	0	1	0	0	2	1198.94	0.032	0.264528	0.0308639	0.00108196	0.00582294	0	0.00161748	11	4.4362e-07	0.000000000000000E+000	124395	0.000000000000000E+000	0.000000000000000E+000	0.00161748	0.00161748	0.0000000E+000	0.000000000000000E+000	8.16436e-06
1	1	0	1	0	0	2	1210.94	0.032	0.264491	0.0316274	0.0014529	0.00619388	0	0.00172052	11	4.70885e-07	0.000000000000000E+000	132424	0.000000000000000E+000	0.000000000000000E+000	0.00172052	0.00172052	0.0000000E+000	0.000000000000000E+000	8.36516e-06
1	1	0	1	0	0	2	1222.94	0.032	0.263732	0.0306093	0.00182389	0.00656487	0	0.00182357	11	4.98108e-07	0.000000000000000E+000	142672	0.000000000000000E+000	0.000000000000000E+000	0.00182357	0.00182357	0.0000000E+000	0.000000000000000E+000	8.07266e-06
1	1	0	1	0	0	2	1234.94	0.032	0.262124	0.0309275	0.00219483	0.00693581	0	0.00192661	11	5.25197e-07	0.000000000000000E+000	156192	0.000000000000000E+000	0.000000000000000E+000	0.00192661	0.00192661	0.0000000E+000	0.000000000000000E+000	8.10682e-06
1	1	0	1	0	0	2	1246.94	0.032	0.259966	0.0299094	0.00256535	0.00730633	0	0.00202954	11	5.52058e-07	0.000000000000000E+000	172939	0.000000000000000E+000	0.000000000000000E+000	0.00202954	0.00202954	0.0000000E+000	0.000000000000000E+000	7.77544e-06
1	1	0	1	0	0	2	1258.94	0.032	0.257272	0.0307366	0.00293581	0.00767678	0	0.00213244	11	5.78663e-07	0.000000000000000E+000	194084	0.000000000000000E+000	0.000000000000000E+000	0.00213244	0.00213244	0.0000000E+000	0.000000000000000E+000	7.90767e-06
1	1	0	1	0	0	2	1270.94	0.032	0.254339	0.0304185	0.00330695	0.00804793	0	0.00223553	11	6.05025e-07	0.000000000000000E+000	219761	0.000000000000000E+000	0.000000000000000E+000	0.00223553	0.00223553	0.0000000E+000	0.000000000000000E+000	7.73661e-06
1	1	0	1	0	0	2	1282.94	0.032	0.250955	0.0308639	0.00367819	0.00841917	0	0.00233866	11	6.31068e-07	0.000000000000000E+000	253305	0.000000000000000E+000	0.000000000000000E+000	0.00233866	0.00233866	0.0000000E+000	0.000000000000000E+000	7.74545e-06
1	1	0	1	0	0	2	1294.94	0.032	0.247367	0.0306093	0.0040495	0.00879048	0	0.0024418	11	6.56756e-07	0.000000000000000E+000	296486	0.000000000000000E+000	0.000000000000000E+000	0.0024418	0.0024418	0.0000000E+000	0.000000000000000E+000	7.57174e-06
1	1	0	1	0	0	2	1306.94	0.032	0.243529	0.0314365	0.00442077	0.00916174	0	0.00254493	11	6.82055e-07	0.000000000000000E+000	354952	0.000000000000000E+000	0.000000000000000E+000	0.00254493	0.00254493	0.0000000E+000	0.000000000000000E+000	7.65571e-06
1	1	0	1	0	0	2	1318.94	0.032	0.239594	0.0308639	0.00479225	0.00953323	0	0.00264812	11	7.06966e-07	0.000000000000000E+000	435790	0.000000000000000E+000	0.000000000000000E+000	0.00264812	0.00264812	0.0000000E+000	0.000000000000000E+000	7.39479e-06
1	1	0	1	0	0	2	1330.94	0.032	0.235487	0.0310547	0.00516399	0.00990497	0	0.00275138	11	7.3148e-07	0.000000000000000E+000	557419	0.000000000000000E+000	0.000000000000000E+000	0.00275138	0.00275138	0.0000000E+000	0.000000000000000E+000	7.313e-06
1	1	0	1	0	0	2	1342.94	0.032	0.23115	0.030673	0.005536	0.010277	0	0.00285472	11	7.55574e-07	0.000000000000000E+000	765112	0.000000000000000E+000	0.000000000000000E+000	0.00285472	0.00285472	0.0000000E+000	0.000000000000000E+000	7.09006e-06
1	1	0	0	0	0	3	1353.94	0.056	0.274671	0.0552333	0.000552582	0.0108606	0	0.00301682	11	7.98397e-07	0.000000000000000E+000	190692	0.000000000000000E+000	0.000000000000000E+000	0.00301682	0.00301682	0.0000000E+000	0.000000000000000E+000	1.5171e-05
1	1	0	0	0	0	3	1365.94	0.056	0.285755	0.0551061	0.00121532	0.0115233	0	0.00320091	11	8.50128e-07	0.000000000000000E+000	169368	0.000000000000000E+000	0.000000000000000E+000	0.00320091	0.00320091	0.0000000E+000	0.000000000000000E+000	1.57468e-05
1	1	0	0	0	0	3	1377.94	0.056	0.294032	0.0553606	0.001878	0.012186	0	0.00338499	11	9.03585e-07	0.000000000000000E+000	159683	0.000000000000000E+000	0.000000000000000E+000	0.00338499	0.00338499	0.0000000E+000	0.000000000000000E+000	1.62778e-05
1	1	0	0	0	0	3	1389.94	0.056	0.300552	0.0553606	0.00254059	0.0128486	0	0.00356905	11	9.58375e-07	0.000000000000000E+000	155112	0.000000000000000E+000	0.000000000000000E+000	0.00356905	0.00356905	0.0000000E+000	0.000000000000000E+000	1.66388e-05
1	1	0	0	0	0	3	1401.94	0.056	0.306018	0.0550425	0.00320316	0.0135111	0	0.00375309	11	1.01425e-06	0.000000000000000E+000	153013	0.000000000000000E+000	0.000000000000000E+000	0.00375309	0.00375309	0.0000000E+000	0.000000000000000E+000	1.6844e-05
1	1	0	0	0	0	3	1413.94	0.056	0.310489	0.0549152	0.00386553	0.0141735	0	0.00393708	11	1.07101e-06	0.000000000000000E+000	152779	0.000000000000000E+000	0.000000000000000E+000	0.00393708	0.00393708	0.0000000E+000	0.000000000000000E+000	1.70506e-05
1	1	0	0	0	0	3	1425.94	0.056	0.314334	0.055297	0.0045279	0.0148359	0	0.00412108	11	1.12853e-06	0.000000000000000E+000	153555	0.000000000000000E+000	0.000000000000000E+000	0.00412108	0.00412108	0.0000000E+000	0.000000000000000E+000	1.73817e-05
1	1	0	0	0	0	3	1437.94	0.056	0.317462	0.0545971	0.00519028	0.0154982	0	0.00430507	11	1.18669e-06	0.000000000000000E+000	155381	0.000000000000000E+000	0.000000000000000E+000	0.00430507	0.00430507	0.0000000E+000	0.000000000000000E+000	1.73325e-05
1	1	0	0	0	0	3	1449.94	0.056	0.320174	0.0551061	0.00585235	0.0161603	0	0.00448898	11	1.24535e-06	0.000000000000000E+000	157729	0.000000000000000E+000	0.000000000000000E+000	0.00448898	0.00448898	0.0000000E+000	0.000000000000000E+000	1.76435e-05
1	1	0	0	0	0	3	1461.94	0.056	0.322495	0.0554242	0.0065143	0.0168223	0	0.00467285	11	1.30446e-06	0.000000000000000E+000	160553	0.000000000000000E+000	0.000000000000000E+000	0.00467285	0.00467285	0.0000000E+000	0.000000000000000E+000	1.7874e-05
1	1	0	0	0	0	3	1473.94	0.056	0.324403	0.0552333	0.00717608	0.0174841	0	0.00485668	11	1.36394e-06	0.000000000000000E+000	163885	0.000000000000000E+000	0.000000000000000E+000	0.00485668	0.00485668	0.0000000E+000	0.000000000000000E+000	1.79179e-05
1	1	0	0	0	0	3	1485.94	0.056	0.326042	0.0557424	0.00783791	0.0181459	0	0.00504052	11	1.42374e-06	0.000000000000000E+000	167515	0.000000000000000E+000	0.000000000000000E+000	0.00504052	0.00504052	0.0000000E+000	0.000000000000000E+000	1.81743e-05
1	1	0	0	0	0	3	1497.94	0.056	0.327534	0.0558696	0.00849974	0.0188077	0	0.00522436	11	1.48384e-06	0.000000000000000E+000	171266	0.000000000000000E+000	0.000000000000000E+000	0.00522436	0.00522436	0.0000000E+000	0.000000000000000E+000	1.82992e-05
1	1	0	0	0	0	3	1509.94	0.056	0.328801	0.0551697	0.00916147	0.0194694	0	0.00540818	11	1.54417e-06	0.000000000000000E+000	175269	0.000000000000000E+000	0.000000000000000E+000	0.00540818	0.00540818	0.0000000E+000	0.000000000000000E+000	1.81399e-05
1	1	0	0	0	0	3	1521.94	0.056	0.329825	0.0555515	0.00982302	0.020131	0	0.00559194	11	1.60471e-06	0.000000000000000E+000	179569	0.000000000000000E+000	0.000000000000000E+000	0.00559194	0.00559194	0.0000000E+000	0.000000000000000E+000	1.83223e-05
1	1	0	1	0	0	4	1532.94	0.1	0.383292	0.0984367	0.000889009	0.0211303	0	0.00586953	11	1.70669e-06	0.000000000000000E+000	127619	0.000000000000000E+000	0.000000000000000E+000	0.00586953	0.00586953	0.0000000E+000	0.000000000000000E+000	3.773e-05
1	1	0	1	0	0	4	1544.94	0.1	0.401817	0.0989457	0.00207411	0.0223154	0	0.00619873	11	1.83632e-06	0.000000000000000E+000	121214	0.000000000000000E+000	0.000000000000000E+000	0.00619873	0.00619873	0.0000000E+000	0.000000000000000E+000	3.97581e-05
1	1	0	1	0	0	4	1556.94	0.1	0.416519	0.0986276	0.0032591	0.0235004	0	0.00652789	11	1.97129e-06	0.000000000000000E+000	118211	0.000000000000000E+000	0.000000000000000E+000	0.00652789	0.00652789	0.0000000E+000	0.000000000000000E+000	4.10802e-05
1	1	0	1	0	0	4	1568.94	0.1	0.428582	0.097864	0.00444395	0.0246853	0	0.00685702	11	2.11059e-06	0.000000000000000E+000	117067	0.000000000000000E+000	0.000000000000000E+000	0.00685702	0.00685702	0.0000000E+000	0.000000000000000E+000	4.19428e-05
1	1	0	1	0	0	4	1580.94	0.1	0.438845	0.0990093	0.0056291	0.0258704	0	0.00718623	11	2.25355e-06	0.000000000000000E+000	116993	0.000000000000000E+000	0.000000000000000E+000	0.00718623	0.00718623	0.0000000E+000	0.000000000000000E+000	4.34498e-05
1	1	0	1	0	0	4	1592.94	0.1	0.447759	0.0985003	0.00681452	0.0270558	0	0.00751551	11	2.39968e-06	0.000000000000000E+000	117613	0.000000000000000E+000	0.000000000000000E+000	0.00751551	0.00751551	0.0000000E+000	0.000000000000000E+000	4.41044e-05
1	1	0	1	0	0	4	1604.94	0.1	0.455442	0.0988821	0.00799988	0.0282412	0	0.00784478	11	2.54851e-06	0.000000000000000E+000	118798	0.000000000000000E+000	0.000000000000000E+000	0.00784478	0.00784478	0.0000000E+000	0.000000000000000E+000	4.5035e-05
1	1	0	1	0	0	4	1616.94	0.1	0.462224	0.0981822	0.00918518	0.0294265	0	0.00817402	11	2.69969e-06	0.000000000000000E+000	120351	0.000000000000000E+000	0.000000000000000E+000	0.00817402	0.00817402	0.0000000E+000	0.000000000000000E+000	4.53822e-05
1	1	0	1	0	0	4	1628.94	0.1	0.468336	0.0996456	0.0103704	0.0306117	0	0.00850324	11	2.85298e-06	0.000000000000000E+000	122145	0.000000000000000E+000	0.000000000000000E+000	0.00850324	0.00850324	0.0000000E+000	0.000000000000000E+000	4.66676e-05
1	1	0	1	0	0	4	1640.94	0.1	0.473887	0.100027	0.0115558	0.0317971	0	0.00883253	11	3.00819e-06	0.000000000000000E+000	124126	0.000000000000000E+000	0.000000000000000E+000	0.00883253	0.00883253	0.0000000E+000	0.000000000000000E+000	4.74016e-05
1	1	0	1	0	0	4	1652.94	0.1	0.479062	0.0981185	0.0127409	0.0329822	0	0.00916171	11	3.16513e-06	0.000000000000000E+000	126202	0.000000000000000E+000	0.000000000000000E+000	0.00916171	0.00916171	0.0000000E+000	0.000000000000000E+000	4.70048e-05
1	1	0	1	0	0	4	1664.94	0.1	0.483805	0.0981185	0.013926	0.0341673	0	0.00949091	11	3.3237e-06	0.000000000000000E+000	128406	0.000000000000000E+000	0.000000000000000E+000	0.00949091	0.00949091	0.0000000E+000	0.000000000000000E+000	4.74703e-05
1	1	0	1	0	0	4	1676.94	0.1	0.48825	0.0991366	0.0151113	0.0353526	0	0.00982016	11	3.48378e-06	0.000000000000000E+000	130678	0.000000000000000E+000	0.000000000000000E+000	0.00982016	0.00982016	0.0000000E+000	0.000000000000000E+000	4.84034e-05
1	1	0	1	0	0	4	1688.94	0.1	0.492482	0.0985003	0.0162968	0.0365381	0	0.0101495	11	3.64534e-06	0.000000000000000E+000	132980	0.000000000000000E+000	0.000000000000000E+000	0.0101495	0.0101495	0.0000000E+000	0.000000000000000E+000	4.85096e-05
1	1	0	1	0	0	4	1700.94	0.1	0.496464	0.0997092	0.0174825	0.0377238	0	0.0104788	11	3.80825e-06	0.000000000000000E+000	135334	0.000000000000000E+000	0.000000000000000E+000	0.0104788	0.0104788	0.0000000E+000	0.000000000000000E+000	4.95021e-05
1	1	0	0	0	0	5	1711.94	0.178	0.54763	0.177653	0.00141804	0.0394383	0	0.0109551	11	4.05984e-06	0.000000000000000E+000	119542	0.000000000000000E+000	0.000000000000000E+000	0.0109551	0.0109551	0.0000000E+000	0.000000000000000E+000	9.72883e-05
1	1	0	0	0	0	5	1723.94	0.178	0.566814	0.176699	0.00354501	0.0415653	0	0.0115459	11	4.39018e-06	0.000000000000000E+000	119066	0.000000000000000E+000	0.000000000000000E+000	0.0115459	0.0115459	0.0000000E+000	0.000000000000000E+000	0.000100155
1	1	0	0	0	0	5	1735.94	0.178	0.577064	0.177526	0.00567192	0.0436922	0	0.0121367	11	4.72863e-06	0.000000000000000E+000	121588	0.000000000000000E+000	0.000000000000000E+000	0.0121367	0.0121367	0.0000000E+000	0.000000000000000E+000	0.000102444
1	1	0	0	0	0	5	1747.94	0.178	0.583144	0.177208	0.00779913	0.0458194	0	0.0127276	11	5.07169e-06	0.000000000000000E+000	125386	0.000000000000000E+000	0.000000000000000E+000	0.0127276	0.0127276	0.0000000E+000	0.000000000000000E+000	0.000103338
1	1	0	0	0	0	5	1759.94	0.178	0.587052	0.176826	0.00992619	0.0479465	0	0.0133185	11	5.41757e-06	0.000000000000000E+000	129819	0.000000000000000E+000	0.000000000000000E+000	0.0133185	0.0133185	0.0000000E+000	0.000000000000000E+000	0.000103806
1	1	0	0	0	0	5	1771.94	0.178	0.589676	0.177717	0.0120533	0.0500735	0	0.0139093	11	5.76532e-06	0.000000000000000E+000	134622	0.000000000000000E+000	0.000000000000000E+000	0.0139093	0.0139093	0.0000000E+000	0.000000000000000E+000	0.000104795
1	1	0	0	0	0	5	1783.94	0.178	0.591395	0.176953	0.0141806	0.0522009	0	0.0145002	11	6.11436e-06	0.000000000000000E+000	139695	0.000000000000000E+000	0.000000000000000E+000	0.0145002	0.0145002	0.0000000E+000	0.000000000000000E+000	0.000104649
1	1	0	0	0	0	5	1795.94	0.178	0.592609	0.176763	0.0163081	0.0543284	0	0.0150912	11	6.46426e-06	0.000000000000000E+000	144918	0.000000000000000E+000	0.000000000000000E+000	0.0150912	0.0150912	0.0000000E+000	0.000000000000000E+000	0.000104751
1	1	0	0	0	0	5	1807.94	0.178	0.593555	0.17689	0.0184358	0.0564561	0	0.0156823	11	6.81483e-06	0.000000000000000E+000	150215	0.000000000000000E+000	0.000000000000000E+000	0.0156823	0.0156823	0.0000000E+000	0.000000000000000E+000	0.000104994
1	1	0	0	0	0	5	1819.94	0.178	0.594342	0.176763	0.0205632	0.0585835	0	0.0162732	11	7.16584e-06	0.000000000000000E+000	155549	0.000000000000000E+000	0.000000000000000E+000	0.0162732	0.0162732	0.0000000E+000	0.000000000000000E+000	0.000105057
1	1	0	0	0	0	5	1831.94	0.178	0.594925	0.177717	0.0226905	0.0607108	0	0.0168641	11	7.51723e-06	0.000000000000000E+000	160948	0.000000000000000E+000	0.000000000000000E+000	0.0168641	0.0168641	0.0000000E+000	0.000000000000000E+000	0.000105728
1	1	0	0	0	0	5	1843.94	0.178	0.595475	0.17759	0.0248178	0.0628381	0	0.017455	11	7.86896e-06	0.000000000000000E+000	166345	0.000000000000000E+000	0.000000000000000E+000	0.017455	0.017455	0.0000000E+000	0.000000000000000E+000	0.00010575
1	1	0	0	0	0	5	1855.94	0.178	0.595896	0.17689	0.0269452	0.0649655	0	0.018046	11	8.22099e-06	0.000000000000000E+000	171786	0.000000000000000E+000	0.000000000000000E+000	0.018046	0.018046	0.0000000E+000	0.000000000000000E+000	0.000105408
1	1	0	0	0	0	5	1867.94	0.178	0.59628	0.176508	0.029073	0.0670933	0	0.018637	11	8.5733e-06	0.000000000000000E+000	177232	0.000000000000000E+000	0.000000000000000E+000	0.018637	0.018637	0.0000000E+000	0.000000000000000E+000	0.000105248
1	1	0	0	0	0	5	1879.94	0.178	0.596656	0.17689	0.0312005	0.0692208	0	0.019228	11	8.92581e-06	0.000000000000000E+000	182671	0.000000000000000E+000	0.000000000000000E+000	0.019228	0.019228	0.0000000E+000	0.000000000000000E+000	0.000105542
1	1	0	1	0	0	6	1890.94	0.316	0.622764	0.315153	0.00220402	0.072134	0	0.0200372	11	9.42332e-06	0.000000000000000E+000	178089	0.000000000000000E+000	0.000000000000000E+000	0.0200372	0.0200372	0.0000000E+000	0.000000000000000E+000	0.000196266
1	1	0	1	0	0	6	1902.94	0.316	0.623685	0.315662	0.00598218	0.0759122	0	0.0210867	11	1.00775e-05	0.000000000000000E+000	186991	0.000000000000000E+000	0.000000000000000E+000	0.0210867	0.0210867	0.0000000E+000	0.000000000000000E+000	0.000196874
1	1	0	1	0	0	6	1914.94	0.316	0.624062	0.315471	0.00976032	0.0796903	0	0.0221362	11	1.07323e-05	0.000000000000000E+000	196115	0.000000000000000E+000	0.000000000000000E+000	0.0221362	0.0221362	0.0000000E+000	0.000000000000000E+000	0.000196874
1	1	0	1	0	0	6	1926.94	0.316	0.624296	0.315026	0.0135386	0.0834686	0	0.0231857	11	1.13874e-05	0.000000000000000E+000	205296	0.000000000000000E+000	0.000000000000000E+000	0.0231857	0.0231857	0.0000000E+000	0.000000000000000E+000	0.000196669
1	1	0	1	0	0	6	1938.94	0.316	0.624548	0.314644	0.0173167	0.0872467	0	0.0242352	11	1.20427e-05	0.000000000000000E+000	214455	0.000000000000000E+000	0.000000000000000E+000	0.0242352	0.0242352	0.0000000E+000	0.000000000000000E+000	0.00019651
1	1	0	1	0	0	6	1950.94	0.316	0.62468	0.31439	0.0210952	0.0910252	0	0.0252848	11	1.26983e-05	0.000000000000000E+000	223670	0.000000000000000E+000	0.000000000000000E+000	0.0252848	0.0252848	0.0000000E+000	0.000000000000000E+000	0.000196393
1	1	0	1	0	0	6	1962.94	0.316	0.624795	0.314835	0.0248736	0.0948036	0	0.0263343	11	1.3354e-05	0.000000000000000E+000	232888	0.000000000000000E+000	0.000000000000000E+000	0.0263343	0.0263343	0.0000000E+000	0.000000000000000E+000	0.000196708
1	1	0	1	0	0	6	1974.94	0.316	0.624874	0.315153	0.0286518	0.0985818	0	0.0273838	11	1.40098e-05	0.000000000000000E+000	242123	0.000000000000000E+000	0.000000000000000E+000	0.0273838	0.0273838	0.0000000E+000	0.000000000000000E+000	0.000196931
1	1	0	1	0	0	6	1986.94	0.316	0.625005	0.314771	0.0324298	0.10236	0	0.0284333	11	1.46656e-05	0.000000000000000E+000	251321	0.000000000000000E+000	0.000000000000000E+000	0.0284333	0.0284333	0.0000000E+000	0.000000000000000E+000	0.000196734
1	1	0	1	0	0	6	1998.94	0.316	0.625107	0.314453	0.0362081	0.106138	0	0.0294828	11	1.53217e-05	0.000000000000000E+000	260532	0.000000000000000E+000	0.000000000000000E+000	0.0294828	0.0294828	0.0000000E+000	0.000000000000000E+000	0.000196567
1	1	0	1	0	0	6	2010.94	0.316	0.625134	0.314708	0.0399862	0.109916	0	0.0305323	11	1.59777e-05	0.000000000000000E+000	269789	0.000000000000000E+000	0.000000000000000E+000	0.0305323	0.0305323	0.0000000E+000	0.000000000000000E+000	0.000196734
1	1	0	1	0	0	6	2022.94	0.316	0.625248	0.314326	0.0437645	0.113694	0	0.0315818	11	1.66339e-05	0.000000000000000E+000	278985	0.000000000000000E+000	0.000000000000000E+000	0.0315818	0.0315818	0.0000000E+000	0.000000000000000E+000	0.000196532
1	1	0	1	0	0	6	2034.94	0.316	0.625286	0.314771	0.0475427	0.117473	0	0.0326313	11	1.72901e-05	0.000000000000000E+000	288228	0.000000000000000E+000	0.000000000000000E+000	0.0326313	0.0326313	0.0000000E+000	0.000000000000000E+000	0.000196822
1	1	0	1	0	0	6	2046.94	0.316	0.625384	0.31509	0.0513208	0.121251	0	0.0336808	11	1.79464e-05	0.000000000000000E+000	297427	0.000000000000000E+000	0.000000000000000E+000	0.0336808	0.0336808	0.0000000E+000	0.000000000000000E+000	0.000197052
1	1	0	1	0	0	6	2058.94	0.316	0.625452	0.314771	0.0550989	0.125029	0	0.0347303	11	1.86028e-05	0.000000000000000E+000	306643	0.000000000000000E+000	0.000000000000000E+000	0.0347303	0.0347303	0.0000000E+000	0.000000000000000E+000	0.000196875
1	1	0	0	0	0	7	2069.94	0.562	0.64839	0.560948	0.00336544	0.129969	0	0.0361024	11	1.94817e-05	0.000000000000000E+000	301781	0.000000000000000E+000	0.000000000000000E+000	0.0361024	0.0361024	0.0000000E+000	0.000000000000000E+000	0.000363713
1	1	0	0	0	0	7	2081.94	0.562	0.64864	0.561457	0.0100957	0.136699	0	0.0379719	11	2.06942e-05	0.000000000000000E+000	317225	0.000000000000000E+000	0.000000000000000E+000	0.0379719	0.0379719	0.0000000E+000	0.000000000000000E+000	0.000364183
1	1	0	0	0	0	7	2093.94	0.562	0.648741	0.560439	0.0168262	0.143429	0	0.0398415	11	2.1907e-05	0.000000000000000E+000	332765	0.000000000000000E+000	0.000000000000000E+000	0.0398415	0.0398415	0.0000000E+000	0.000000000000000E+000	0.00036358
1	1	0	0	0	0	7	2105.94	0.562	0.648873	0.561457	0.0235568	0.15016	0	0.0417111	11	2.312e-05	0.000000000000000E+000	348274	0.000000000000000E+000	0.000000000000000E+000	0.0417111	0.0417111	0.0000000E+000	0.000000000000000E+000	0.000364314
1	1	0	0	0	0	7	2117.94	0.562	0.648959	0.561139	0.0302873	0.156891	0	0.0435807	11	2.43332e-05	0.000000000000000E+000	363812	0.000000000000000E+000	0.000000000000000E+000	0.0435807	0.0435807	0.0000000E+000	0.000000000000000E+000	0.000364156
1	1	0	0	0	0	7	2129.94	0.562	0.649028	0.561266	0.0370181	0.163621	0	0.0454504	11	2.55467e-05	0.000000000000000E+000	379359	0.000000000000000E+000	0.000000000000000E+000	0.0454504	0.0454504	0.0000000E+000	0.000000000000000E+000	0.000364277
1	1	0	0	0	0	7	2141.94	0.562	0.649037	0.560948	0.0437495	0.170353	0	0.0473202	11	2.67602e-05	0.000000000000000E+000	394957	0.000000000000000E+000	0.000000000000000E+000	0.0473202	0.0473202	0.0000000E+000	0.000000000000000E+000	0.000364076
1	1	0	0	0	0	7	2153.94	0.562	0.649083	0.56133	0.0504806	0.177084	0	0.04919	11	2.79738e-05	0.000000000000000E+000	410520	0.000000000000000E+000	0.000000000000000E+000	0.04919	0.04919	0.0000000E+000	0.000000000000000E+000	0.000364349
1	1	0	0	0	0	7	2165.94	0.562	0.649123	0.561457	0.0572115	0.183815	0	0.0510597	11	2.91875e-05	0.000000000000000E+000	426084	0.000000000000000E+000	0.000000000000000E+000	0.0510597	0.0510597	0.0000000E+000	0.000000000000000E+000	0.000364455
1	1	0	0	0	0	7	2177.94	0.562	0.649067	0.560439	0.0639423	0.190546	0	0.0529293	11	3.04011e-05	0.000000000000000E+000	441744	0.000000000000000E+000	0.000000000000000E+000	0.0529293	0.0529293	0.0000000E+000	0.000000000000000E+000	0.000363762
1	1	0	0	0	0	7	2189.94	0.562	0.64911	0.560948	0.0706734	0.197277	0	0.0547991	11	3.16147e-05	0.000000000000000E+000	457302	0.000000000000000E+000	0.000000000000000E+000	0.0547991	0.0547991	0.0000000E+000	0.000000000000000E+000	0.000364117
1	1	0	0	0	0	7	2201.94	0.562	0.649102	0.561011	0.0774045	0.204008	0	0.0566688	11	3.28284e-05	0.000000000000000E+000	472914	0.000000000000000E+000	0.000000000000000E+000	0.0566688	0.0566688	0.0000000E+000	0.000000000000000E+000	0.000364154
1	1	0	0	0	0	7	2213.94	0.562	0.64913	0.561139	0.0841353	0.210739	0	0.0585385	11	3.4042e-05	0.000000000000000E+000	488486	0.000000000000000E+000	0.000000000000000E+000	0.0585385	0.0585385	0.0000000E+000	0.000000000000000E+000	0.000364252
1	1	0	0	0	0	7	2225.94	0.562	0.649121	0.561075	0.0908663	0.217469	0	0.0604082	11	3.52557e-05	0.000000000000000E+000	504099	0.000000000000000E+000	0.000000000000000E+000	0.0604082	0.0604082	0.0000000E+000	0.000000000000000E+000	0.000364206
1	1	0	0	0	0	7	2237.94	0.562	0.649127	0.561202	0.0975973	0.2242	0	0.0622779	11	3.64694e-05	0.000000000000000E+000	519694	0.000000000000000E+000	0.000000000000000E+000	0.0622779	0.0622779	0.0000000E+000	0.000000000000000E+000	0.000364292
1	1	0	1	0	0	8	2248.94	1	0.673166	0.999599	0.00499593	0.232562	0	0.0646005	11	3.80099e-05	0.000000000000000E+000	510622	0.000000000000000E+000	0.000000000000000E+000	0.0646005	0.0646005	0.0000000E+000	0.000000000000000E+000	0.000672896
1	1	0	1	0	0	8	2260.94	1	0.673359	0.999789	0.0169868	0.244553	0	0.0679313	11	4.02525e-05	0.000000000000000E+000	536722	0.000000000000000E+000	0.000000000000000E+000	0.0679313	0.0679313	0.0000000E+000	0.000000000000000E+000	0.000673217
1	1	0	1	0	0	8	2272.94	1	0.6734	0.998835	0.0289774	0.256543	0	0.071262	11	4.24954e-05	0.000000000000000E+000	562988	0.000000000000000E+000	0.000000000000000E+000	0.071262	0.071262	0.0000000E+000	0.000000000000000E+000	0.000672615
1	1	0	1	0	0	8	2284.94	1	0.67342	0.99928	0.040968	0.268534	0	0.0745928	11	4.47384e-05	0.000000000000000E+000	589275	0.000000000000000E+000	0.000000000000000E+000	0.0745928	0.0745928	0.0000000E+000	0.000000000000000E+000	0.000672936
1	1	0	1	0	0	8	2296.94	1	0.673417	0.998962	0.0529587	0.280525	0	0.0779235	11	4.69815e-05	0.000000000000000E+000	615592	0.000000000000000E+000	0.000000000000000E+000	0.0779235	0.0779235	0.0000000E+000	0.000000000000000E+000	0.000672718
1	1	0	1	0	0	8	2308.94	1	0.673467	0.99928	0.0649497	0.292516	0	0.0812543	11	4.92246e-05	0.000000000000000E+000	641835	0.000000000000000E+000	0.000000000000000E+000	0.0812543	0.0812543	0.0000000E+000	0.000000000000000E+000	0.000672983
1	1	0	1	0	0	8	2320.94	1	0.673477	0.99998	0.0769403	0.304506	0	0.0845851	11	5.14677e-05	0.000000000000000E+000	668130	0.000000000000000E+000	0.000000000000000E+000	0.0845851	0.0845851	0.0000000E+000	0.000000000000000E+000	0.000673464
1	1	0	1	0	0	8	2332.94	1	0.673536	0.999726	0.0889309	0.316497	0	0.0879158	11	5.37109e-05	0.000000000000000E+000	694349	0.000000000000000E+000	0.000000000000000E+000	0.0879158	0.0879158	0.0000000E+000	0.000000000000000E+000	0.000673352
1	1	0	1	0	0	8	2344.94	1	0.673482	0.999471	0.100922	0.328488	0	0.0912465	11	5.59542e-05	0.000000000000000E+000	720740	0.000000000000000E+000	0.000000000000000E+000	0.0912465	0.0912465	0.0000000E+000	0.000000000000000E+000	0.000673126
1	1	0	1	0	0	8	2356.94	1	0.673447	0.998644	0.112912	0.340478	0	0.0945773	11	5.81973e-05	0.000000000000000E+000	747107	0.000000000000000E+000	0.000000000000000E+000	0.0945773	0.0945773	0.0000000E+000	0.000000000000000E+000	0.000672534
1	1	0	1	0	0	8	2368.94	1	0.673459	0.999408	0.124903	0.352469	0	0.097908	11	6.04404e-05	0.000000000000000E+000	773399	0.000000000000000E+000	0.000000000000000E+000	0.097908	0.097908	0.0000000E+000	0.000000000000000E+000	0.00067306
1	1	0	1	0	0	8	2380.94	1	0.673504	0.99928	0.136894	0.36446	0	0.101239	11	6.26836e-05	0.000000000000000E+000	799629	0.000000000000000E+000	0.000000000000000E+000	0.101239	0.101239	0.0000000E+000	0.000000000000000E+000	0.00067302
1	1	0	1	0	0	8	2392.94	1	0.673492	0.999344	0.148885	0.376451	0	0.10457	11	6.49269e-05	0.000000000000000E+000	825960	0.000000000000000E+000	0.000000000000000E+000	0.10457	0.10457	0.0000000E+000	0.000000000000000E+000	0.00067305
1	1	0	1	0	0	8	2404.94	1	0.673536	0.998835	0.160875	0.388441	0	0.1079	11	6.71702e-05	0.000000000000000E+000	852186	0.000000000000000E+000	0.000000000000000E+000	0.1079	0.1079	0.0000000E+000	0.000000000000000E+000	0.000672751
1	1	0	1	0	0	8	2416.94	1	0.673491	0.99928	0.172866	0.400432	0	0.111231	11	6.94135e-05	0.000000000000000E+000	878578	0.000000000000000E+000	0.000000000000000E+000	0.111231	0.111231	0.0000000E+000	0.000000000000000E+000	0.000673006
1	1	0	0	0	0	9	2427.94	1.778	0.700553	1.77656	0.00710682	0.414534	0	0.115148	11	7.21046e-05	0.000000000000000E+000	858542	0.000000000000000E+000	0.000000000000000E+000	0.115148	0.115148	0.0000000E+000	0.000000000000000E+000	0.00124457
1	1	0	0	0	0	9	2439.94	1.778	0.700651	1.77618	0.0284278	0.435855	0	0.121071	11	7.62543e-05	0.000000000000000E+000	902517	0.000000000000000E+000	0.000000000000000E+000	0.121071	0.121071	0.0000000E+000	0.000000000000000E+000	0.00124448
1	1	0	0	0	0	9	2451.94	1.778	0.700731	1.77624	0.0497488	0.457176	0	0.126993	11	8.04045e-05	0.000000000000000E+000	946508	0.000000000000000E+000	0.000000000000000E+000	0.126993	0.126993	0.0000000E+000	0.000000000000000E+000	0.00124467
1	1	0	0	0	0	9	2463.94	1.778	0.700798	1.77713	0.07107	0.478497	0	0.132916	11	8.45548e-05	0.000000000000000E+000	990513	0.000000000000000E+000	0.000000000000000E+000	0.132916	0.132916	0.0000000E+000	0.000000000000000E+000	0.00124541
1	1	0	0	0	0	9	2475.94	1.778	0.700841	1.77643	0.0923909	0.499818	0	0.138838	11	8.87052e-05	0.000000000000000E+000	1.03456e+06	0.000000000000000E+000	0.000000000000000E+000	0.138838	0.138838	0.0000000E+000	0.000000000000000E+000	0.001245
1	1	0	0	0	0	9	2487.94	1.778	0.700837	1.77618	0.113712	0.521139	0	0.144761	11	9.28561e-05	0.000000000000000E+000	1.0787e+06	0.000000000000000E+000	0.000000000000000E+000	0.144761	0.144761	0.0000000E+000	0.000000000000000E+000	0.00124481
1	1	0	0	0	0	9	2499.94	1.778	0.700912	1.77637	0.135033	0.542459	0	0.150683	11	9.7007e-05	0.000000000000000E+000	1.12265e+06	0.000000000000000E+000	0.000000000000000E+000	0.150683	0.150683	0.0000000E+000	0.000000000000000E+000	0.00124508
1	1	0	0	0	0	9	2511.94	1.778	0.700991	1.77669	0.156353	0.56378	0	0.156606	11	0.000101158	0.000000000000000E+000	1.16659e+06	0.000000000000000E+000	0.000000000000000E+000	0.156606	0.156606	0.0000000E+000	0.000000000000000E+000	0.00124544
1	1	0	0	0	0	9	2523.94	1.778	0.701002	1.77637	0.177674	0.585101	0	0.162528	11	0.00010531	0.000000000000000E+000	1.21068e+06	0.000000000000000E+000	0.000000000000000E+000	0.162528	0.162528	0.0000000E+000	0.000000000000000E+000	0.00124524
1	1	0	0	0	0	9	2535.94	1.778	0.701007	1.77643	0.198995	0.606422	0	0.16845	11	0.000109462	0.000000000000000E+000	1.25478e+06	0.000000000000000E+000	0.000000000000000E+000	0.16845	0.16845	0.0000000E+000	0.000000000000000E+000	0.00124529
1	1	0	0	0	0	9	2547.94	1.778	0.700992	1.77618	0.220316	0.627742	0	0.174373	11	0.000113614	0.000000000000000E+000	1.29894e+06	0.000000000000000E+000	0.000000000000000E+000	0.174373	0.174373	0.0000000E+000	0.000000000000000E+000	0.00124509
1	1	0	0	0	0	9	2559.94	1.778	0.701096	1.77599	0.241637	0.649063	0	0.180295	11	0.000117766	0.000000000000000E+000	1.34277e+06	0.000000000000000E+000	0.000000000000000E+000	0.180295	0.180295	0.0000000E+000	0.000000000000000E+000	0.00124514
1	1	0	0	0	0	9	2571.94	1.778	0.701086	1.77777	0.262957	0.670384	0	0.186218	11	0.000121918	0.000000000000000E+000	1.3869e+06	0.000000000000000E+000	0.000000000000000E+000	0.186218	0.186218	0.0000000E+000	0.000000000000000E+000	0.00124637
1	1	0	0	0	0	9	2583.94	1.778	0.701172	1.7765	0.284278	0.691705	0	0.19214	11	0.00012607	0.000000000000000E+000	1.43076e+06	0.000000000000000E+000	0.000000000000000E+000	0.19214	0.19214	0.0000000E+000	0.000000000000000E+000	0.00124563
1	1	0	0	0	0	9	2595.94	1.778	0.701155	1.77618	0.305599	0.713026	0	0.198063	11	0.000130222	0.000000000000000E+000	1.47491e+06	0.000000000000000E+000	0.000000000000000E+000	0.198063	0.198063	0.0000000E+000	0.000000000000000E+000	0.00124538
1	1	0	1	0	0	10	2606.94	3.162	0.732771	3.16078	0.009482	0.736722	0	0.204645	11	0.00013492	0.000000000000000E+000	1.43038e+06	0.000000000000000E+000	0.000000000000000E+000	0.204645	0.204645	0.0000000E+000	0.000000000000000E+000	0.00231613
1	1	0	1	0	0	10	2618.94	3.162	0.732872	3.16104	0.0474115	0.774651	0	0.215181	11	0.000142641	0.000000000000000E+000	1.50373e+06	0.000000000000000E+000	0.000000000000000E+000	0.215181	0.215181	0.0000000E+000	0.000000000000000E+000	0.00231664
1	1	0	1	0	0	10	2630.94	3.162	0.73313	3.16066	0.0853406	0.812581	0	0.225717	11	0.000150364	0.000000000000000E+000	1.57656e+06	0.000000000000000E+000	0.000000000000000E+000	0.225717	0.225717	0.0000000E+000	0.000000000000000E+000	0.00231717
1	1	0	1	0	0	10	2642.94	3.162	0.733317	3.16059	0.12327	0.85051	0	0.236253	11	0.000158089	0.000000000000000E+000	1.64956e+06	0.000000000000000E+000	0.000000000000000E+000	0.236253	0.236253	0.0000000E+000	0.000000000000000E+000	0.00231772
1	1	0	1	0	0	10	2654.94	3.162	0.733512	3.16021	0.161199	0.888439	0	0.246789	11	0.000165816	0.000000000000000E+000	1.72247e+06	0.000000000000000E+000	0.000000000000000E+000	0.246789	0.246789	0.0000000E+000	0.000000000000000E+000	0.00231805
1	1	0	1	0	0	10	2666.94	3.162	0.733595	3.16059	0.199128	0.926368	0	0.257324	11	0.000173544	0.000000000000000E+000	1.79572e+06	0.000000000000000E+000	0.000000000000000E+000	0.257324	0.257324	0.0000000E+000	0.000000000000000E+000	0.0023186
1	1	0	1	0	0	10	2678.94	3.162	0.73367	3.16072	0.237057	0.964297	0	0.26786	11	0.000181273	0.000000000000000E+000	1.86897e+06	0.000000000000000E+000	0.000000000000000E+000	0.26786	0.26786	0.0000000E+000	0.000000000000000E+000	0.00231893
1	1	0	1	0	0	10	2690.94	3.162	0.733863	3.16047	0.274986	1.00223	0	0.278396	11	0.000189004	0.000000000000000E+000	1.94175e+06	0.000000000000000E+000	0.000000000000000E+000	0.278396	0.278396	0.0000000E+000	0.000000000000000E+000	0.00231935
1	1	0	1	0	0	10	2702.94	3.162	0.733928	3.1611	0.312915	1.04016	0	0.288932	11	0.000196736	0.000000000000000E+000	2.01499e+06	0.000000000000000E+000	0.000000000000000E+000	0.288932	0.288932	0.0000000E+000	0.000000000000000E+000	0.00232002
1	1	0	1	0	0	10	2714.94	3.162	0.733997	3.16078	0.350844	1.07808	0	0.299468	11	0.000204468	0.000000000000000E+000	2.08818e+06	0.000000000000000E+000	0.000000000000000E+000	0.299468	0.299468	0.0000000E+000	0.000000000000000E+000	0.00232001
1	1	0	1	0	0	10	2726.94	3.162	0.734143	3.16027	0.388773	1.11601	0	0.310004	11	0.000212202	0.000000000000000E+000	2.16104e+06	0.000000000000000E+000	0.000000000000000E+000	0.310004	0.310004	0.0000000E+000	0.000000000000000E+000	0.00232009
1	1	0	1	0	0	10	2738.94	3.162	0.734191	3.1604	0.426702	1.15394	0	0.320539	11	0.000219938	0.000000000000000E+000	2.23428e+06	0.000000000000000E+000	0.000000000000000E+000	0.320539	0.320539	0.0000000E+000	0.000000000000000E+000	0.00232034
1	1	0	1	0	0	10	2750.94	3.162	0.734403	3.16136	0.464631	1.19187	0	0.331075	11	0.000227674	0.000000000000000E+000	2.30677e+06	0.000000000000000E+000	0.000000000000000E+000	0.331075	0.331075	0.0000000E+000	0.000000000000000E+000	0.00232171
1	1	0	1	0	0	10	2762.94	3.162	0.734432	3.16066	0.50256	1.2298	0	0.341611	11	0.000235412	0.000000000000000E+000	2.38004e+06	0.000000000000000E+000	0.000000000000000E+000	0.341611	0.341611	0.0000000E+000	0.000000000000000E+000	0.00232129
1	1	0	1	0	0	10	2774.94	3.162	0.734483	3.16148	0.540489	1.26773	0	0.352147	11	0.000243151	0.000000000000000E+000	2.4532e+06	0.000000000000000E+000	0.000000000000000E+000	0.352147	0.352147	0.0000000E+000	0.000000000000000E+000	0.00232206
1	1	0	0	0	0	11	2785.94	5.623	0.771443	5.62064	0.0112419	1.30742	0	0.363172	11	0.000251364	0.000000000000000E+000	2.36114e+06	0.000000000000000E+000	0.000000000000000E+000	0.363172	0.363172	0.0000000E+000	0.000000000000000E+000	0.004336
1	1	0	0	0	0	11	2797.94	5.623	0.771595	5.6214	0.0786963	1.37487	0	0.381909	11	0.00026582	0.000000000000000E+000	2.48227e+06	0.000000000000000E+000	0.000000000000000E+000	0.381909	0.381909	0.0000000E+000	0.000000000000000E+000	0.00433744
1	1	0	0	0	0	11	2809.94	5.623	0.772041	5.62159	0.146151	1.44233	0	0.400647	11	0.000280282	0.000000000000000E+000	2.60197e+06	0.000000000000000E+000	0.000000000000000E+000	0.400647	0.400647	0.0000000E+000	0.000000000000000E+000	0.0043401
1	1	0	0	0	0	11	2821.94	5.623	0.772344	5.62102	0.213605	1.50978	0	0.419384	11	0.000294752	0.000000000000000E+000	2.72216e+06	0.000000000000000E+000	0.000000000000000E+000	0.419384	0.419384	0.0000000E+000	0.000000000000000E+000	0.00434136
1	1	0	0	0	0	11	2833.94	5.623	0.772774	5.62134	0.28106	1.57724	0	0.438121	11	0.000309228	0.000000000000000E+000	2.84158e+06	0.000000000000000E+000	0.000000000000000E+000	0.438121	0.438121	0.0000000E+000	0.000000000000000E+000	0.00434402
1	1	0	0	0	0	11	2845.94	5.623	0.772786	5.62083	0.348515	1.64469	0	0.456859	11	0.000323708	0.000000000000000E+000	2.96305e+06	0.000000000000000E+000	0.000000000000000E+000	0.456859	0.456859	0.0000000E+000	0.000000000000000E+000	0.0043437
1	1	0	0	0	0	11	2857.94	5.623	0.773155	5.62147	0.415969	1.71215	0	0.475596	11	0.000338192	0.000000000000000E+000	3.08252e+06	0.000000000000000E+000	0.000000000000000E+000	0.475596	0.475596	0.0000000E+000	0.000000000000000E+000	0.00434626
1	1	0	0	0	0	11	2869.94	5.623	0.773423	5.62102	0.483424	1.7796	0	0.494334	11	0.000352681	0.000000000000000E+000	3.20242e+06	0.000000000000000E+000	0.000000000000000E+000	0.494334	0.494334	0.0000000E+000	0.000000000000000E+000	0.00434743
1	1	0	0	0	0	11	2881.94	5.623	0.773761	5.62032	0.550878	1.84706	0	0.513071	11	0.000367177	0.000000000000000E+000	3.32179e+06	0.000000000000000E+000	0.000000000000000E+000	0.513071	0.513071	0.0000000E+000	0.000000000000000E+000	0.00434878
1	1	0	0	0	0	11	2893.94	5.623	0.773893	5.62134	0.618333	1.91451	0	0.531808	11	0.000381676	0.000000000000000E+000	3.44228e+06	0.000000000000000E+000	0.000000000000000E+000	0.531808	0.531808	0.0000000E+000	0.000000000000000E+000	0.00435032
1	1	0	0	0	0	11	2905.94	5.623	0.774225	5.62108	0.685788	1.98196	0	0.550546	11	0.000396181	0.000000000000000E+000	3.56144e+06	0.000000000000000E+000	0.000000000000000E+000	0.550546	0.550546	0.0000000E+000	0.000000000000000E+000	0.00435199
1	1	0	0	0	0	11	2917.94	5.623	0.77426	5.62064	0.753242	2.04942	0	0.569283	11	0.000410691	0.000000000000000E+000	3.68242e+06	0.000000000000000E+000	0.000000000000000E+000	0.569283	0.569283	0.0000000E+000	0.000000000000000E+000	0.00435184
1	1	0	0	0	0	11	2929.94	5.623	0.774116	5.62127	0.820696	2.11687	0	0.58802	11	0.000425198	0.000000000000000E+000	3.8046e+06	0.000000000000000E+000	0.000000000000000E+000	0.58802	0.58802	0.0000000E+000	0.000000000000000E+000	0.00435152
1	1	0	0	0	0	11	2941.94	5.623	0.774266	5.6207	0.888151	2.18433	0	0.606758	11	0.000439705	0.000000000000000E+000	3.92478e+06	0.000000000000000E+000	0.000000000000000E+000	0.606758	0.606758	0.0000000E+000	0.000000000000000E+000	0.00435192
1	1	0	0	0	0	11	2953.94	5.623	0.774642	5.62153	0.955605	2.25178	0	0.625495	11	0.000454217	0.000000000000000E+000	4.04325e+06	0.000000000000000E+000	0.000000000000000E+000	0.625495	0.625495	0.0000000E+000	0.000000000000000E+000	0.00435467
1	1	0	1	1	0	12	2964.94	10	0.817037	9.999	0.0099981	2.31799	0	0.643887	11	0.000468582	0.000000000000000E+000	3.86771e+06	0.000000000000000E+000	0.000000000000000E+000	0.643887	0.643887	0.0000000E+000	0.000000000000000E+000	0.00816955
1	1	0	1	0	0	12	2976.94	10	0.817987	9.99989	0.129986	2.43798	0	0.677217	11	0.000495835	0.000000000000000E+000	4.06148e+06	0.000000000000000E+000	0.000000000000000E+000	0.677217	0.677217	0.0000000E+000	0.000000000000000E+000	0.00817978
1	1	0	1	0	0	12	2988.94	10	0.818179	9.99906	0.249975	2.55797	0	0.710547	11	0.000523101	0.000000000000000E+000	4.26001e+06	0.000000000000000E+000	0.000000000000000E+000	0.710547	0.710547	0.0000000E+000	0.000000000000000E+000	0.00818102
1	1	0	1	0	0	12	3000.94	10	0.818785	9.99919	0.369962	2.67796	0	0.743877	11	0.000550384	0.000000000000000E+000	4.45534e+06	0.000000000000000E+000	0.000000000000000E+000	0.743877	0.743877	0.0000000E+000	0.000000000000000E+000	0.00818719
1	1	0	1	0	0	12	3012.94	10	0.818786	10.0002	0.48995	2.79794	0	0.777207	11	0.000577674	0.000000000000000E+000	4.65496e+06	0.000000000000000E+000	0.000000000000000E+000	0.777207	0.777207	0.0000000E+000	0.000000000000000E+000	0.00818803
1	1	0	1	0	0	12	3024.94	10	0.819172	9.99849	0.609937	2.91793	0	0.810537	11	0.000604969	0.000000000000000E+000	4.85147e+06	0.000000000000000E+000	0.000000000000000E+000	0.810537	0.810537	0.0000000E+000	0.000000000000000E+000	0.00819048
1	1	0	1	0	0	12	3036.94	10	0.819418	9.999	0.729925	3.03792	0	0.843867	11	0.000632279	0.000000000000000E+000	5.04889e+06	0.000000000000000E+000	0.000000000000000E+000	0.843867	0.843867	0.0000000E+000	0.000000000000000E+000	0.00819336
1	1	0	1	0	0	12	3048.94	10	0.819801	9.99843	0.849913	3.15791	0	0.877197	11	0.000659597	0.000000000000000E+000	5.24498e+06	0.000000000000000E+000	0.000000000000000E+000	0.877197	0.877197	0.0000000E+000	0.000000000000000E+000	0.00819672
1	1	0	1	0	0	12	3060.94	10	0.819898	9.99862	0.9699	3.2779	0	0.910526	11	0.000686923	0.000000000000000E+000	5.44339e+06	0.000000000000000E+000	0.000000000000000E+000	0.910526	0.910526	0.0000000E+000	0.000000000000000E+000	0.00819784
1	1	0	1	0	0	12	3072.94	10	0.82036	9.99913	1.08989	3.39788	0	0.943856	11	0.000714259	0.000000000000000E+000	5.63831e+06	0.000000000000000E+000	0.000000000000000E+000	0.943856	0.943856	0.0000000E+000	0.000000000000000E+000	0.00820289
1	1	0	1	0	0	12	3084.94	10	0.820332	9.999	1.20988	3.51787	0	0.977186	11	0.000741602	0.000000000000000E+000	5.83769e+06	0.000000000000000E+000	0.000000000000000E+000	0.977186	0.977186	0.0000000E+000	0.000000000000000E+000	0.0082025
1	1	0	1	0	0	12	3096.94	10	0.820671	9.99868	1.32986	3.63786	0	1.01052	11	0.000768948	0.000000000000000E+000	6.0334e+06	0.000000000000000E+000	0.000000000000000E+000	1.01052	1.01052	0.0000000E+000	0.000000000000000E+000	0.00820563
1	1	0	1	0	0	12	3108.94	10	0.820768	9.99919	1.44985	3.75785	0	1.04385	11	0.0007963	0.000000000000000E+000	6.2314e+06	0.000000000000000E+000	0.000000000000000E+000	1.04385	1.04385	0.0000000E+000	0.000000000000000E+000	0.00820701
1	1	0	1	0	0	12	3120.94	10	0.821169	9.99926	1.56984	3.87783	0	1.07718	11	0.000823662	0.000000000000000E+000	6.4261e+06	0.000000000000000E+000	0.000000000000000E+000	1.07718	1.07718	0.0000000E+000	0.000000000000000E+000	0.00821108
1	1	0	1	0	0	12	3132.94	10	0.821204	9.99951	1.68983	3.99782	0	1.11051	11	0.000851031	0.000000000000000E+000	6.62455e+06	0.000000000000000E+000	0.000000000000000E+000	1.11051	1.11051	0.0000000E+000	0.000000000000000E+000	0.00821164
1	1	0	1	0	0	12	3143.94	10	0.821007	9.99875	1.79982	4.10781	0	1.14106	11	0.000876119	0.000000000000000E+000	6.80903e+06	0.000000000000000E+000	0.000000000000000E+000	1.14106	1.14106	0.0000000E+000	0.000000000000000E+000	0.00820904