File: Data/2022_01_11 FeNx Ti electrode set1_04_CP_C05.mpt
EC-Lab ASCII FILE
Nb header lines : 53

Chronopotentiometry

Run on channel : 5 (SN 30436)
User :
CE vs. WE compliance from -10 V to 10 V
Electrode connection : standard
Potential control : Ewe
Ewe ctrl range : min = -2,50 V, max = 2,50 V
Safety Limits :
	Do not start on E overload
Acquisition started on : 01/11/2023 11:36:25.784
Loaded Setting File :  C:\Users\grupogalan\Documents\EC-Lab\Data\Scott\2022_01_05 CoNx Ti electrode1.mps
Saved on :
	File : 2022_01_11 FeNx Ti electrode set1_04_CP_C05.mpr
	Directory : C:\Users\grupogalan\Documents\EC-Lab\Data\Scott\
	Host : 169.254.104.159
Device : VSP (SN 1176)
Address : USB
EC-Lab for windows v11.46 (software)
Internet server v11.40 (firmware)
Command interpretor v11.40 (firmware)
Electrode material :
Initial state :
Electrolyte :
Comments :
Electrode surface area : 0,000 cm²
Characteristic mass : 0,001 g
Equivalent Weight : 0,000 g/eq.
Density : 0,000 g/cm3
Volume (V) : 0,001 cm³
Cycle Definition : Charge/Discharge alternance
Ns                  0                   1                   2                   3                   4                   5                   6                   7                   8                   9                   10                  11                  12
Is                  10,000              18,000              32,000              56,000              100,000             178,000             316,000             562,000             1,000               1,778               3,162               5,623               10,000
unit Is             µA                  µA                  µA                  µA                  µA                  µA                  µA                  µA                  mA                  mA                  mA                  mA                  mA
vs.                 <None>              <None>              <None>              <None>              <None>              <None>              <None>              <None>              <None>              <None>              <None>              <None>              <None>
ts (h:m:s)          0:03:0,0000         0:03:0,0000         0:03:0,0000         0:03:0,0000         0:03:0,0000         0:03:0,0000         0:03:0,0000         0:03:0,0000         0:03:0,0000         0:03:0,0000         0:03:0,0000         0:03:0,0000         0:03:0,0000
EM (V)              pass                pass                pass                pass                pass                pass                pass                pass                pass                pass                pass                pass                pass
dQM                 500,000             900,000             1,600               2,800               5,000               8,900               15,800              28,100              50,000              88,900              158,100             281,150             500,000
unit dQM            nA.h                nA.h                µA.h                µA.h                µA.h                µA.h                µA.h                µA.h                µA.h                µA.h                µA.h                µA.h                µA.h
record              <Ewe>               <Ewe>               <Ewe>               <Ewe>               <Ewe>               <Ewe>               <Ewe>               <Ewe>               <Ewe>               <Ewe>               <Ewe>               <Ewe>               <Ewe>
dEs (mV)            0,00                0,00                0,00                0,00                0,00                0,00                0,00                0,00                0,00                0,00                0,00                0,00                0,00
dts (s)             1,0000              1,0000              1,0000              1,0000              1,0000              1,0000              1,0000              1,0000              1,0000              1,0000              1,0000              1,0000              1,0000
E range min (V)     -2,500              -2,500              -2,500              -2,500              -2,500              -2,500              -2,500              -2,500              -2,500              -2,500              -2,500              -2,500              -2,500
E range max (V)     2,500               2,500               2,500               2,500               2,500               2,500               2,500               2,500               2,500               2,500               2,500               2,500               2,500
I Range             10 mA               10 mA               10 mA               10 mA               10 mA               10 mA               10 mA               10 mA               10 mA               10 mA               10 mA               10 mA               10 mA
Bandwidth           5                   5                   5                   5                   5                   5                   5                   5                   5                   5                   5                   5                   5
goto Ns'            0                   0                   0                   0                   0                   0                   0                   0                   0                   0                   0                   0                   0
nc cycles           0                   0                   0                   0                   0                   0                   0                   0                   0                   0                   0                   0                   0

mode	ox/red	error	control changes	Ns changes	counter inc.	Ns	time/s	control/mA	<Ewe>/V	I/mA	dQ/C	(Q-Qo)/C	half cycle	Q charge/discharge/mA.h	I Range	Energy charge/W.h	Energy discharge/W.h	Capacitance charge/µF	Capacitance discharge/µF	Q discharge/mA.h	Q charge/mA.h	Capacity/mA.h	Efficiency/%	cycle number	P/W
1	1	0	0	0	0	0	7,159181878012168E+002	1,0000001E-002	8,0845438E-002	9,9302754E-003	9,1525662E-006	9,1525662E-006	0	2,542379509880751E-006	11	2,055397848959971E-010	0,000000000000000E+000	0,000000000000000E+000	0,000000000000000E+000	0,000000000000000E+000	2,542379509880751E-006	2,542379509880751E-006	0,0000000E+000	0,000000000000000E+000	8,0281745E-007
1	1	0	0	0	0	0	7,329181873717607E+002	1,0000001E-002	3,6455211E-001	9,6757626E-003	1,7190256E-004	1,7190256E-004	0	4,775071122114443E-005	11	1,168406643142485E-008	0,000000000000000E+000	6,059165383811174E+002	0,000000000000000E+000	0,000000000000000E+000	4,775071122114443E-005	4,775071122114443E-005	0,0000000E+000	0,000000000000000E+000	3,5273197E-006
1	1	0	0	0	0	0	7,499181869423046E+002	1,0000001E-002	4,7574991E-001	9,8030195E-003	3,3405784E-004	3,3405784E-004	0	9,279384458851483E-005	11	3,129646126083306E-008	0,000000000000000E+000	8,459206480630030E+002	0,000000000000000E+000	0,000000000000000E+000	9,279384458851483E-005	9,279384458851483E-005	0,0000000E+000	0,000000000000000E+000	4,6637856E-006
1	1	0	0	0	0	0	7,669181865128485E+002	1,0000001E-002	5,1714635E-001	8,7213442E-003	4,9534033E-004	4,9534033E-004	0	1,375945349637833E-004	11	5,372973962295725E-008	0,000000000000000E+000	1,135318129825833E+003	0,000000000000000E+000	0,000000000000000E+000	1,375945349637833E-004	1,375945349637833E-004	0,0000000E+000	0,000000000000000E+000	4,5102115E-006
1	1	0	0	0	0	0	7,839181860833924E+002	1,0000001E-002	5,3355086E-001	9,2303669E-003	6,5609720E-004	6,5609720E-004	0	1,822492211229271E-004	11	7,727390711041035E-008	0,000000000000000E+000	1,449280651506395E+003	0,000000000000000E+000	0,000000000000000E+000	1,822492211229271E-004	1,822492211229271E-004	0,0000000E+000	0,000000000000000E+000	4,9248702E-006
1	1	0	0	0	0	0	8,009181856539362E+002	1,0000001E-002	5,3834343E-001	9,6757626E-003	8,1639132E-004	8,1639132E-004	0	2,267753653642204E-004	11	1,011710657489844E-007	0,000000000000000E+000	1,784469754092300E+003	0,000000000000000E+000	0,000000000000000E+000	2,267753653642204E-004	2,267753653642204E-004	0,0000000E+000	0,000000000000000E+000	5,2088831E-006
1	1	0	0	0	0	0	8,179181852244801E+002	1,0000001E-002	5,3811514E-001	9,5485067E-003	9,7683806E-004	9,7683806E-004	0	2,713439041852123E-004	11	1,251555131691182E-007	0,000000000000000E+000	2,136240513037344E+003	0,000000000000000E+000	0,000000000000000E+000	2,713439041852123E-004	2,713439041852123E-004	0,0000000E+000	0,000000000000000E+000	5,1381962E-006
1	1	0	0	0	0	0	8,349181847950240E+002	1,0000001E-002	5,3266793E-001	9,7393906E-003	1,1369074E-003	1,1369074E-003	0	3,158076045413812E-004	11	1,489539405204820E-007	0,000000000000000E+000	2,516270001537533E+003	0,000000000000000E+000	0,000000000000000E+000	3,158076045413812E-004	3,158076045413812E-004	0,0000000E+000	0,000000000000000E+000	5,1878610E-006
1	1	0	0	0	0	0	8,519181843655679E+002	1,0000001E-002	5,2555084E-001	9,7393906E-003	1,2974124E-003	1,2974124E-003	0	3,603923444946607E-004	11	1,725503375841516E-007	0,000000000000000E+000	2,917465021230295E+003	0,000000000000000E+000	0,000000000000000E+000	3,603923444946607E-004	3,603923444946607E-004	0,0000000E+000	0,000000000000000E+000	5,1185448E-006
1	1	0	0	0	0	0	8,689181839361117E+002	1,0000001E-002	5,1573420E-001	9,2939958E-003	1,4575697E-003	1,4575697E-003	0	4,048804597308238E-004	11	1,957144919499352E-007	0,000000000000000E+000	3,351591996749003E+003	0,000000000000000E+000	0,000000000000000E+000	4,048804597308238E-004	4,048804597308238E-004	0,0000000E+000	0,000000000000000E+000	4,7932313E-006
1	1	0	0	0	0	0	8,859181835066556E+002	1,0000001E-002	5,0486428E-001	9,1667399E-003	1,6177152E-003	1,6177152E-003	0	4,493653412080473E-004	11	2,184110292475651E-007	0,000000000000000E+000	3,815196669724315E+003	0,000000000000000E+000	0,000000000000000E+000	4,493653412080473E-004	4,493653412080473E-004	0,0000000E+000	0,000000000000000E+000	4,6279597E-006
1	1	0	1	0	0	1	9,019705831011379E+002	1,8000001E-002	5,5329680E-001	1,6738459E-002	1,1676129E-004	1,8196380E-003	0	5,054549870288207E-004	11	2,478368486346515E-007	0,000000000000000E+000	3,851482101831363E+003	0,000000000000000E+000	0,000000000000000E+000	5,054549870288207E-004	5,054549870288207E-004	0,0000000E+000	0,000000000000000E+000	9,2613363E-006
1	1	0	1	0	0	1	9,189705826716818E+002	1,8000001E-002	5,5629849E-001	1,7120225E-002	4,0022109E-004	2,1030977E-003	0	5,841938157876333E-004	11	2,916242321526895E-007	0,000000000000000E+000	4,423355242971834E+003	0,000000000000000E+000	0,000000000000000E+000	5,841938157876333E-004	5,841938157876333E-004	0,0000000E+000	0,000000000000000E+000	9,5239557E-006
1	1	0	1	0	0	1	9,359705822422256E+002	1,8000001E-002	5,5173105E-001	1,6483948E-002	6,8313273E-004	2,3860093E-003	0	6,627803668379784E-004	11	3,351580048150894E-007	0,000000000000000E+000	5,067067876373732E+003	0,000000000000000E+000	0,000000000000000E+000	6,627803668379784E-004	6,627803668379784E-004	0,0000000E+000	0,000000000000000E+000	9,0947060E-006
1	1	0	1	0	0	1	9,529705818127695E+002	1,8000001E-002	5,4469234E-001	1,7056597E-002	9,6597010E-004	2,6688469E-003	0	7,413463511814674E-004	11	3,782230633880965E-007	0,000000000000000E+000	5,753723717031462E+003	0,000000000000000E+000	0,000000000000000E+000	7,413463511814674E-004	7,413463511814674E-004	0,0000000E+000	0,000000000000000E+000	9,2905975E-006
1	1	0	1	0	0	1	9,699705813833134E+002	1,8000001E-002	5,3590935E-001	1,7311109E-002	1,2491421E-003	2,9520188E-003	0	8,200052090817028E-004	11	4,207136566523629E-007	0,000000000000000E+000	6,487042132797395E+003	0,000000000000000E+000	0,000000000000000E+000	8,200052090817028E-004	8,200052090817028E-004	0,0000000E+000	0,000000000000000E+000	9,2771852E-006
1	1	0	1	0	0	1	9,869705809538573E+002	1,8000001E-002	5,2584791E-001	1,6547576E-002	1,5327205E-003	3,2355972E-003	0	8,987769898441103E-004	11	4,625221501455811E-007	0,000000000000000E+000	7,270964561886523E+003	0,000000000000000E+000	0,000000000000000E+000	8,987769898441103E-004	8,987769898441103E-004	0,0000000E+000	0,000000000000000E+000	8,7015078E-006
1	1	0	1	0	0	1	1,003970580524401E+003	1,8000001E-002	5,1512039E-001	1,6738459E-002	1,8160929E-003	3,5189695E-003	0	9,774915330732863E-004	11	5,034655522180439E-007	0,000000000000000E+000	8,103091339849871E+003	0,000000000000000E+000	0,000000000000000E+000	9,774915330732863E-004	9,774915330732863E-004	0,0000000E+000	0,000000000000000E+000	8,6223217E-006
1	1	0	1	0	0	1	1,020970580094945E+003	1,8000001E-002	5,0352043E-001	1,6611204E-002	2,1000565E-003	3,8029333E-003	0	1,056370351256596E-003	11	5,436122089658289E-007	0,000000000000000E+000	8,997299132480397E+003	0,000000000000000E+000	0,000000000000000E+000	1,056370351256596E-003	1,056370351256596E-003	0,0000000E+000	0,000000000000000E+000	8,3640807E-006
1	1	0	1	0	0	1	1,037970579665489E+003	1,8000001E-002	4,9161643E-001	1,6102180E-002	2,3841725E-003	4,0870490E-003	0	1,135291402331657E-003	11	5,828579682929109E-007	0,000000000000000E+000	9,949702443636583E+003	0,000000000000000E+000	0,000000000000000E+000	1,135291402331657E-003	1,135291402331657E-003	0,0000000E+000	0,000000000000000E+000	7,9160964E-006
1	1	0	1	0	0	1	1,054970579236033E+003	1,8000001E-002	4,7946188E-001	1,6802087E-002	2,6680541E-003	4,3709306E-003	0	1,214147390176852E-003	11	6,211196871260923E-007	0,000000000000000E+000	1,096525441805327E+004	0,000000000000000E+000	0,000000000000000E+000	1,214147390176852E-003	1,214147390176852E-003	0,0000000E+000	0,000000000000000E+000	8,0559603E-006
1	1	0	1	0	0	1	1,071970578806577E+003	1,8000001E-002	4,6779767E-001	1,7438365E-002	2,9524409E-003	4,6553174E-003	0	1,293143723160028E-003	11	6,584890347944178E-007	0,000000000000000E+000	1,203072923734681E+004	0,000000000000000E+000	0,000000000000000E+000	1,293143723160028E-003	1,293143723160028E-003	0,0000000E+000	0,000000000000000E+000	8,1576263E-006
1	1	0	0	0	0	2	1,087970778402378E+003	3,2000002E-002	5,3773886E-001	3,0609341E-002	4,0152876E-004	5,1071700E-003	0	1,418658325241672E-003	11	7,239082259940280E-007	0,000000000000000E+000	1,117803367587038E+004	0,000000000000000E+000	0,000000000000000E+000	1,418658325241672E-003	1,418658325241672E-003	0,0000000E+000	0,000000000000000E+000	1,6459833E-005
1	1	0	0	0	0	2	1,104970777972922E+003	3,2000002E-002	5,4800600E-001	3,0227574E-002	9,2653761E-004	5,6321789E-003	0	1,564494127200709E-003	11	8,032187867331490E-007	0,000000000000000E+000	1,205619529493107E+004	0,000000000000000E+000	0,000000000000000E+000	1,564494127200709E-003	1,564494127200709E-003	0,0000000E+000	0,000000000000000E+000	1,6564891E-005
1	1	0	0	0	0	2	1,121970777543465E+003	3,2000002E-002	5,5224061E-001	3,1181991E-002	1,4510244E-003	6,1566657E-003	0	1,710184927408894E-003	11	8,834493503146966E-007	0,000000000000000E+000	1,306051949476896E+004	0,000000000000000E+000	0,000000000000000E+000	1,710184927408894E-003	1,710184927408894E-003	0,0000000E+000	0,000000000000000E+000	1,7219962E-005
1	1	0	0	0	0	2	1,138970777114009E+003	3,2000002E-002	5,5330175E-001	3,0482084E-002	1,9756651E-003	6,6813063E-003	0	1,855918413235082E-003	11	9,640404202840729E-007	0,000000000000000E+000	1,414163849587362E+004	0,000000000000000E+000	0,000000000000000E+000	1,855918413235082E-003	1,855918413235082E-003	0,0000000E+000	0,000000000000000E+000	1,6865790E-005
1	1	0	0	0	0	2	1,155970776684553E+003	3,2000002E-002	5,5250162E-001	3,1245619E-002	2,5001848E-003	7,2058258E-003	0	2,001618267968297E-003	11	1,044613030918594E-006	0,000000000000000E+000	1,527770899659456E+004	0,000000000000000E+000	0,000000000000000E+000	2,001618267968297E-003	2,001618267968297E-003	0,0000000E+000	0,000000000000000E+000	1,7263255E-005
1	1	0	0	0	0	2	1,172970776255097E+003	3,2000002E-002	5,5065638E-001	3,0545713E-002	3,0248719E-003	7,7305129E-003	0	2,147364688830243E-003	11	1,125005567244664E-006	0,000000000000000E+000	1,645451891144254E+004	0,000000000000000E+000	0,000000000000000E+000	2,147364688830243E-003	2,147364688830243E-003	0,0000000E+000	0,000000000000000E+000	1,6820191E-005
1	1	0	0	0	0	2	1,189970775825641E+003	3,2000002E-002	5,4789150E-001	3,0800223E-002	3,5496578E-003	8,2552992E-003	0	2,293138661318355E-003	11	1,205074727359971E-006	0,000000000000000E+000	1,767555713521359E+004	0,000000000000000E+000	0,000000000000000E+000	2,293138661318355E-003	2,293138661318355E-003	0,0000000E+000	0,000000000000000E+000	1,6875181E-005
1	1	0	0	0	0	2	1,206970775396185E+003	3,2000002E-002	5,4480243E-001	3,0800223E-002	4,0740790E-003	8,7797204E-003	0	2,438811223126120E-003	11	1,284615839513810E-006	0,000000000000000E+000	1,892356564470552E+004	0,000000000000000E+000	0,000000000000000E+000	2,438811223126120E-003	2,438811223126120E-003	0,0000000E+000	0,000000000000000E+000	1,6780037E-005
1	1	0	0	0	0	2	1,223970774966729E+003	3,2000002E-002	5,4122204E-001	3,0927481E-002	4,5985105E-003	9,3041519E-003	0	2,584486630641752E-003	11	1,363713184229791E-006	0,000000000000000E+000	2,020987179300445E+004	0,000000000000000E+000	0,000000000000000E+000	2,584486630641752E-003	2,584486630641752E-003	0,0000000E+000	0,000000000000000E+000	1,6738635E-005
1	1	0	0	0	0	2	1,240970774537273E+003	3,2000002E-002	5,3777581E-001	3,0036690E-002	5,1229945E-003	9,8286355E-003	0	2,730176525397433E-003	11	1,442303764601503E-006	0,000000000000000E+000	2,151013842646761E+004	0,000000000000000E+000	0,000000000000000E+000	2,730176525397433E-003	2,730176525397433E-003	0,0000000E+000	0,000000000000000E+000	1,6153006E-005
1	1	0	1	0	0	3	1,256970974133073E+003	5,6000002E-002	5,9066725E-001	5,4851566E-002	1,1018727E-004	1,0370877E-002	0	2,880799066689279E-003	11	1,524457732314355E-006	0,000000000000000E+000	2,034215874148627E+004	0,000000000000000E+000	0,000000000000000E+000	2,880799066689279E-003	2,880799066689279E-003	0,0000000E+000	0,000000000000000E+000	3,2399024E-005
1	1	0	1	0	0	3	1,273970973703617E+003	5,6000002E-002	6,0389584E-001	5,5360597E-002	1,0473527E-003	1,1308041E-002	0	3,141122611446513E-003	11	1,680290874270784E-006	0,000000000000000E+000	2,161940954072382E+004	0,000000000000000E+000	0,000000000000000E+000	3,141122611446513E-003	3,141122611446513E-003	0,0000000E+000	0,000000000000000E+000	3,3432036E-005
1	1	0	1	0	0	3	1,290970973274161E+003	5,6000002E-002	6,0940814E-001	5,5106081E-002	1,9840349E-003	1,2244724E-002	0	3,401312149233288E-003	11	1,838278263002483E-006	0,000000000000000E+000	2,316607503249674E+004	0,000000000000000E+000	0,000000000000000E+000	3,401312149233288E-003	3,401312149233288E-003	0,0000000E+000	0,000000000000000E+000	3,3582095E-005
1	1	0	1	0	0	3	1,307970972844705E+003	5,6000002E-002	6,1202657E-001	5,5233337E-002	2,9207822E-003	1,3181471E-002	0	3,661519796070125E-003	11	1,997243884206354E-006	0,000000000000000E+000	2,481539697181505E+004	0,000000000000000E+000	0,000000000000000E+000	3,661519796070125E-003	3,661519796070125E-003	0,0000000E+000	0,000000000000000E+000	3,3804270E-005
1	1	0	1	0	0	3	1,324970972415249E+003	5,6000002E-002	6,1303663E-001	5,5042453E-002	3,8576664E-003	1,4118356E-002	0	3,921765471912093E-003	11	2,156697677788055E-006	0,000000000000000E+000	2,652872736215302E+004	0,000000000000000E+000	0,000000000000000E+000	3,921765471912093E-003	3,921765471912093E-003	0,0000000E+000	0,000000000000000E+000	3,3743039E-005
1	1	0	1	0	0	3	1,341970971985793E+003	5,6000002E-002	6,1384010E-001	5,5805989E-002	4,7945697E-003	1,5055259E-002	0	4,182016321768363E-003	11	2,316372536654122E-006	0,000000000000000E+000	2,824654562199520E+004	0,000000000000000E+000	0,000000000000000E+000	4,182016321768363E-003	4,182016321768363E-003	0,0000000E+000	0,000000000000000E+000	3,4255954E-005
1	1	0	1	0	0	3	1,358970971556337E+003	5,6000002E-002	6,1420476E-001	5,5296961E-002	5,7314560E-003	1,5992146E-002	0	4,442262773712476E-003	11	2,476181718669089E-006	0,000000000000000E+000	2,998381114369960E+004	0,000000000000000E+000	0,000000000000000E+000	4,442262773712476E-003	4,442262773712476E-003	0,0000000E+000	0,000000000000000E+000	3,3963657E-005
1	1	0	1	0	0	3	1,375970971126881E+003	5,6000002E-002	6,1447728E-001	5,4660685E-002	6,6685197E-003	1,6929209E-002	0	4,702558120091756E-003	11	2,636090994630658E-006	0,000000000000000E+000	3,172450984082511E+004	0,000000000000000E+000	0,000000000000000E+000	4,702558120091756E-003	4,702558120091756E-003	0,0000000E+000	0,000000000000000E+000	3,3587748E-005
1	1	0	1	0	0	3	1,392970970697424E+003	5,6000002E-002	6,1455131E-001	5,5487849E-002	7,6053557E-003	1,7866045E-002	0	4,962790343496535E-003	11	2,795991626086901E-006	0,000000000000000E+000	3,347545074049327E+004	0,000000000000000E+000	0,000000000000000E+000	4,962790343496535E-003	4,962790343496535E-003	0,0000000E+000	0,000000000000000E+000	3,4100129E-005
1	1	0	1	0	0	3	1,409970970267968E+003	5,6000002E-002	6,1456841E-001	5,4660685E-002	8,5437540E-003	1,8804444E-002	0	5,223456666701370E-003	11	2,956206929443223E-006	0,000000000000000E+000	3,523259090573045E+004	0,000000000000000E+000	0,000000000000000E+000	5,223456666701370E-003	5,223456666701370E-003	0,0000000E+000	0,000000000000000E+000	3,3592729E-005
1	1	0	1	0	0	3	1,426970969838512E+003	5,6000002E-002	6,1451292E-001	5,4915197E-002	9,4808256E-003	1,9741515E-002	0	5,483754082686371E-003	11	3,116181666564528E-006	0,000000000000000E+000	3,699216182468108E+004	0,000000000000000E+000	0,000000000000000E+000	5,483754082686371E-003	5,483754082686371E-003	0,0000000E+000	0,000000000000000E+000	3,3746099E-005
1	1	0	0	0	0	4	1,442971169434313E+003	1,0000000E-001	6,4674997E-001	9,8182172E-002	7,8990398E-004	2,0972550E-002	0	5,825708309809367E-003	11	3,333284708300114E-006	0,000000000000000E+000	3,706022443143009E+004	0,000000000000000E+000	0,000000000000000E+000	5,825708309809367E-003	5,825708309809367E-003	0,0000000E+000	0,000000000000000E+000	6,3499319E-005
1	1	0	0	0	0	4	1,459971169004857E+003	1,0000000E-001	6,4846069E-001	9,9454723E-002	2,4684465E-003	2,2651093E-002	0	6,291970300177733E-003	11	3,635326164851349E-006	0,000000000000000E+000	3,990571475660412E+004	0,000000000000000E+000	0,000000000000000E+000	6,291970300177733E-003	6,291970300177733E-003	0,0000000E+000	0,000000000000000E+000	6,4492480E-005
1	1	0	0	0	0	4	1,476971168575401E+003	1,0000000E-001	6,4953882E-001	9,8691188E-002	4,1468213E-003	2,4329469E-002	0	6,758185724417369E-003	11	3,937901340897017E-006	0,000000000000000E+000	4,278134515420248E+004	0,000000000000000E+000	0,000000000000000E+000	6,758185724417369E-003	6,758185724417369E-003	0,0000000E+000	0,000000000000000E+000	6,4103755E-005
1	1	0	0	0	0	4	1,493971168145945E+003	1,0000000E-001	6,5005845E-001	9,8500304E-002	5,8250162E-003	2,6007663E-002	0	7,224350960718261E-003	11	4,240710476024639E-006	0,000000000000000E+000	4,569056216825256E+004	0,000000000000000E+000	0,000000000000000E+000	7,224350960718261E-003	7,224350960718261E-003	0,0000000E+000	0,000000000000000E+000	6,4030952E-005
1	1	0	0	0	0	4	1,510971167716489E+003	1,0000000E-001	6,4991581E-001	9,8818444E-002	7,5032078E-003	2,7685855E-002	0	7,690515162216293E-003	11	4,543706706675902E-006	0,000000000000000E+000	4,865101864724250E+004	0,000000000000000E+000	0,000000000000000E+000	7,690515162216293E-003	7,690515162216293E-003	0,0000000E+000	0,000000000000000E+000	6,4223670E-005
1	1	0	0	0	0	4	1,527971167287033E+003	1,0000000E-001	6,4999169E-001	9,8627560E-002	9,1818897E-003	2,9364537E-002	0	8,156815957691934E-003	11	4,846853335589962E-006	0,000000000000000E+000	5,159400792150546E+004	0,000000000000000E+000	0,000000000000000E+000	8,156815957691934E-003	8,156815957691934E-003	0,0000000E+000	0,000000000000000E+000	6,4107095E-005
1	1	0	0	0	0	4	1,544971166857576E+003	1,0000000E-001	6,5056926E-001	9,9072956E-002	1,0860967E-002	3,1043613E-002	0	8,623225924869379E-003	11	5,150181387810212E-006	0,000000000000000E+000	5,448887847626900E+004	0,000000000000000E+000	0,000000000000000E+000	8,623225924869379E-003	8,623225924869379E-003	0,0000000E+000	0,000000000000000E+000	6,4453816E-005
1	1	0	0	0	0	4	1,561971166428120E+003	1,0000000E-001	6,5029019E-001	9,8373055E-002	1,2540314E-002	3,2722961E-002	0	9,089711432655653E-003	11	5,453551167229657E-006	0,000000000000000E+000	5,746467886047895E+004	0,000000000000000E+000	0,000000000000000E+000	9,089711432655653E-003	9,089711432655653E-003	0,0000000E+000	0,000000000000000E+000	6,3971034E-005
1	1	0	0	0	0	4	1,578971165998664E+003	1,0000000E-001	6,5104491E-001	9,8500304E-002	1,4219468E-002	3,4402113E-002	0	9,556142613291740E-003	11	5,756983499492439E-006	0,000000000000000E+000	6,033346931330203E+004	0,000000000000000E+000	0,000000000000000E+000	9,556142613291740E-003	9,556142613291740E-003	0,0000000E+000	0,000000000000000E+000	6,4128122E-005
1	1	0	0	0	0	4	1,595971165569208E+003	1,0000000E-001	6,5060306E-001	9,8436683E-002	1,5898610E-002	3,6081254E-002	0	1,002257068951925E-002	11	6,060451981882991E-006	0,000000000000000E+000	6,332737277442798E+004	0,000000000000000E+000	0,000000000000000E+000	1,002257068951925E-002	1,002257068951925E-002	0,0000000E+000	0,000000000000000E+000	6,4043204E-005
1	1	0	0	0	0	4	1,612971165139752E+003	1,0000000E-001	6,5067005E-001	9,8882072E-002	1,7577566E-002	3,7760213E-002	0	1,048894806040658E-002	11	6,363878940927978E-006	0,000000000000000E+000	6,626637500913958E+004	0,000000000000000E+000	0,000000000000000E+000	1,048894806040658E-002	1,048894806040658E-002	0,0000000E+000	0,000000000000000E+000	6,4339605E-005
1	1	0	1	0	0	5	1,628971364735553E+003	1,7800000E-001	6,8037236E-001	1,7733526E-001	2,4809551E-003	4,0438700E-002	0	1,123297235204114E-002	11	6,867856372777419E-006	0,000000000000000E+000	6,745101454079195E+004	0,000000000000000E+000	0,000000000000000E+000	1,123297235204114E-002	1,123297235204114E-002	0,0000000E+000	0,000000000000000E+000	1,2065401E-004
1	1	0	1	0	0	5	1,645971364306097E+003	1,7800000E-001	6,8046951E-001	1,7739889E-001	5,4937666E-003	4,3451510E-002	0	1,206986399160491E-002	11	7,436933543409297E-006	0,000000000000000E+000	7,246458333146952E+004	0,000000000000000E+000	0,000000000000000E+000	1,206986399160491E-002	1,206986399160491E-002	0,0000000E+000	0,000000000000000E+000	1,2071454E-004
1	1	0	1	0	0	5	1,662971363876641E+003	1,7800000E-001	6,8117839E-001	1,7727165E-001	8,5064238E-003	4,6464168E-002	0	1,290671320425140E-002	11	8,006413471517742E-006	0,000000000000000E+000	7,739732688398116E+004	0,000000000000000E+000	0,000000000000000E+000	1,290671320425140E-002	1,290671320425140E-002	0,0000000E+000	0,000000000000000E+000	1,2075362E-004
1	1	0	1	0	0	5	1,679971363447185E+003	1,7800000E-001	6,8134570E-001	1,7758977E-001	1,1518848E-002	4,9476594E-002	0	1,374349825912052E-002	11	8,576413662534188E-006	0,000000000000000E+000	8,239229009075485E+004	0,000000000000000E+000	0,000000000000000E+000	1,374349825912052E-002	1,374349825912052E-002	0,0000000E+000	0,000000000000000E+000	1,2100003E-004
1	1	0	1	0	0	5	1,696971363017728E+003	1,7800000E-001	6,8065065E-001	1,7688988E-001	1,4531637E-002	5,2489381E-002	0	1,458038368986713E-002	11	9,146353983158778E-006	0,000000000000000E+000	8,751070871867827E+004	0,000000000000000E+000	0,000000000000000E+000	1,458038368986713E-002	1,458038368986713E-002	0,0000000E+000	0,000000000000000E+000	1,2040021E-004
1	1	0	1	0	0	5	1,713971362588272E+003	1,7800000E-001	6,8092376E-001	1,7727165E-001	1,7544303E-002	5,5502050E-002	0	1,541723600692219E-002	11	9,716401931523672E-006	0,000000000000000E+000	9,249133908588743E+004	0,000000000000000E+000	0,000000000000000E+000	1,541723600692219E-002	1,541723600692219E-002	0,0000000E+000	0,000000000000000E+000	1,2070848E-004
1	1	0	1	0	0	5	1,730971362158816E+003	1,7800000E-001	6,8107098E-001	1,7714439E-001	2,0556642E-002	5,8514386E-002	0	1,625399622652266E-002	11	1,028629112509271E-005	0,000000000000000E+000	9,748732735299719E+004	0,000000000000000E+000	0,000000000000000E+000	1,625399622652266E-002	1,625399622652266E-002	0,0000000E+000	0,000000000000000E+000	1,2064791E-004
1	1	0	1	0	0	5	1,747971361729360E+003	1,7800000E-001	6,8069714E-001	1,7701714E-001	2,3568764E-002	6,1526507E-002	0	1,709069642755720E-002	11	1,085598289173324E-005	0,000000000000000E+000	1,025695256344446E+005	0,000000000000000E+000	0,000000000000000E+000	1,709069642755720E-002	1,709069642755720E-002	0,0000000E+000	0,000000000000000E+000	1,2049506E-004
1	1	0	1	0	0	5	1,764971361299904E+003	1,7800000E-001	6,8100482E-001	1,7676263E-001	2,6580688E-002	6,4538434E-002	0	1,792734281884299E-002	11	1,142572298647536E-005	0,000000000000000E+000	1,075354871246451E+005	0,000000000000000E+000	0,000000000000000E+000	1,792734281884299E-002	1,792734281884299E-002	0,0000000E+000	0,000000000000000E+000	1,2037620E-004
1	1	0	1	0	0	5	1,781971360870448E+003	1,7800000E-001	6,8036062E-001	1,7695349E-001	2,9592557E-002	6,7550302E-002	0	1,876397265328301E-002	11	1,199500808662738E-005	0,000000000000000E+000	1,126748772841571E+005	0,000000000000000E+000	0,000000000000000E+000	1,876397265328301E-002	1,876397265328301E-002	0,0000000E+000	0,000000000000000E+000	1,2039219E-004
1	1	0	0	0	0	6	1,797971560466249E+003	3,1600001E-001	7,0909214E-001	3,1572595E-001	9,4466220E-004	7,0798166E-002	0	1,966615724894736E-002	11	1,261648741582448E-005	0,000000000000000E+000	1,126916596989193E+005	0,000000000000000E+000	0,000000000000000E+000	1,966615724894736E-002	1,966615724894736E-002	0,0000000E+000	0,000000000000000E+000	2,2387879E-004
1	1	0	0	0	0	6	1,814971560036793E+003	3,1600001E-001	7,0993018E-001	3,1470788E-001	6,2957015E-003	7,6149210E-002	0	2,115255842606227E-002	11	1,367036189583288E-005	0,000000000000000E+000	1,210476146621313E+005	0,000000000000000E+000	0,000000000000000E+000	2,115255842606227E-002	2,115255842606227E-002	0,0000000E+000	0,000000000000000E+000	2,2342062E-004
1	1	0	0	0	0	6	1,831971559607337E+003	3,1600001E-001	7,0962369E-001	3,1400800E-001	1,1646401E-002	8,1499904E-002	0	2,263886233170827E-002	11	1,472437708809449E-005	0,000000000000000E+000	1,296162846879876E+005	0,000000000000000E+000	0,000000000000000E+000	2,263886233170827E-002	2,263886233170827E-002	0,0000000E+000	0,000000000000000E+000	2,2282751E-004
1	1	0	0	0	0	6	1,848971559177880E+003	3,1600001E-001	7,0826966E-001	3,1496242E-001	1,6996870E-002	8,6850375E-002	0	2,412510414918264E-002	11	1,577729031769375E-005	0,000000000000000E+000	1,384236843025253E+005	0,000000000000000E+000	0,000000000000000E+000	2,412510414918264E-002	2,412510414918264E-002	0,0000000E+000	0,000000000000000E+000	2,2307833E-004
1	1	0	0	0	0	6	1,865971558748424E+003	3,1600001E-001	7,0867276E-001	3,1470788E-001	2,2347141E-002	9,2200644E-002	0	2,561129008730252E-002	11	1,683032194112194E-005	0,000000000000000E+000	1,468566873583941E+005	0,000000000000000E+000	0,000000000000000E+000	2,561129008730252E-002	2,561129008730252E-002	0,0000000E+000	0,000000000000000E+000	2,2302489E-004
1	1	0	0	0	0	6	1,882971558318968E+003	3,1600001E-001	7,0777327E-001	3,1451699E-001	2,7697360E-002	9,7550862E-002	0	2,709746153818236E-002	11	1,788266962092383E-005	0,000000000000000E+000	1,556014159015731E+005	0,000000000000000E+000	0,000000000000000E+000	2,709746153818236E-002	2,709746153818236E-002	0,0000000E+000	0,000000000000000E+000	2,2260672E-004
1	1	0	0	0	0	6	1,899971557889512E+003	3,1600001E-001	7,0739877E-001	3,1483516E-001	3,3047732E-002	1,0290124E-001	0	2,858367645078235E-002	11	1,893435409036354E-005	0,000000000000000E+000	1,642337945062040E+005	0,000000000000000E+000	0,000000000000000E+000	2,858367645078235E-002	2,858367645078235E-002	0,0000000E+000	0,000000000000000E+000	2,2271401E-004
1	1	0	0	0	0	6	1,916971557460056E+003	3,1600001E-001	7,0767331E-001	3,1438977E-001	3,8398087E-002	1,0825159E-001	0	3,006988722417090E-002	11	1,998609279997523E-005	0,000000000000000E+000	1,726974736761830E+005	0,000000000000000E+000	0,000000000000000E+000	3,006988722417090E-002	3,006988722417090E-002	0,0000000E+000	0,000000000000000E+000	2,2248525E-004
1	1	0	0	0	0	6	1,933971557030600E+003	3,1600001E-001	7,0915467E-001	3,1502607E-001	4,3748345E-002	1,1360185E-001	0	3,155606902307934E-002	11	2,103814340972807E-005	0,000000000000000E+000	1,808056279692789E+005	0,000000000000000E+000	0,000000000000000E+000	3,155606902307934E-002	3,155606902307934E-002	0,0000000E+000	0,000000000000000E+000	2,2340221E-004
1	1	0	0	0	0	6	1,950971556601144E+003	3,1600001E-001	7,0712131E-001	3,1483516E-001	4,9099088E-002	1,1895259E-001	0	3,304238741596540E-002	11	2,209012995990673E-005	0,000000000000000E+000	1,899364086376860E+005	0,000000000000000E+000	0,000000000000000E+000	3,304238741596540E-002	3,304238741596540E-002	0,0000000E+000	0,000000000000000E+000	2,2262665E-004
1	1	0	0	0	0	6	1,967971556171688E+003	3,1600001E-001	7,0763767E-001	3,1489879E-001	5,4449651E-002	1,2430316E-001	0	3,452865613831414E-002	11	2,314231156808686E-005	0,000000000000000E+000	1,983163666887318E+005	0,000000000000000E+000	0,000000000000000E+000	3,452865613831414E-002	3,452865613831414E-002	0,0000000E+000	0,000000000000000E+000	2,2283425E-004
1	1	0	1	0	0	7	1,983971755767489E+003	5,6200004E-001	7,3875737E-001	5,6050241E-001	5,0475006E-003	1,3155396E-001	0	3,654276745186912E-002	11	2,461036084080032E-005	0,000000000000000E+000	1,999567899092683E+005	0,000000000000000E+000	0,000000000000000E+000	3,654276745186912E-002	3,654276745186912E-002	0,0000000E+000	0,000000000000000E+000	4,1407530E-004
1	1	0	1	0	0	7	2,000971755338032E+003	5,6200004E-001	7,3646867E-001	5,6088424E-001	1,4581456E-002	1,4108790E-001	0	3,919108460346857E-002	11	2,656377777063145E-005	0,000000000000000E+000	2,151966133471303E+005	0,000000000000000E+000	0,000000000000000E+000	3,919108460346857E-002	3,919108460346857E-002	0,0000000E+000	0,000000000000000E+000	4,1307366E-004
1	1	0	1	0	0	7	2,017971754908576E+003	5,6200004E-001	7,3707712E-001	5,6037521E-001	2,4115896E-002	1,5062235E-001	0	4,183954248825709E-002	11	2,851621470190076E-005	0,000000000000000E+000	2,295261759563645E+005	0,000000000000000E+000	0,000000000000000E+000	4,183954248825709E-002	4,183954248825709E-002	0,0000000E+000	0,000000000000000E+000	4,1303976E-004
1	1	0	1	0	0	7	2,034971754479120E+003	5,6200004E-001	7,3613125E-001	5,6056613E-001	3,3649970E-002	1,6015643E-001	0	4,448789689275953E-002	11	3,046655152051197E-005	0,000000000000000E+000	2,444069750857569E+005	0,000000000000000E+000	0,000000000000000E+000	4,448789689275953E-002	4,448789689275953E-002	0,0000000E+000	0,000000000000000E+000	4,1265023E-004
1	1	0	1	0	0	7	2,051971754049664E+003	5,6200004E-001	7,3679394E-001	5,6075698E-001	4,3184388E-002	1,6969085E-001	0	4,713634649912516E-002	11	3,241792221859238E-005	0,000000000000000E+000	2,586953736441378E+005	0,000000000000000E+000	0,000000000000000E+000	4,713634649912516E-002	4,713634649912516E-002	0,0000000E+000	0,000000000000000E+000	4,1316234E-004
1	1	0	1	0	0	7	2,068971753620208E+003	5,6200004E-001	7,3625463E-001	5,6005704E-001	5,2718963E-002	1,7922541E-001	0	4,978483749760522E-002	11	3,436843690732569E-005	0,000000000000000E+000	2,734557439462667E+005	0,000000000000000E+000	0,000000000000000E+000	4,978483749760522E-002	4,978483749760522E-002	0,0000000E+000	0,000000000000000E+000	4,1234458E-004
1	1	0	1	0	0	7	2,085971753190752E+003	5,6200004E-001	7,3477322E-001	5,6031156E-001	6,2253155E-002	1,8875961E-001	0	5,243322501579920E-002	11	3,631676262614970E-005	0,000000000000000E+000	2,886551224454676E+005	0,000000000000000E+000	0,000000000000000E+000	5,243322501579920E-002	5,243322501579920E-002	0,0000000E+000	0,000000000000000E+000	4,1170191E-004
1	1	0	1	0	0	7	2,102971752761296E+003	5,6200004E-001	7,3608899E-001	5,6088424E-001	7,1787819E-002	1,9829428E-001	0	5,508174498875936E-002	11	3,826545112356361E-005	0,000000000000000E+000	3,026268235993590E+005	0,000000000000000E+000	0,000000000000000E+000	5,508174498875936E-002	5,508174498875936E-002	0,0000000E+000	0,000000000000000E+000	4,1286071E-004
1	1	0	1	0	0	7	2,119971752331840E+003	5,6200004E-001	7,3551512E-001	5,6075698E-001	8,1322066E-002	2,0782852E-001	0	5,773014492458767E-002	11	4,021491463811194E-005	0,000000000000000E+000	3,174555368558483E+005	0,000000000000000E+000	0,000000000000000E+000	5,773014492458767E-002	5,773014492458767E-002	0,0000000E+000	0,000000000000000E+000	4,1244522E-004
1	1	0	1	0	0	7	2,136971751902383E+003	5,6200004E-001	7,3587579E-001	5,6088424E-001	9,0855978E-002	2,1736243E-001	0	6,037845379776425E-002	11	4,216302425423283E-005	0,000000000000000E+000	3,318356578673664E+005	0,000000000000000E+000	0,000000000000000E+000	6,037845379776425E-002	6,037845379776425E-002	0,0000000E+000	0,000000000000000E+000	4,1274112E-004
1	1	0	1	0	0	7	2,153971751472927E+003	5,6200004E-001	7,3675275E-001	5,6088424E-001	1,0039019E-001	2,2689664E-001	0	6,302684545516968E-002	11	4,411317254297258E-005	0,000000000000000E+000	3,459278959977369E+005	0,000000000000000E+000	0,000000000000000E+000	6,302684545516968E-002	6,302684545516968E-002	0,0000000E+000	0,000000000000000E+000	4,1323301E-004
1	1	0	0	0	0	8	2,169971951068728E+003	1,0000000E+000	7,7136379E-001	9,9877137E-001	1,4987688E-002	2,4244526E-001	0	6,734590563509199E-002	11	4,743508128792799E-005	0,000000000000000E+000	3,511061654335753E+005	0,000000000000000E+000	0,000000000000000E+000	6,734590563509199E-002	6,734590563509199E-002	0,0000000E+000	0,000000000000000E+000	7,7041605E-004
1	1	0	0	0	0	8	2,186971950639272E+003	1,0000000E+000	7,6897085E-001	9,9877137E-001	3,1973615E-002	2,5943118E-001	0	7,206421759393480E-002	11	5,106781993497086E-005	0,000000000000000E+000	3,770114741413667E+005	0,000000000000000E+000	0,000000000000000E+000	7,206421759393480E-002	7,206421759393480E-002	0,0000000E+000	0,000000000000000E+000	7,6802605E-004
1	1	0	0	0	0	8	2,203971950209816E+003	1,0000000E+000	7,7009422E-001	9,9940771E-001	4,8959244E-002	2,7641681E-001	0	7,678244676854876E-002	11	5,469913537058674E-005	0,000000000000000E+000	4,010406811813129E+005	0,000000000000000E+000	0,000000000000000E+000	7,678244676854876E-002	7,678244676854876E-002	0,0000000E+000	0,000000000000000E+000	7,6963811E-004
1	1	0	0	0	0	8	2,220971949780360E+003	1,0000000E+000	7,7050948E-001	9,9928045E-001	6,5945446E-002	2,9340303E-001	0	8,150084151162042E-002	11	5,833166177668800E-005	0,000000000000000E+000	4,254289065871274E+005	0,000000000000000E+000	0,000000000000000E+000	8,150084151162042E-002	8,150084151162042E-002	0,0000000E+000	0,000000000000000E+000	7,6995505E-004
1	1	0	0	0	0	8	2,237971949350904E+003	1,0000000E+000	7,7085543E-001	9,9896222E-001	8,2931310E-002	3,1038889E-001	0	8,621913691361745E-002	11	6,196551688530022E-005	0,000000000000000E+000	4,498324485915238E+005	0,000000000000000E+000	0,000000000000000E+000	8,621913691361745E-002	8,621913691361745E-002	0,0000000E+000	0,000000000000000E+000	7,7005546E-004
1	1	0	0	0	0	8	2,254971948921448E+003	1,0000000E+000	7,6984924E-001	9,9908960E-001	9,9916764E-002	3,2737434E-001	0	9,093731641769409E-002	11	6,559652596894862E-005	0,000000000000000E+000	4,751415407810293E+005	0,000000000000000E+000	0,000000000000000E+000	9,093731641769409E-002	9,093731641769409E-002	0,0000000E+000	0,000000000000000E+000	7,6914835E-004
1	1	0	0	0	0	8	2,271971948491992E+003	1,0000000E+000	7,7050257E-001	9,9934399E-001	1,1690219E-001	3,4435976E-001	0	9,565548764334784E-002	11	6,923190039385190E-005	0,000000000000000E+000	4,993202124674183E+005	0,000000000000000E+000	0,000000000000000E+000	9,565548764334784E-002	9,565548764334784E-002	0,0000000E+000	0,000000000000000E+000	7,6999713E-004
1	1	0	0	0	0	8	2,288971948062535E+003	1,0000000E+000	7,7123171E-001	9,9959856E-001	1,3388751E-001	3,6134508E-001	0	1,003736340337330E-001	11	7,287176212835463E-005	0,000000000000000E+000	5,233955033169988E+005	0,000000000000000E+000	0,000000000000000E+000	1,003736340337330E-001	1,003736340337330E-001	0,0000000E+000	0,000000000000000E+000	7,7092211E-004
1	1	0	0	0	0	8	2,305971947633079E+003	1,0000000E+000	7,7176881E-001	9,9889868E-001	1,5087305E-001	3,7833065E-001	0	1,050918466515011E-001	11	7,651520786722966E-005	0,000000000000000E+000	5,475724977658719E+005	0,000000000000000E+000	0,000000000000000E+000	1,050918466515011E-001	1,050918466515011E-001	0,0000000E+000	0,000000000000000E+000	7,7091885E-004
1	1	0	0	0	0	8	2,322971947203623E+003	1,0000000E+000	7,7270252E-001	9,9959856E-001	1,6785841E-001	3,9531597E-001	0	1,098099930418862E-001	11	8,016059952753166E-005	0,000000000000000E+000	5,713838525579637E+005	0,000000000000000E+000	0,000000000000000E+000	1,098099930418862E-001	1,098099930418862E-001	0,0000000E+000	0,000000000000000E+000	7,7239232E-004
1	1	0	1	0	0	9	2,338972146799424E+003	1,7780000E+000	8,1204003E-001	1,7765589E+000	7,1067032E-003	4,1441268E-001	0	1,151146325800154E-001	11	8,433511203188961E-005	0,000000000000000E+000	5,667611174648927E+005	0,000000000000000E+000	0,000000000000000E+000	1,151146325800154E-001	1,151146325800154E-001	0,0000000E+000	0,000000000000000E+000	1,4426369E-003
1	1	0	1	0	0	9	2,355972146369968E+003	1,7780000E+000	8,1068468E-001	1,7763680E+000	3,7310138E-002	4,4461614E-001	0	1,235044830375248E-001	11	9,114384497786301E-005	0,000000000000000E+000	6,091973398060267E+005	0,000000000000000E+000	0,000000000000000E+000	1,235044830375248E-001	1,235044830375248E-001	0,0000000E+000	0,000000000000000E+000	1,4400743E-003
1	1	0	1	0	0	9	2,372972145940512E+003	1,7780000E+000	8,1528831E-001	1,7765589E+000	6,7513883E-002	4,7481987E-001	0	1,318944080008401E-001	11	9,796354807805801E-005	0,000000000000000E+000	6,465034592453911E+005	0,000000000000000E+000	0,000000000000000E+000	1,318944080008401E-001	1,318944080008401E-001	0,0000000E+000	0,000000000000000E+000	1,4484077E-003
1	1	0	1	0	0	9	2,389972145511056E+003	1,7780000E+000	8,1451970E-001	1,7767498E+000	9,7717121E-002	5,0502312E-001	0	1,402842005093893E-001	11	1,047880511064659E-004	0,000000000000000E+000	6,883478544013118E+005	0,000000000000000E+000	0,000000000000000E+000	1,402842005093893E-001	1,402842005093893E-001	0,0000000E+000	0,000000000000000E+000	1,4471977E-003
1	1	0	1	0	0	9	2,406972145081600E+003	1,7780000E+000	8,1382698E-001	1,7770679E+000	1,2791947E-001	5,3522545E-001	0	1,486737363868290E-001	11	1,116256821576864E-004	0,000000000000000E+000	7,302031569300478E+005	0,000000000000000E+000	0,000000000000000E+000	1,486737363868290E-001	1,486737363868290E-001	0,0000000E+000	0,000000000000000E+000	1,4462258E-003
1	1	0	1	0	0	9	2,423972144652143E+003	1,7780000E+000	8,1570655E-001	1,7760499E+000	1,5812252E-001	5,6542850E-001	0	1,570634709464179E-001	11	1,184610718904397E-004	0,000000000000000E+000	7,694358404675056E+005	0,000000000000000E+000	0,000000000000000E+000	1,570634709464179E-001	1,570634709464179E-001	0,0000000E+000	0,000000000000000E+000	1,4487355E-003
1	1	0	1	0	0	9	2,440972144222687E+003	1,7780000E+000	8,1503767E-001	1,7764951E+000	1,8832524E-001	5,9563124E-001	0	1,654531227217780E-001	11	1,253036803359189E-004	0,000000000000000E+000	8,112742133232319E+005	0,000000000000000E+000	0,000000000000000E+000	1,654531227217780E-001	1,654531227217780E-001	0,0000000E+000	0,000000000000000E+000	1,4479104E-003
1	1	0	1	0	0	9	2,457972143793231E+003	1,7780000E+000	8,1743538E-001	1,7762407E+000	2,1852751E-001	6,2583351E-001	0	1,738426420423720E-001	11	1,321567074693647E-004	0,000000000000000E+000	8,496362133169725E+005	0,000000000000000E+000	0,000000000000000E+000	1,738426420423720E-001	1,738426420423720E-001	0,0000000E+000	0,000000000000000E+000	1,4519620E-003
1	1	0	1	0	0	9	2,474972143363775E+003	1,7780000E+000	8,1836259E-001	1,7766224E+000	2,4872974E-001	6,5603572E-001	0	1,822321448061201E-001	11	1,390259908707286E-004	0,000000000000000E+000	8,895192421536859E+005	0,000000000000000E+000	0,000000000000000E+000	1,822321448061201E-001	1,822321448061201E-001	0,0000000E+000	0,000000000000000E+000	1,4539213E-003
1	1	0	1	0	0	9	2,491972142934319E+003	1,7780000E+000	8,1803250E-001	1,7765589E+000	2,7893212E-001	6,8623811E-001	0	1,906216972404056E-001	11	1,459016505173082E-004	0,000000000000000E+000	9,308873170300617E+005	0,000000000000000E+000	0,000000000000000E+000	1,906216972404056E-001	1,906216972404056E-001	0,0000000E+000	0,000000000000000E+000	1,4532829E-003
1	1	0	1	0	0	9	2,508972142504863E+003	1,7780000E+000	8,2060510E-001	1,7764951E+000	3,0913416E-001	7,1644014E-001	0	1,990111503336165E-001	11	1,527852089836046E-004	0,000000000000000E+000	9,684768676575854E+005	0,000000000000000E+000	0,000000000000000E+000	1,990111503336165E-001	1,990111503336165E-001	0,0000000E+000	0,000000000000000E+000	1,4578010E-003
1	1	0	0	0	0	10	2,524972342100664E+003	3,1619999E+000	8,6666888E-001	3,1614201E+000	3,1605802E-002	7,5870615E-001	0	2,107517090108660E-001	11	1,628172272920165E-004	0,000000000000000E+000	9,654918525811348E+005	0,000000000000000E+000	0,000000000000000E+000	2,107517090108660E-001	2,107517090108660E-001	0,0000000E+000	0,000000000000000E+000	2,7399044E-003
1	1	0	0	0	0	10	2,541972341671208E+003	3,1619999E+000	8,6801028E-001	3,1606567E+000	8,5336059E-002	8,1243640E-001	0	2,256767782900068E-001	11	1,757756636237180E-004	0,000000000000000E+000	1,032104500571123E+006	0,000000000000000E+000	0,000000000000000E+000	2,256767782900068E-001	2,256767782900068E-001	0,0000000E+000	0,000000000000000E+000	2,7434826E-003
1	1	0	0	0	0	10	2,558972341241752E+003	3,1619999E+000	8,7074947E-001	3,1609747E+000	1,3906623E-001	8,6616659E-001	0	2,406018310123020E-001	11	1,887608962935123E-004	0,000000000000000E+000	1,096546577896774E+006	0,000000000000000E+000	0,000000000000000E+000	2,406018310123020E-001	2,406018310123020E-001	0,0000000E+000	0,000000000000000E+000	2,7524170E-003
1	1	0	0	0	0	10	2,575972340812295E+003	3,1619999E+000	8,7330192E-001	3,1610382E+000	1,9279654E-001	9,1989690E-001	0	2,555269168482887E-001	11	2,017927012532431E-004	0,000000000000000E+000	1,160816892454683E+006	0,000000000000000E+000	0,000000000000000E+000	2,555269168482887E-001	2,555269168482887E-001	0,0000000E+000	0,000000000000000E+000	2,7605407E-003
1	1	0	0	0	0	10	2,592972340382839E+003	3,1619999E+000	8,7690681E-001	3,1617382E+000	2,4652646E-001	9,7362679E-001	0	2,704518867863549E-001	11	2,148487244211172E-004	0,000000000000000E+000	1,223054900778649E+006	0,000000000000000E+000	0,000000000000000E+000	2,704518867863549E-001	2,704518867863549E-001	0,0000000E+000	0,000000000000000E+000	2,7725496E-003
1	1	0	0	0	0	10	2,609972339953383E+003	3,1619999E+000	8,7649167E-001	3,1605291E+000	3,0025604E-001	1,0273564E+000	0	2,853767739401923E-001	11	2,279261445585098E-004	0,000000000000000E+000	1,291222557593311E+006	0,000000000000000E+000	0,000000000000000E+000	2,853767739401923E-001	2,853767739401923E-001	0,0000000E+000	0,000000000000000E+000	2,7701776E-003
1	1	0	0	0	0	10	2,626972339523927E+003	3,1619999E+000	8,7704486E-001	3,1604657E+000	3,5398594E-001	1,0810863E+000	0	3,003017438782586E-001	11	2,410393427528846E-004	0,000000000000000E+000	1,357808386129371E+006	0,000000000000000E+000	0,000000000000000E+000	3,003017438782586E-001	3,003017438782586E-001	0,0000000E+000	0,000000000000000E+000	2,7718702E-003
1	1	0	0	0	0	10	2,643972339094471E+003	3,1619999E+000	8,8017946E-001	3,1605291E+000	4,0771553E-001	1,1348159E+000	0	3,152266475889418E-001	11	2,541697954945084E-004	0,000000000000000E+000	1,419701728483438E+006	0,000000000000000E+000	0,000000000000000E+000	3,152266475889418E-001	3,152266475889418E-001	0,0000000E+000	0,000000000000000E+000	2,7818328E-003
1	1	0	0	0	0	10	2,660972338665015E+003	3,1619999E+000	8,8242346E-001	3,1602111E+000	4,6144545E-001	1,1885458E+000	0	3,301516175270081E-001	11	2,673483682426596E-004	0,000000000000000E+000	1,482757456584679E+006	0,000000000000000E+000	0,000000000000000E+000	3,301516175270081E-001	3,301516175270081E-001	0,0000000E+000	0,000000000000000E+000	2,7886445E-003
1	1	0	0	0	0	10	2,677972338235559E+003	3,1619999E+000	8,8674378E-001	3,1604657E+000	5,1517457E-001	1,2422749E+000	0	3,450763556692336E-001	11	2,805557609550669E-004	0,000000000000000E+000	1,541478341666586E+006	0,000000000000000E+000	0,000000000000000E+000	3,450763556692336E-001	3,450763556692336E-001	0,0000000E+000	0,000000000000000E+000	2,8025233E-003
1	1	0	0	0	0	10	2,694972337806103E+003	3,1619999E+000	8,8576120E-001	3,1607838E+000	5,6890357E-001	1,2960039E+000	0	3,600010938114590E-001	11	2,937931998696128E-004	0,000000000000000E+000	1,610111219834117E+006	0,000000000000000E+000	0,000000000000000E+000	3,600010938114590E-001	3,600010938114590E-001	0,0000000E+000	0,000000000000000E+000	2,7996995E-003
1	1	0	1	0	0	11	2,710972537401904E+003	5,6230001E+000	9,4280767E-001	5,6212111E+000	8,9933820E-002	1,3859383E+000	0	3,849828574392531E-001	11	3,173213687655915E-004	0,000000000000000E+000	1,607887436609379E+006	0,000000000000000E+000	0,000000000000000E+000	3,849828574392531E-001	3,849828574392531E-001	0,0000000E+000	0,000000000000000E+000	5,2997209E-003
1	1	0	1	0	0	11	2,727972536972447E+003	5,6230001E+000	9,4328010E-001	5,6208291E+000	1,8548951E-001	1,4814941E+000	0	4,115261303053962E-001	11	3,423910024226947E-004	0,000000000000000E+000	1,717804367647729E+006	0,000000000000000E+000	0,000000000000000E+000	4,115261303053962E-001	4,115261303053962E-001	0,0000000E+000	0,000000000000000E+000	5,3020162E-003
1	1	0	1	0	0	11	2,744972536542991E+003	5,6230001E+000	9,4642770E-001	5,6208925E+000	2,8104529E-001	1,5770499E+000	0	4,380694031715393E-001	11	3,674985792438515E-004	0,000000000000000E+000	1,821952545165593E+006	0,000000000000000E+000	0,000000000000000E+000	4,380694031715393E-001	4,380694031715393E-001	0,0000000E+000	0,000000000000000E+000	5,3197686E-003
1	1	0	1	0	0	11	2,761972536113535E+003	5,6230001E+000	9,5094955E-001	5,6217198E+000	3,7660146E-001	1,6726060E+000	0	4,646127753787571E-001	11	3,926807288301091E-004	0,000000000000000E+000	1,922305533149403E+006	0,000000000000000E+000	0,000000000000000E+000	4,646127753787571E-001	4,646127753787571E-001	0,0000000E+000	0,000000000000000E+000	5,3459718E-003
1	1	0	1	0	0	11	2,778972535684079E+003	5,6230001E+000	9,5261198E-001	5,6210198E+000	4,7215828E-001	1,7681628E+000	0	4,911563462681240E-001	11	4,179153284788426E-004	0,000000000000000E+000	2,028252645869468E+006	0,000000000000000E+000	0,000000000000000E+000	4,911563462681240E-001	4,911563462681240E-001	0,0000000E+000	0,000000000000000E+000	5,3546508E-003
1	1	0	1	0	0	11	2,795972535254623E+003	5,6230001E+000	9,4875669E-001	5,6210833E+000	5,6771523E-001	1,8637197E+000	0	5,176999171574911E-001	11	4,432071863517689E-004	0,000000000000000E+000	2,147362001657151E+006	0,000000000000000E+000	0,000000000000000E+000	5,176999171574911E-001	5,176999171574911E-001	0,0000000E+000	0,000000000000000E+000	5,3330404E-003
1	1	0	1	0	0	11	2,812972534825167E+003	5,6230001E+000	9,5356643E-001	5,6213379E+000	6,6327178E-001	1,9592763E+000	0	5,442434218194749E-001	11	4,685227501668209E-004	0,000000000000000E+000	2,245020208882374E+006	0,000000000000000E+000	0,000000000000000E+000	5,442434218194749E-001	5,442434218194749E-001	0,0000000E+000	0,000000000000000E+000	5,3603193E-003
1	1	0	1	0	0	11	2,829972534395711E+003	5,6230001E+000	9,5528942E-001	5,6205750E+000	7,5882810E-001	2,0548327E+000	0	5,707868602540758E-001	11	4,938751936902130E-004	0,000000000000000E+000	2,349873380585677E+006	0,000000000000000E+000	0,000000000000000E+000	5,707868602540758E-001	5,707868602540758E-001	0,0000000E+000	0,000000000000000E+000	5,3692758E-003
1	1	0	1	0	0	11	2,846972533966255E+003	5,6230001E+000	9,5724273E-001	5,6212111E+000	8,5438460E-001	2,1503892E+000	0	5,973303318023682E-001	11	5,192341249177963E-004	0,000000000000000E+000	2,453669318482999E+006	0,000000000000000E+000	0,000000000000000E+000	5,973303318023682E-001	5,973303318023682E-001	0,0000000E+000	0,000000000000000E+000	5,3808633E-003
1	1	0	1	0	0	11	2,863972533536798E+003	5,6230001E+000	9,5234507E-001	5,6212740E+000	9,4994062E-001	2,2459452E+000	0	6,238736708958944E-001	11	5,445845285135520E-004	0,000000000000000E+000	2,577103955875995E+006	0,000000000000000E+000	0,000000000000000E+000	6,238736708958944E-001	6,238736708958944E-001	0,0000000E+000	0,000000000000000E+000	5,3533926E-003
1	1	0	0	0	0	12	2,879972733132599E+003	1,0000000E+001	1,0168396E+000	9,9985552E+000	4,9992353E-002	2,3577690E+000	0	6,549358367919922E-001	11	5,751009725243450E-004	0,000000000000000E+000	2,518999575696361E+006	0,000000000000000E+000	0,000000000000000E+000	6,549358367919922E-001	6,549358367919922E-001	0,0000000E+000	0,000000000000000E+000	1,0166927E-002
1	1	0	0	0	0	12	2,896972732703143E+003	1,0000000E+001	1,0093993E+000	9,9985552E+000	2,1996951E-001	2,5277462E+000	0	7,021517223782010E-001	11	6,228300495010688E-004	0,000000000000000E+000	2,722239664297362E+006	0,000000000000000E+000	0,000000000000000E+000	7,021517223782010E-001	7,021517223782010E-001	0,0000000E+000	0,000000000000000E+000	1,0092534E-002
1	1	0	0	0	0	12	2,913972732273687E+003	1,0000000E+001	1,0137967E+000	9,9982376E+000	3,8994712E-001	2,6977236E+000	0	7,493676741917928E-001	11	6,705254189026871E-004	0,000000000000000E+000	2,891601854676542E+006	0,000000000000000E+000	0,000000000000000E+000	7,493676741917928E-001	7,493676741917928E-001	0,0000000E+000	0,000000000000000E+000	1,0136181E-002
1	1	0	0	0	0	12	2,930972731844231E+003	1,0000000E+001	1,0108706E+000	9,9988737E+000	5,5992478E-001	2,8677013E+000	0	7,965836922327677E-001	11	7,182089827133236E-004	0,000000000000000E+000	3,083466355978918E+006	0,000000000000000E+000	0,000000000000000E+000	7,965836922327677E-001	7,965836922327677E-001	0,0000000E+000	0,000000000000000E+000	1,0107568E-002
1	1	0	0	0	0	12	2,947972731414775E+003	1,0000000E+001	1,0195142E+000	9,9991283E+000	7,2990257E-001	3,0376792E+000	0	8,437997765011258E-001	11	7,660287588851488E-004	0,000000000000000E+000	3,236156603823067E+006	0,000000000000000E+000	0,000000000000000E+000	8,437997765011258E-001	8,437997765011258E-001	0,0000000E+000	0,000000000000000E+000	1,0194253E-002
1	1	0	0	0	0	12	2,964972730985319E+003	1,0000000E+001	1,0113022E+000	9,9987459E+000	8,9988059E-001	3,2076571E+000	0	8,910158607694838E-001	11	8,137788345153712E-004	0,000000000000000E+000	3,447400287307081E+006	0,000000000000000E+000	0,000000000000000E+000	8,910158607694838E-001	8,910158607694838E-001	0,0000000E+000	0,000000000000000E+000	1,0111754E-002
1	1	0	0	0	0	12	2,981972730555863E+003	1,0000000E+001	1,0150145E+000	9,9990644E+000	1,0698587E+000	3,3776352E+000	0	9,382320112652249E-001	11	8,616448233567828E-004	0,000000000000000E+000	3,615657155917112E+006	0,000000000000000E+000	0,000000000000000E+000	9,382320112652249E-001	9,382320112652249E-001	0,0000000E+000	0,000000000000000E+000	1,0149196E-002
1	1	0	0	0	0	12	2,998972730126407E+003	1,0000000E+001	1,0148084E+000	9,9987459E+000	1,2398367E+000	3,5476131E+000	0	9,854480955335829E-001	11	9,095870406195690E-004	0,000000000000000E+000	3,798451481460657E+006	0,000000000000000E+000	0,000000000000000E+000	9,854480955335829E-001	9,854480955335829E-001	0,0000000E+000	0,000000000000000E+000	1,0146812E-002
1	1	0	0	0	0	12	3,015972729696950E+003	1,0000000E+001	1,0155661E+000	9,9983644E+000	1,4098146E+000	3,7175910E+000	0	1,032664179801941E+000	11	9,575380935523762E-004	0,000000000000000E+000	3,977221288774762E+006	0,000000000000000E+000	0,000000000000000E+000	1,032664179801941E+000	1,032664179801941E+000	0,0000000E+000	0,000000000000000E+000	1,0154000E-002
1	1	0	0	0	0	12	3,032972729267494E+003	1,0000000E+001	1,0203288E+000	9,9984922E+000	1,5797925E+000	3,8875692E+000	0	1,079880330297682E+000	11	1,005621652289391E-003	0,000000000000000E+000	4,137986278951511E+006	0,000000000000000E+000	0,000000000000000E+000	1,079880330297682E+000	1,079880330297682E+000	0,0000000E+000	0,000000000000000E+000	1,0201749E-002
1	1	0	0	0	0	12	3,049972728838038E+003	1,0000000E+001	1,0236592E+000	9,9983015E+000	1,7497706E+000	4,0575471E+000	0	1,127096414566040E+000	11	1,053787489281220E-003	0,000000000000000E+000	4,303656812762287E+006	0,000000000000000E+000	0,000000000000000E+000	1,127096414566040E+000	1,127096414566040E+000	0,0000000E+000	0,000000000000000E+000	1,0234853E-002
1	1	0	0	0	0	12	3,054972928711722E+003	1,0000000E+001	1,0201654E+000	9,9997644E+000	1,7997663E+000	4,1075430E+000	0	1,140984164343940E+000	11	1,067975662111023E-003	0,000000000000000E+000	4,372889824499061E+006	0,000000000000000E+000	0,000000000000000E+000	1,140984164343940E+000	1,140984164343940E+000	0,0000000E+000	0,000000000000000E+000	1,0201414E-002