File: Data/2022_01_11 FeNx Ti electrode set2_03_CP_C05.mpt
EC-Lab ASCII FILE
Nb header lines : 52

Chronopotentiometry

Run on channel : 5 (SN 30436)
User :
CE vs. WE compliance from -10 V to 10 V
Electrode connection : standard
Potential control : Ewe
Ewe ctrl range : min = -2,50 V, max = 2,50 V
Safety Limits :
	Do not start on E overload
Acquisition started on : 01/11/2023 12:58:29.644
Loaded Setting File :  C:\Users\grupogalan\Documents\EC-Lab\Data\Scott\2022_01_05 CoNx Ti electrode1 exp2.mps
Saved on :
	File : 2022_01_11 FeNx Ti electrode set2_03_CP_C05.mpr
	Directory : C:\Users\grupogalan\Documents\EC-Lab\Data\Scott\
	Host : 169.254.104.159
Device : VSP (SN 1176)
Address : USB
EC-Lab for windows v11.46 (software)
Internet server v11.40 (firmware)
Command interpretor v11.40 (firmware)
Electrode material :
Initial state :
Electrolyte :
Comments :
Electrode surface area : 0,000 cm²
Characteristic mass : 0,001 g
Equivalent Weight : 0,000 g/eq.
Density : 0,000 g/cm3
Volume (V) : 0,001 cm³
Cycle Definition : Charge/Discharge alternance
Is                  10,000
unit Is             mA
vs.                 <None>
ts (h:m:s)          2:00:0,0000
EM (V)              pass
dQM                 20,000
unit dQM            mA.h
record              <Ewe>
dEs (mV)            0,00
dts (s)             1,0000
E range min (V)     -2,500
E range max (V)     2,500
I Range             10 mA
Bandwidth           5
goto Ns'            0
nc cycles           0

mode	ox/red	error	control changes	Ns changes	counter inc.	Ns	time/s	control/mA	<Ewe>/V	I/mA	dQ/C	(Q-Qo)/C	half cycle	Q charge/discharge/mA.h	I Range	Energy charge/W.h	Energy discharge/W.h	Capacitance charge/µF	Capacitance discharge/µF	Q discharge/mA.h	Q charge/mA.h	Capacity/mA.h	Efficiency/%	cycle number	P/W
1	1	0	0	0	0	0	5,020492685333316E+003	1,0000000E+001	1,0565331E+000	9,9991283E+000	9,4749536E-003	9,4749536E-003	0	2,631931565701962E-003	11	2,780722811416281E-006	0,000000000000000E+000	0,000000000000000E+000	0,000000000000000E+000	0,000000000000000E+000	2,631931565701962E-003	2,631931565701962E-003	0,0000000E+000	0,000000000000000E+000	1,0564410E-002
1	1	0	0	0	0	0	5,071492684715849E+003	1,0000000E+001	1,0493739E+000	9,9983644E+000	5,1941127E-001	5,1941127E-001	0	1,442809071805742E-001	11	1,518859281425711E-004	0,000000000000000E+000	7,255124383908352E+007	0,000000000000000E+000	0,000000000000000E+000	1,442809071805742E-001	1,442809071805742E-001	0,0000000E+000	0,000000000000000E+000	1,0492022E-002
1	1	0	0	0	0	0	5,122492684098383E+003	1,0000000E+001	1,0560375E+000	9,9994459E+000	1,0293446E+000	1,0293446E+000	0	2,859290440877278E-001	11	3,011364046169220E-004	0,000000000000000E+000	2,077163338946355E+009	0,000000000000000E+000	0,000000000000000E+000	2,859290440877278E-001	2,859290440877278E-001	0,0000000E+000	0,000000000000000E+000	1,0559791E-002
1	1	0	0	0	0	0	5,173492683480916E+003	1,0000000E+001	1,0720708E+000	9,9984283E+000	1,5392779E+000	1,5392779E+000	0	4,275771975517273E-001	11	4,519961070837770E-004	0,000000000000000E+000	9,906704772134417E+007	0,000000000000000E+000	0,000000000000000E+000	4,275771975517273E-001	4,275771975517273E-001	0,0000000E+000	0,000000000000000E+000	1,0719024E-002
1	1	0	0	0	0	0	5,224492682863449E+003	1,0000000E+001	1,0885807E+000	9,9991283E+000	2,0492117E+000	2,0492117E+000	0	5,692254834704928E-001	11	6,051112480063973E-004	0,000000000000000E+000	6,394269347369204E+007	0,000000000000000E+000	0,000000000000000E+000	5,692254834704928E-001	5,692254834704928E-001	0,0000000E+000	0,000000000000000E+000	1,0884859E-002
1	1	0	0	0	0	0	5,275492682245982E+003	1,0000000E+001	1,1238006E+000	9,9986830E+000	2,5591462E+000	2,5591462E+000	0	7,108739349577162E-001	11	7,616836869549303E-004	0,000000000000000E+000	3,804429707893762E+007	0,000000000000000E+000	0,000000000000000E+000	7,108739349577162E-001	7,108739349577162E-001	0,0000000E+000	0,000000000000000E+000	1,1236526E-002
1	1	0	0	0	0	0	5,326492681628515E+003	1,0000000E+001	1,1580969E+000	9,9981098E+000	3,0690794E+000	3,0690794E+000	0	8,525220553080241E-001	11	9,230363231623508E-004	0,000000000000000E+000	3,021823777346624E+007	0,000000000000000E+000	0,000000000000000E+000	8,525220553080241E-001	8,525220553080241E-001	0,0000000E+000	0,000000000000000E+000	1,1578780E-002
1	1	0	0	0	0	0	5,377492681011048E+003	1,0000000E+001	1,2228017E+000	9,9985552E+000	3,5790110E+000	3,5790110E+000	0	9,941697120666504E-001	11	1,091452213543207E-003	0,000000000000000E+000	2,152547889890892E+007	0,000000000000000E+000	0,000000000000000E+000	9,941697120666504E-001	9,941697120666504E-001	0,0000000E+000	0,000000000000000E+000	1,2226250E-002
1	1	0	0	0	0	0	5,428492680393581E+003	1,0000000E+001	1,2823367E+000	9,9982376E+000	4,0889430E+000	4,0889430E+000	0	1,135817501280043E+000	11	1,268510022314841E-003	0,000000000000000E+000	1,810840375086185E+007	0,000000000000000E+000	0,000000000000000E+000	1,135817501280043E+000	1,135817501280043E+000	0,0000000E+000	0,000000000000000E+000	1,2821107E-002
1	1	0	0	0	0	0	5,479492679776115E+003	1,0000000E+001	1,3426117E+000	9,9988098E+000	4,5988736E+000	4,5988736E+000	0	1,277464893129137E+000	11	1,454236665775856E-003	0,000000000000000E+000	1,607556126528825E+007	0,000000000000000E+000	0,000000000000000E+000	1,277464893129137E+000	1,277464893129137E+000	0,0000000E+000	0,000000000000000E+000	1,3424519E-002
1	1	0	0	0	0	0	5,530492679158648E+003	1,0000000E+001	1,3926991E+000	9,9994459E+000	5,1088052E+000	5,1088052E+000	0	1,419112549887763E+000	11	1,647692936191482E-003	0,000000000000000E+000	1,519726805119922E+007	0,000000000000000E+000	0,000000000000000E+000	1,419112549887763E+000	1,419112549887763E+000	0,0000000E+000	0,000000000000000E+000	1,3926219E-002
1	1	0	0	0	0	0	5,581492678541181E+003	1,0000000E+001	1,4433483E+000	9,9982376E+000	5,6187363E+000	5,6187363E+000	0	1,560760074191623E+000	11	1,849126389859149E-003	0,000000000000000E+000	1,452563500029740E+007	0,000000000000000E+000	0,000000000000000E+000	1,560760074191623E+000	1,560760074191623E+000	0,0000000E+000	0,000000000000000E+000	1,4430939E-002
1	1	0	0	0	0	0	5,632492677923714E+003	1,0000000E+001	1,4803574E+000	9,9984922E+000	6,1286693E+000	6,1286693E+000	0	1,702408128314548E+000	11	2,056784997489988E-003	0,000000000000000E+000	1,446040048423535E+007	0,000000000000000E+000	0,000000000000000E+000	1,702408128314548E+000	1,702408128314548E+000	0,0000000E+000	0,000000000000000E+000	1,4801342E-002
1	1	0	0	0	0	0	5,683492677306247E+003	1,0000000E+001	1,5319365E+000	9,9984922E+000	6,6386027E+000	6,6386027E+000	0	1,844056314892239E+000	11	2,270489206290152E-003	0,000000000000000E+000	1,396414569506865E+007	0,000000000000000E+000	0,000000000000000E+000	1,844056314892239E+000	1,844056314892239E+000	0,0000000E+000	0,000000000000000E+000	1,5317055E-002
1	1	0	0	0	0	0	5,734492676688780E+003	1,0000000E+001	1,5338013E+000	9,9995098E+000	7,1485381E+000	7,1485381E+000	0	1,985705031288995E+000	11	2,487763715852954E-003	0,000000000000000E+000	1,497803086010247E+007	0,000000000000000E+000	0,000000000000000E+000	1,985705031288995E+000	1,985705031288995E+000	0,0000000E+000	0,000000000000000E+000	1,5337261E-002
1	1	0	0	0	0	0	5,785492676071313E+003	1,0000000E+001	1,5796899E+000	9,9991283E+000	7,6584711E+000	7,6584711E+000	0	2,127353085411920E+000	11	2,709042627093087E-003	0,000000000000000E+000	1,463896036897778E+007	0,000000000000000E+000	0,000000000000000E+000	2,127353085411920E+000	2,127353085411920E+000	0,0000000E+000	0,000000000000000E+000	1,5795521E-002
1	1	0	0	0	0	0	5,836492675453846E+003	1,0000000E+001	1,6403079E+000	9,9986830E+000	8,1684055E+000	8,1684055E+000	0	2,269001536899143E+000	11	2,937410974769570E-003	0,000000000000000E+000	1,399239135007182E+007	0,000000000000000E+000	0,000000000000000E+000	2,269001536899143E+000	2,269001536899143E+000	0,0000000E+000	0,000000000000000E+000	1,6400918E-002
1	1	0	0	0	0	0	5,887492674836380E+003	1,0000000E+001	1,6329736E+000	9,9983644E+000	8,6783381E+000	8,6783381E+000	0	2,410649458567301E+000	11	3,167866205563021E-003	0,000000000000000E+000	1,505504687901003E+007	0,000000000000000E+000	0,000000000000000E+000	2,410649458567301E+000	2,410649458567301E+000	0,0000000E+000	0,000000000000000E+000	1,6327064E-002
1	1	0	0	0	0	0	5,938492674218913E+003	1,0000000E+001	1,6919024E+000	9,9984922E+000	9,1882687E+000	9,1882687E+000	0	2,552296850416395E+000	11	3,402717556360122E-003	0,000000000000000E+000	1,446130407830293E+007	0,000000000000000E+000	0,000000000000000E+000	2,552296850416395E+000	2,552296850416395E+000	0,0000000E+000	0,000000000000000E+000	1,6916472E-002
1	1	0	0	0	0	0	5,989492673601446E+003	1,0000000E+001	1,6822218E+000	9,9984283E+000	9,6982002E+000	9,6982002E+000	0	2,693944507175022E+000	11	3,641414266783954E-003	0,000000000000000E+000	1,550004124864703E+007	0,000000000000000E+000	0,000000000000000E+000	2,693944507175022E+000	2,693944507175022E+000	0,0000000E+000	0,000000000000000E+000	1,6819574E-002
1	1	0	0	0	0	0	6,040492672983979E+003	1,0000000E+001	1,7434516E+000	9,9981737E+000	1,0208131E+001	1,0208131E+001	0	2,835591899024116E+000	11	3,883339704508796E-003	0,000000000000000E+000	1,486075987150942E+007	0,000000000000000E+000	0,000000000000000E+000	2,835591899024116E+000	2,835591899024116E+000	0,0000000E+000	0,000000000000000E+000	1,7431332E-002
1	1	0	0	0	0	0	6,091492672366512E+003	1,0000000E+001	1,7335758E+000	9,9990644E+000	1,0718065E+001	1,0718065E+001	0	2,977240350511339E+000	11	4,128538407064314E-003	0,000000000000000E+000	1,583070743167556E+007	0,000000000000000E+000	0,000000000000000E+000	2,977240350511339E+000	2,977240350511339E+000	0,0000000E+000	0,000000000000000E+000	1,7334137E-002
1	1	0	0	0	0	0	6,142492671749045E+003	1,0000000E+001	1,7201691E+000	9,9978561E+000	1,1228001E+001	1,1228001E+001	0	3,118889066908094E+000	11	4,375747416342948E-003	0,000000000000000E+000	1,691891513211288E+007	0,000000000000000E+000	0,000000000000000E+000	3,118889066908094E+000	3,118889066908094E+000	0,0000000E+000	0,000000000000000E+000	1,7198002E-002
1	1	0	0	0	0	0	6,193492671131578E+003	1,0000000E+001	1,7666036E+000	9,9987459E+000	1,1737934E+001	1,1737934E+001	0	3,260537253485785E+000	11	4,623804266161897E-003	0,000000000000000E+000	1,653066035558112E+007	0,000000000000000E+000	0,000000000000000E+000	3,260537253485785E+000	3,260537253485785E+000	0,0000000E+000	0,000000000000000E+000	1,7663820E-002
1	1	0	0	0	0	0	6,244492670514112E+003	1,0000000E+001	1,7814790E+000	9,9980469E+000	1,2247869E+001	1,2247869E+001	0	3,402185969882541E+000	11	4,874432490321935E-003	0,000000000000000E+000	1,689487373314234E+007	0,000000000000000E+000	0,000000000000000E+000	3,402185969882541E+000	3,402185969882541E+000	0,0000000E+000	0,000000000000000E+000	1,7811311E-002
1	1	0	0	0	0	0	6,295492669896645E+003	1,0000000E+001	1,8139396E+000	9,9990644E+000	1,2757804E+001	1,2757804E+001	0	3,543834421369764E+000	11	5,129573103425569E-003	0,000000000000000E+000	1,684406506813632E+007	0,000000000000000E+000	0,000000000000000E+000	3,543834421369764E+000	3,543834421369764E+000	0,0000000E+000	0,000000000000000E+000	1,8137699E-002
1	1	0	0	0	0	0	6,346492669279178E+003	1,0000000E+001	1,8327864E+000	9,9995098E+000	1,3267737E+001	1,3267737E+001	0	3,685482607947455E+000	11	5,385995511153646E-003	0,000000000000000E+000	1,709201965389911E+007	0,000000000000000E+000	0,000000000000000E+000	3,685482607947455E+000	3,685482607947455E+000	0,0000000E+000	0,000000000000000E+000	1,8326966E-002
1	1	0	0	0	0	0	6,397492668661711E+003	1,0000000E+001	1,8270571E+000	9,9992552E+000	1,3777672E+001	1,3777672E+001	0	3,827131059434679E+000	11	5,643522884636998E-003	0,000000000000000E+000	1,788091138964767E+007	0,000000000000000E+000	0,000000000000000E+000	3,827131059434679E+000	3,827131059434679E+000	0,0000000E+000	0,000000000000000E+000	1,8269211E-002
1	1	0	0	0	0	0	6,448492668044244E+003	1,0000000E+001	1,8311311E+000	9,9985552E+000	1,4287606E+001	1,4287606E+001	0	3,968779510921902E+000	11	5,903105110541493E-003	0,000000000000000E+000	1,844518859386078E+007	0,000000000000000E+000	0,000000000000000E+000	3,968779510921902E+000	3,968779510921902E+000	0,0000000E+000	0,000000000000000E+000	1,8308666E-002
1	1	0	0	0	0	0	6,499492667426777E+003	1,0000000E+001	1,8449779E+000	9,9984922E+000	1,4797542E+001	1,4797542E+001	0	4,110428227318658E+000	11	6,161376592459330E-003	0,000000000000000E+000	1,876801320359954E+007	0,000000000000000E+000	0,000000000000000E+000	4,110428227318658E+000	4,110428227318658E+000	0,0000000E+000	0,000000000000000E+000	1,8446997E-002
1	1	0	0	0	0	0	6,550492666809310E+003	1,0000000E+001	1,8814791E+000	9,9986830E+000	1,5307476E+001	1,5307476E+001	0	4,252076678805881E+000	11	6,427572974838825E-003	0,000000000000000E+000	1,855572994165299E+007	0,000000000000000E+000	0,000000000000000E+000	4,252076678805881E+000	4,252076678805881E+000	0,0000000E+000	0,000000000000000E+000	1,8812314E-002
1	1	0	0	0	0	0	6,601492666191843E+003	1,0000000E+001	1,8779289E+000	9,9988737E+000	1,5817410E+001	1,5817410E+001	0	4,393724865383572E+000	11	6,690431386716554E-003	0,000000000000000E+000	1,925674612107018E+007	0,000000000000000E+000	0,000000000000000E+000	4,393724865383572E+000	4,393724865383572E+000	0,0000000E+000	0,000000000000000E+000	1,8777173E-002
1	1	0	0	0	0	0	6,652492665574377E+003	1,0000000E+001	1,8257395E+000	9,9981737E+000	1,6327343E+001	1,6327343E+001	0	4,535373051961263E+000	11	6,951936651632937E-003	0,000000000000000E+000	2,122621820046614E+007	0,000000000000000E+000	0,000000000000000E+000	4,535373051961263E+000	4,535373051961263E+000	0,0000000E+000	0,000000000000000E+000	1,8254060E-002
1	1	0	0	0	0	0	6,703492664956910E+003	1,0000000E+001	1,8905588E+000	9,9991913E+000	1,6837273E+001	1,6837273E+001	0	4,677020178900825E+000	11	7,216136437458919E-003	0,000000000000000E+000	2,018795322966447E+007	0,000000000000000E+000	0,000000000000000E+000	4,677020178900825E+000	4,677020178900825E+000	0,0000000E+000	0,000000000000000E+000	1,8904060E-002
1	1	0	0	0	0	0	6,754492664339443E+003	1,0000000E+001	1,9074618E+000	9,9989376E+000	1,7347206E+001	1,7347206E+001	0	4,818668365478516E+000	11	7,483144733893454E-003	0,000000000000000E+000	2,038620491399190E+007	0,000000000000000E+000	0,000000000000000E+000	4,818668365478516E+000	4,818668365478516E+000	0,0000000E+000	0,000000000000000E+000	1,9072590E-002
1	1	0	0	0	0	0	6,805492663721976E+003	1,0000000E+001	1,8852817E+000	9,9983644E+000	1,7857138E+001	1,7857138E+001	0	4,960316022237142E+000	11	7,752546555585755E-003	0,000000000000000E+000	2,154711094444557E+007	0,000000000000000E+000	0,000000000000000E+000	4,960316022237142E+000	4,960316022237142E+000	0,0000000E+000	0,000000000000000E+000	1,8849734E-002
1	1	0	0	0	0	0	6,856492663104509E+003	1,0000000E+001	1,8926049E+000	9,9984283E+000	1,8367069E+001	1,8367069E+001	0	5,101963678995769E+000	11	8,020639966962019E-003	0,000000000000000E+000	2,196829048750271E+007	0,000000000000000E+000	0,000000000000000E+000	5,101963678995769E+000	5,101963678995769E+000	0,0000000E+000	0,000000000000000E+000	1,8923076E-002
1	1	0	0	0	0	0	6,907492662487042E+003	1,0000000E+001	1,8465042E+000	9,9989376E+000	1,8877003E+001	1,8877003E+001	0	5,243611865573460E+000	11	8,291238964506530E-003	0,000000000000000E+000	2,389581391081431E+007	0,000000000000000E+000	0,000000000000000E+000	5,243611865573460E+000	5,243611865573460E+000	0,0000000E+000	0,000000000000000E+000	1,8463081E-002
1	1	0	0	0	0	0	6,958492661869575E+003	1,0000000E+001	1,9549345E+000	9,9983644E+000	1,9386936E+001	1,9386936E+001	0	5,385260052151150E+000	11	8,560473614391710E-003	0,000000000000000E+000	2,157937045543478E+007	0,000000000000000E+000	0,000000000000000E+000	5,385260052151150E+000	5,385260052151150E+000	0,0000000E+000	0,000000000000000E+000	1,9546147E-002
1	1	0	0	0	0	0	7,009492661252109E+003	1,0000000E+001	1,9040745E+000	9,9986830E+000	1,9896868E+001	1,9896868E+001	0	5,526907708909777E+000	11	8,830431417369283E-003	0,000000000000000E+000	2,347598187432284E+007	0,000000000000000E+000	0,000000000000000E+000	5,526907708909777E+000	5,526907708909777E+000	0,0000000E+000	0,000000000000000E+000	1,9038238E-002
1	1	0	0	0	0	0	7,060492660634642E+003	1,0000000E+001	1,9667032E+000	9,9985552E+000	2,0406797E+001	2,0406797E+001	0	5,668554835849339E+000	11	9,105241400751781E-003	0,000000000000000E+000	2,242086165662090E+007	0,000000000000000E+000	0,000000000000000E+000	5,668554835849339E+000	5,668554835849339E+000	0,0000000E+000	0,000000000000000E+000	1,9664191E-002
1	1	0	0	0	0	0	7,111492660017175E+003	1,0000000E+001	1,9651878E+000	9,9979820E+000	2,0916731E+001	2,0916731E+001	0	5,810203022427029E+000	11	9,376810700004628E-003	0,000000000000000E+000	2,301944964989790E+007	0,000000000000000E+000	0,000000000000000E+000	5,810203022427029E+000	5,810203022427029E+000	0,0000000E+000	0,000000000000000E+000	1,9647913E-002
1	1	0	0	0	0	0	7,162492659399708E+003	1,0000000E+001	1,9516692E+000	9,9989376E+000	2,1426661E+001	2,1426661E+001	0	5,951850149366591E+000	11	9,647807208135885E-003	0,000000000000000E+000	2,393676236318652E+007	0,000000000000000E+000	0,000000000000000E+000	5,951850149366591E+000	5,951850149366591E+000	0,0000000E+000	0,000000000000000E+000	1,9514618E-002
1	1	0	0	0	0	0	7,213492658782241E+003	1,0000000E+001	1,9234382E+000	9,9979191E+000	2,1936592E+001	2,1936592E+001	0	6,093497806125217E+000	11	9,922992463306218E-003	0,000000000000000E+000	2,530449096942339E+007	0,000000000000000E+000	0,000000000000000E+000	6,093497806125217E+000	6,093497806125217E+000	0,0000000E+000	0,000000000000000E+000	1,9230379E-002
1	1	0	0	0	0	0	7,264492658164774E+003	1,0000000E+001	1,9563917E+000	9,9984922E+000	2,2446526E+001	2,2446526E+001	0	6,235145992702908E+000	11	1,019424918374276E-002	0,000000000000000E+000	2,494450319736437E+007	0,000000000000000E+000	0,000000000000000E+000	6,235145992702908E+000	6,235145992702908E+000	0,0000000E+000	0,000000000000000E+000	1,9560967E-002
1	1	0	0	0	0	0	7,315492657547307E+003	1,0000000E+001	1,8862463E+000	9,9991913E+000	2,2956459E+001	2,2956459E+001	0	6,376794179280599E+000	11	1,046609417038204E-002	0,000000000000000E+000	2,766794398790024E+007	0,000000000000000E+000	0,000000000000000E+000	6,376794179280599E+000	6,376794179280599E+000	0,0000000E+000	0,000000000000000E+000	1,8860938E-002
1	1	0	0	0	0	0	7,366492656929840E+003	1,0000000E+001	1,9960456E+000	9,9981098E+000	2,3466393E+001	2,3466393E+001	0	6,518442365858290E+000	11	1,074489663983455E-002	0,000000000000000E+000	2,497720119342202E+007	0,000000000000000E+000	0,000000000000000E+000	6,518442365858290E+000	6,518442365858290E+000	0,0000000E+000	0,000000000000000E+000	1,9956684E-002
1	1	0	0	0	0	0	7,417492656312374E+003	1,0000000E+001	1,8910688E+000	9,9986191E+000	2,3976326E+001	2,3976326E+001	0	6,660090552435981E+000	11	1,101750284982969E-002	0,000000000000000E+000	2,873013757548825E+007	0,000000000000000E+000	0,000000000000000E+000	6,660090552435981E+000	6,660090552435981E+000	0,0000000E+000	0,000000000000000E+000	1,8908076E-002
1	1	0	0	0	0	0	7,468492655694907E+003	1,0000000E+001	1,8954134E+000	9,9983015E+000	2,4486258E+001	2,4486258E+001	0	6,801738209194607E+000	11	1,129490608217153E-002	0,000000000000000E+000	2,918921512147582E+007	0,000000000000000E+000	0,000000000000000E+000	6,801738209194607E+000	6,801738209194607E+000	0,0000000E+000	0,000000000000000E+000	1,8950915E-002
1	1	0	0	0	0	0	7,519492655077440E+003	1,0000000E+001	1,9873703E+000	9,9989376E+000	2,4996191E+001	2,4996191E+001	0	6,943386395772298E+000	11	1,156776342935440E-002	0,000000000000000E+000	2,685345219293819E+007	0,000000000000000E+000	0,000000000000000E+000	6,943386395772298E+000	6,943386395772298E+000	0,0000000E+000	0,000000000000000E+000	1,9871591E-002
1	1	0	0	0	0	0	7,570492654459973E+003	1,0000000E+001	1,9134235E+000	9,9991283E+000	2,5506123E+001	2,5506123E+001	0	7,085034052530925E+000	11	1,184309557247255E-002	0,000000000000000E+000	2,976590868430374E+007	0,000000000000000E+000	0,000000000000000E+000	7,085034052530925E+000	7,085034052530925E+000	0,0000000E+000	0,000000000000000E+000	1,9132568E-002
1	1	0	0	0	0	0	7,621492653842506E+003	1,0000000E+001	1,9509971E+000	9,9988098E+000	2,6016058E+001	2,6016058E+001	0	7,226682768927680E+000	11	1,211773055726886E-002	0,000000000000000E+000	2,908563956057781E+007	0,000000000000000E+000	0,000000000000000E+000	7,226682768927680E+000	7,226682768927680E+000	0,0000000E+000	0,000000000000000E+000	1,9507648E-002
1	1	0	0	0	0	0	7,672492653225039E+003	1,0000000E+001	1,9099659E+000	9,9983015E+000	2,6525991E+001	2,6525991E+001	0	7,368330955505371E+000	11	1,239141000291030E-002	0,000000000000000E+000	3,108152420558245E+007	0,000000000000000E+000	0,000000000000000E+000	7,368330955505371E+000	7,368330955505371E+000	0,0000000E+000	0,000000000000000E+000	1,9096415E-002
1	1	0	0	0	0	0	7,723492652607572E+003	1,0000000E+001	2,0132596E+000	9,9995098E+000	2,7035923E+001	2,7035923E+001	0	7,509978612263997E+000	11	1,267096373265908E-002	0,000000000000000E+000	2,825877778170964E+007	0,000000000000000E+000	0,000000000000000E+000	7,509978612263997E+000	7,509978612263997E+000	0,0000000E+000	0,000000000000000E+000	2,0131610E-002
1	1	0	0	0	0	0	7,774492651990106E+003	1,0000000E+001	1,8740089E+000	9,9984283E+000	2,7545855E+001	2,7545855E+001	0	7,651626269022624E+000	11	1,294487049535321E-002	0,000000000000000E+000	3,369623261242753E+007	0,000000000000000E+000	0,000000000000000E+000	7,651626269022624E+000	7,651626269022624E+000	0,0000000E+000	0,000000000000000E+000	1,8737143E-002
1	1	0	0	0	0	0	7,825492651372639E+003	1,0000000E+001	1,9026135E+000	9,9979820E+000	2,8055784E+001	2,8055784E+001	0	7,793273395962185E+000	11	1,321940131356179E-002	0,000000000000000E+000	3,315971328805032E+007	0,000000000000000E+000	0,000000000000000E+000	7,793273395962185E+000	7,793273395962185E+000	0,0000000E+000	0,000000000000000E+000	1,9022295E-002
1	1	0	0	0	0	0	7,876492650755172E+003	1,0000000E+001	1,9212984E+000	9,9988737E+000	2,8565716E+001	2,8565716E+001	0	7,934921052720812E+000	11	1,349332756301493E-002	0,000000000000000E+000	3,303291221044096E+007	0,000000000000000E+000	0,000000000000000E+000	7,934921052720812E+000	7,934921052720812E+000	0,0000000E+000	0,000000000000000E+000	1,9210819E-002
1	1	0	0	0	0	0	7,927492650137705E+003	1,0000000E+001	1,9598651E+000	9,9990005E+000	2,9075647E+001	2,9075647E+001	0	8,076568709479439E+000	11	1,377145697590465E-002	0,000000000000000E+000	3,218711117809129E+007	0,000000000000000E+000	0,000000000000000E+000	8,076568709479439E+000	8,076568709479439E+000	0,0000000E+000	0,000000000000000E+000	1,9596692E-002
1	1	0	0	0	0	0	7,978492649520238E+003	1,0000000E+001	1,8745817E+000	9,9986191E+000	2,9585581E+001	2,9585581E+001	0	8,218216896057129E+000	11	1,404473815888781E-002	0,000000000000000E+000	3,616604313808410E+007	0,000000000000000E+000	0,000000000000000E+000	8,218216896057129E+000	8,218216896057129E+000	0,0000000E+000	0,000000000000000E+000	1,8743228E-002
1	1	0	0	0	0	0	8,029492648902771E+003	1,0000000E+001	1,8366132E+000	9,9991913E+000	3,0095512E+001	3,0095512E+001	0	8,359864552815756E+000	11	1,431818056144643E-002	0,000000000000000E+000	3,858002935915080E+007	0,000000000000000E+000	0,000000000000000E+000	8,359864552815756E+000	8,359864552815756E+000	0,0000000E+000	0,000000000000000E+000	1,8364647E-002
1	1	0	0	0	0	0	8,080492648285304E+003	1,0000000E+001	1,9033591E+000	9,9986830E+000	3,0605444E+001	3,0605444E+001	0	8,501512209574381E+000	11	1,459003378583031E-002	0,000000000000000E+000	3,614136256771304E+007	0,000000000000000E+000	0,000000000000000E+000	8,501512209574381E+000	8,501512209574381E+000	0,0000000E+000	0,000000000000000E+000	1,9031083E-002
1	1	0	0	0	0	0	8,131492647667837E+003	1,0000000E+001	1,8675731E+000	9,9990644E+000	3,1115374E+001	3,1115374E+001	0	8,643159336513943E+000	11	1,486071878473168E-002	0,000000000000000E+000	3,836478093545128E+007	0,000000000000000E+000	0,000000000000000E+000	8,643159336513943E+000	8,643159336513943E+000	0,0000000E+000	0,000000000000000E+000	1,8673984E-002
1	1	0	0	0	0	0	8,182492647050371E+003	1,0000000E+001	1,9064233E+000	9,9987459E+000	3,1625307E+001	3,1625307E+001	0	8,784807523091635E+000	11	1,513261239685061E-002	0,000000000000000E+000	3,721104901453083E+007	0,000000000000000E+000	0,000000000000000E+000	8,784807523091635E+000	8,784807523091635E+000	0,0000000E+000	0,000000000000000E+000	1,9061843E-002
1	1	0	0	0	0	0	8,233492646432918E+003	1,0000000E+001	1,9803708E+000	9,9984283E+000	3,2135239E+001	3,2135239E+001	0	8,926455179850260E+000	11	1,540503481269699E-002	0,000000000000000E+000	3,478450812107598E+007	0,000000000000000E+000	0,000000000000000E+000	8,926455179850260E+000	8,926455179850260E+000	0,0000000E+000	0,000000000000000E+000	1,9800596E-002
1	1	0	0	0	0	0	8,284492645815451E+003	1,0000000E+001	1,8809083E+000	9,9981098E+000	3,2645172E+001	3,2645172E+001	0	9,068103366427952E+000	11	1,568044768462008E-002	0,000000000000000E+000	3,959989819763541E+007	0,000000000000000E+000	0,000000000000000E+000	9,068103366427952E+000	9,068103366427952E+000	0,0000000E+000	0,000000000000000E+000	1,8805528E-002
1	1	0	0	0	0	0	8,335492645197985E+003	1,0000000E+001	1,9452138E+000	9,9991283E+000	3,3155102E+001	3,3155102E+001	0	9,209750493367514E+000	11	1,595745246072584E-002	0,000000000000000E+000	3,730822769884721E+007	0,000000000000000E+000	0,000000000000000E+000	9,209750493367514E+000	9,209750493367514E+000	0,0000000E+000	0,000000000000000E+000	1,9450443E-002
1	1	0	0	0	0	0	8,386492644580518E+003	1,0000000E+001	1,9808722E+000	9,9984283E+000	3,3665031E+001	3,3665031E+001	0	9,351397620307075E+000	11	1,623203808085903E-002	0,000000000000000E+000	3,642065237212981E+007	0,000000000000000E+000	0,000000000000000E+000	9,351397620307075E+000	9,351397620307075E+000	0,0000000E+000	0,000000000000000E+000	1,9805608E-002
1	1	0	0	0	0	0	8,437492643963051E+003	1,0000000E+001	1,9443437E+000	9,9988737E+000	3,4174965E+001	3,4174965E+001	0	9,493045806884766E+000	11	1,650899451836479E-002	0,000000000000000E+000	3,849353158343846E+007	0,000000000000000E+000	0,000000000000000E+000	9,493045806884766E+000	9,493045806884766E+000	0,0000000E+000	0,000000000000000E+000	1,9441247E-002
1	1	0	0	0	0	0	8,488492643345584E+003	1,0000000E+001	1,9782376E+000	9,9974737E+000	3,4684902E+001	3,4684902E+001	0	9,634695053100586E+000	11	1,678448197795644E-002	0,000000000000000E+000	3,763125929761927E+007	0,000000000000000E+000	0,000000000000000E+000	9,634695053100586E+000	9,634695053100586E+000	0,0000000E+000	0,000000000000000E+000	1,9777378E-002
1	1	0	0	0	0	0	8,539492642728117E+003	1,0000000E+001	1,9878993E+000	9,9986830E+000	3,5194836E+001	3,5194836E+001	0	9,776343239678276E+000	11	1,705799035016194E-002	0,000000000000000E+000	3,778839672919003E+007	0,000000000000000E+000	0,000000000000000E+000	9,776343239678276E+000	9,776343239678276E+000	0,0000000E+000	0,000000000000000E+000	1,9876376E-002
1	1	0	0	0	0	0	8,590492642110650E+003	1,0000000E+001	1,9186521E+000	9,9989376E+000	3,5704769E+001	3,5704769E+001	0	9,917991426255968E+000	11	1,733423825100137E-002	0,000000000000000E+000	4,141513041107149E+007	0,000000000000000E+000	0,000000000000000E+000	9,917991426255968E+000	9,917991426255968E+000	0,0000000E+000	0,000000000000000E+000	1,9184481E-002
1	1	0	0	0	0	0	8,641492641493183E+003	1,0000000E+001	2,0104463E+000	9,9990644E+000	3,6214703E+001	3,6214703E+001	0	1,005963961283366E+001	11	1,761305577070059E-002	0,000000000000000E+000	3,796435792833895E+007	0,000000000000000E+000	0,000000000000000E+000	1,005963961283366E+001	1,005963961283366E+001	0,0000000E+000	0,000000000000000E+000	2,0102583E-002
1	1	0	0	0	0	0	8,692492640875716E+003	1,0000000E+001	1,9571724E+000	9,9983644E+000	3,6724640E+001	3,6724640E+001	0	1,020128885904948E+001	11	1,788544588379571E-002	0,000000000000000E+000	4,077619094890743E+007	0,000000000000000E+000	0,000000000000000E+000	1,020128885904948E+001	1,020128885904948E+001	0,0000000E+000	0,000000000000000E+000	1,9568523E-002
1	1	0	0	0	0	0	8,743492640258250E+003	1,0000000E+001	1,9832755E+000	9,9985552E+000	3,7234573E+001	3,7234573E+001	0	1,034293704562717E+001	11	1,816571156910122E-002	0,000000000000000E+000	4,017790917740867E+007	0,000000000000000E+000	0,000000000000000E+000	1,034293704562717E+001	1,034293704562717E+001	0,0000000E+000	0,000000000000000E+000	1,9829890E-002
1	1	0	0	0	0	0	8,794492639640783E+003	1,0000000E+001	1,9035165E+000	9,9993191E+000	3,7744507E+001	3,7744507E+001	0	1,048458523220486E+001	11	1,844173258552434E-002	0,000000000000000E+000	4,456345351703839E+007	0,000000000000000E+000	0,000000000000000E+000	1,048458523220486E+001	1,048458523220486E+001	0,0000000E+000	0,000000000000000E+000	1,9033870E-002
1	1	0	0	0	0	0	8,845492639023316E+003	1,0000000E+001	1,9313055E+000	9,9984922E+000	3,8254440E+001	3,8254440E+001	0	1,062623341878255E+001	11	1,871522682996720E-002	0,000000000000000E+000	4,373073386750263E+007	0,000000000000000E+000	0,000000000000000E+000	1,062623341878255E+001	1,062623341878255E+001	0,0000000E+000	0,000000000000000E+000	1,9310143E-002
1	1	0	0	0	0	0	8,896492638405849E+003	1,0000000E+001	2,0219171E+000	9,9986830E+000	3,8764374E+001	3,8764374E+001	0	1,076788160536024E+001	11	1,899139682819938E-002	0,000000000000000E+000	4,015435673087989E+007	0,000000000000000E+000	0,000000000000000E+000	1,076788160536024E+001	1,076788160536024E+001	0,0000000E+000	0,000000000000000E+000	2,0216508E-002
1	1	0	0	0	0	0	8,947492637788382E+003	1,0000000E+001	1,9935381E+000	9,9979191E+000	3,9274307E+001	3,9274307E+001	0	1,090952979193793E+001	11	1,927016527681340E-002	0,000000000000000E+000	4,191472345120359E+007	0,000000000000000E+000	0,000000000000000E+000	1,090952979193793E+001	1,090952979193793E+001	0,0000000E+000	0,000000000000000E+000	1,9931233E-002
1	1	0	0	0	0	0	8,998492637170915E+003	1,0000000E+001	1,8695896E+000	9,9984283E+000	3,9784241E+001	3,9784241E+001	0	1,105117797851563E+001	11	1,954982676019527E-002	0,000000000000000E+000	4,893170676492857E+007	0,000000000000000E+000	0,000000000000000E+000	1,105117797851563E+001	1,105117797851563E+001	0,0000000E+000	0,000000000000000E+000	1,8692957E-002
1	1	0	0	0	0	0	9,049492636553448E+003	1,0000000E+001	1,9654353E+000	9,9978561E+000	4,0294174E+001	4,0294174E+001	0	1,119282616509332E+001	11	1,982517935455753E-002	0,000000000000000E+000	4,433279576267007E+007	0,000000000000000E+000	0,000000000000000E+000	1,119282616509332E+001	1,119282616509332E+001	0,0000000E+000	0,000000000000000E+000	1,9650139E-002
1	1	0	0	0	0	0	9,100492635935982E+003	1,0000000E+001	2,0038691E+000	9,9992552E+000	4,0804104E+001	4,0804104E+001	0	1,133447329203288E+001	11	2,010294666245310E-002	0,000000000000000E+000	4,307247443320166E+007	0,000000000000000E+000	0,000000000000000E+000	1,133447329203288E+001	1,133447329203288E+001	0,0000000E+000	0,000000000000000E+000	2,0037198E-002
1	1	0	0	0	0	0	9,151492635318515E+003	1,0000000E+001	1,9804662E+000	9,9991283E+000	4,1314037E+001	4,1314037E+001	0	1,147612147861057E+001	11	2,037981804741838E-002	0,000000000000000E+000	4,471539677438126E+007	0,000000000000000E+000	0,000000000000000E+000	1,147612147861057E+001	1,147612147861057E+001	0,0000000E+000	0,000000000000000E+000	1,9802935E-002
1	1	0	0	0	0	0	9,202492634701048E+003	1,0000000E+001	1,8937929E+000	9,9979191E+000	4,1823971E+001	4,1823971E+001	0	1,161776966518826E+001	11	2,065588833914779E-002	0,000000000000000E+000	4,995339836125980E+007	0,000000000000000E+000	0,000000000000000E+000	1,161776966518826E+001	1,161776966518826E+001	0,0000000E+000	0,000000000000000E+000	1,8933987E-002
1	1	0	0	0	0	0	9,253492634083581E+003	1,0000000E+001	1,8779587E+000	9,9997005E+000	4,2333900E+001	4,2333900E+001	0	1,175941679212782E+001	11	2,092842595634931E-002	0,000000000000000E+000	5,153711140816563E+007	0,000000000000000E+000	0,000000000000000E+000	1,175941679212782E+001	1,175941679212782E+001	0,0000000E+000	0,000000000000000E+000	1,8779024E-002
1	1	0	0	0	0	0	9,304492633466114E+003	1,0000000E+001	1,9803636E+000	9,9986830E+000	4,2843834E+001	4,2843834E+001	0	1,190106497870551E+001	11	2,120586880811500E-002	0,000000000000000E+000	4,637629250965076E+007	0,000000000000000E+000	0,000000000000000E+000	1,190106497870551E+001	1,190106497870551E+001	0,0000000E+000	0,000000000000000E+000	1,9801028E-002
1	1	0	0	0	0	0	9,355492632848647E+003	1,0000000E+001	1,9662210E+000	9,9991283E+000	4,3353767E+001	4,3353767E+001	0	1,204271316528320E+001	11	2,148320087535262E-002	0,000000000000000E+000	4,765784892311180E+007	0,000000000000000E+000	0,000000000000000E+000	1,204271316528320E+001	1,204271316528320E+001	0,0000000E+000	0,000000000000000E+000	1,9660495E-002
1	1	0	0	0	0	0	9,406492632231180E+003	1,0000000E+001	1,9453310E+000	9,9981737E+000	4,3863701E+001	4,3863701E+001	0	1,218436135186089E+001	11	2,176186788055120E-002	0,000000000000000E+000	4,935171639387819E+007	0,000000000000000E+000	0,000000000000000E+000	1,218436135186089E+001	1,218436135186089E+001	0,0000000E+000	0,000000000000000E+000	1,9449757E-002
1	1	0	0	0	0	0	9,457492631613684E+003	1,0000000E+001	1,9985760E+000	9,9988737E+000	4,4373634E+001	4,4373634E+001	0	1,232600953843859E+001	11	2,203970524723874E-002	0,000000000000000E+000	4,710362143082842E+007	0,000000000000000E+000	0,000000000000000E+000	1,232600953843859E+001	1,232600953843859E+001	0,0000000E+000	0,000000000000000E+000	1,9983510E-002
1	1	0	0	0	0	0	9,508492630996217E+003	1,0000000E+001	1,9814106E+000	9,9981737E+000	4,4883568E+001	4,4883568E+001	0	1,246765772501628E+001	11	2,231760200192195E-002	0,000000000000000E+000	4,852920157222430E+007	0,000000000000000E+000	0,000000000000000E+000	1,246765772501628E+001	1,246765772501628E+001	0,0000000E+000	0,000000000000000E+000	1,9810488E-002
1	1	0	0	0	0	0	9,559492630378751E+003	1,0000000E+001	1,9409111E+000	9,9991283E+000	4,5393501E+001	4,5393501E+001	0	1,260930591159397E+001	11	2,259744535826407E-002	0,000000000000000E+000	5,132816908622805E+007	0,000000000000000E+000	0,000000000000000E+000	1,260930591159397E+001	1,260930591159397E+001	0,0000000E+000	0,000000000000000E+000	1,9407419E-002
1	1	0	0	0	0	0	9,610492629761284E+003	1,0000000E+001	1,9979206E+000	9,9986830E+000	4,5903435E+001	4,5903435E+001	0	1,275095409817166E+001	11	2,287650909411871E-002	0,000000000000000E+000	4,876146442206472E+007	0,000000000000000E+000	0,000000000000000E+000	1,275095409817166E+001	1,275095409817166E+001	0,0000000E+000	0,000000000000000E+000	1,9976575E-002
1	1	0	0	0	0	0	9,661492629143817E+003	1,0000000E+001	1,9820374E+000	9,9989376E+000	4,6413368E+001	4,6413368E+001	0	1,289260228474935E+001	11	2,315399795899842E-002	0,000000000000000E+000	5,014927200238340E+007	0,000000000000000E+000	0,000000000000000E+000	1,289260228474935E+001	1,289260228474935E+001	0,0000000E+000	0,000000000000000E+000	1,9818269E-002
1	1	0	0	0	0	0	9,712492628526350E+003	1,0000000E+001	1,9738292E+000	9,9986191E+000	4,6923302E+001	4,6923302E+001	0	1,303425047132704E+001	11	2,343404268714176E-002	0,000000000000000E+000	5,115393399496312E+007	0,000000000000000E+000	0,000000000000000E+000	1,303425047132704E+001	1,303425047132704E+001	0,0000000E+000	0,000000000000000E+000	1,9735565E-002
1	1	0	0	0	0	0	9,763492627908883E+003	1,0000000E+001	1,9552417E+000	9,9989376E+000	4,7433235E+001	4,7433235E+001	0	1,317589865790473E+001	11	2,371248683149725E-002	0,000000000000000E+000	5,277932816318107E+007	0,000000000000000E+000	0,000000000000000E+000	1,317589865790473E+001	1,317589865790473E+001	0,0000000E+000	0,000000000000000E+000	1,9550340E-002
1	1	0	0	0	0	0	9,814492627291416E+003	1,0000000E+001	1,9908470E+000	9,9986830E+000	4,7943169E+001	4,7943169E+001	0	1,331754684448242E+001	11	2,399081673279939E-002	0,000000000000000E+000	5,131377043947038E+007	0,000000000000000E+000	0,000000000000000E+000	1,331754684448242E+001	1,331754684448242E+001	0,0000000E+000	0,000000000000000E+000	1,9905848E-002
1	1	0	0	0	0	0	9,865492626673949E+003	1,0000000E+001	1,9647448E+000	9,9983015E+000	4,8453106E+001	4,8453106E+001	0	1,345919609069824E+001	11	2,426247332803905E-002	0,000000000000000E+000	5,335001244317877E+007	0,000000000000000E+000	0,000000000000000E+000	1,345919609069824E+001	1,345919609069824E+001	0,0000000E+000	0,000000000000000E+000	1,9644111E-002
1	1	0	0	0	0	0	9,916492626056483E+003	1,0000000E+001	2,0077288E+000	9,9984922E+000	4,8963039E+001	4,8963039E+001	0	1,360084427727593E+001	11	2,453981136706576E-002	0,000000000000000E+000	5,147525218041690E+007	0,000000000000000E+000	0,000000000000000E+000	1,360084427727593E+001	1,360084427727593E+001	0,0000000E+000	0,000000000000000E+000	2,0074261E-002
1	1	0	0	0	0	0	9,967492625439016E+003	1,0000000E+001	2,0162361E+000	9,9983015E+000	4,9472977E+001	4,9472977E+001	0	1,374249352349175E+001	11	2,481885961314004E-002	0,000000000000000E+000	5,155030077365931E+007	0,000000000000000E+000	0,000000000000000E+000	1,374249352349175E+001	1,374249352349175E+001	0,0000000E+000	0,000000000000000E+000	2,0158935E-002
1	1	0	0	0	0	0	1,001849262482155E+004	1,0000000E+001	1,9443386E+000	9,9988737E+000	4,9982914E+001	4,9982914E+001	0	1,388414276970757E+001	11	2,509830107280310E-002	0,000000000000000E+000	5,629939904278671E+007	0,000000000000000E+000	0,000000000000000E+000	1,388414276970757E+001	1,388414276970757E+001	0,0000000E+000	0,000000000000000E+000	1,9441195E-002
1	1	0	0	0	0	0	1,006949262420408E+004	1,0000000E+001	1,8916806E+000	9,9987459E+000	5,0492847E+001	5,0492847E+001	0	1,402579095628527E+001	11	2,537963636637275E-002	0,000000000000000E+000	6,045979595259591E+007	0,000000000000000E+000	0,000000000000000E+000	1,402579095628527E+001	1,402579095628527E+001	0,0000000E+000	0,000000000000000E+000	1,8914433E-002
1	1	0	0	0	0	0	1,012049262358662E+004	1,0000000E+001	1,9956228E+000	9,9986830E+000	5,1002785E+001	5,1002785E+001	0	1,416744020250109E+001	11	2,565710243703596E-002	0,000000000000000E+000	5,431087906236056E+007	0,000000000000000E+000	0,000000000000000E+000	1,416744020250109E+001	1,416744020250109E+001	0,0000000E+000	0,000000000000000E+000	1,9953599E-002
1	1	0	0	0	0	0	1,017149262296915E+004	1,0000000E+001	1,9534810E+000	9,9993830E+000	5,1512718E+001	5,1512718E+001	0	1,430908838907878E+001	11	2,593691636625787E-002	0,000000000000000E+000	5,743111774575287E+007	0,000000000000000E+000	0,000000000000000E+000	1,430908838907878E+001	1,430908838907878E+001	0,0000000E+000	0,000000000000000E+000	1,9533604E-002
1	1	0	0	0	0	0	1,022249262235168E+004	1,0000000E+001	1,8817455E+000	9,9984922E+000	5,2022655E+001	5,2022655E+001	0	1,445073763529460E+001	11	2,621867412422134E-002	0,000000000000000E+000	6,304153699672497E+007	0,000000000000000E+000	0,000000000000000E+000	1,445073763529460E+001	1,445073763529460E+001	0,0000000E+000	0,000000000000000E+000	1,8814618E-002
1	1	0	0	0	0	0	1,027349262173421E+004	1,0000000E+001	1,9577353E+000	9,9989376E+000	5,2532589E+001	5,2532589E+001	0	1,459238582187229E+001	11	2,649525297972330E-002	0,000000000000000E+000	5,829167843941506E+007	0,000000000000000E+000	0,000000000000000E+000	1,459238582187229E+001	1,459238582187229E+001	0,0000000E+000	0,000000000000000E+000	1,9575274E-002
1	1	0	0	0	0	0	1,032449262111675E+004	1,0000000E+001	1,9104407E+000	9,9988737E+000	5,3042522E+001	5,3042522E+001	0	1,473403400844998E+001	11	2,677226318401911E-002	0,000000000000000E+000	6,211740398285881E+007	0,000000000000000E+000	0,000000000000000E+000	1,473403400844998E+001	1,473403400844998E+001	0,0000000E+000	0,000000000000000E+000	1,9102255E-002
1	1	0	0	0	0	0	1,037549262049928E+004	1,0000000E+001	1,9998505E+000	9,9978561E+000	5,3552456E+001	5,3552456E+001	0	1,487568219502767E+001	11	2,705304713153761E-002	0,000000000000000E+000	5,677034595709404E+007	0,000000000000000E+000	0,000000000000000E+000	1,487568219502767E+001	1,487568219502767E+001	0,0000000E+000	0,000000000000000E+000	1,9994218E-002
1	1	0	0	0	0	0	1,042649261988181E+004	1,0000000E+001	1,9981318E+000	9,9991283E+000	5,4062389E+001	5,4062389E+001	0	1,501733038160536E+001	11	2,733157180812062E-002	0,000000000000000E+000	5,741553384340870E+007	0,000000000000000E+000	0,000000000000000E+000	1,501733038160536E+001	1,501733038160536E+001	0,0000000E+000	0,000000000000000E+000	1,9979576E-002
1	1	0	0	0	0	0	1,047749261926435E+004	1,0000000E+001	1,9511721E+000	9,9982376E+000	5,4572327E+001	5,4572327E+001	0	1,515897962782118E+001	11	2,761017288904264E-002	0,000000000000000E+000	6,099926979832576E+007	0,000000000000000E+000	0,000000000000000E+000	1,515897962782118E+001	1,515897962782118E+001	0,0000000E+000	0,000000000000000E+000	1,9508282E-002
1	1	0	0	0	0	0	1,052849261864688E+004	1,0000000E+001	1,9196253E+000	9,9986830E+000	5,5082260E+001	5,5082260E+001	0	1,530062781439887E+001	11	2,789129993084747E-002	0,000000000000000E+000	6,381967204510630E+007	0,000000000000000E+000	0,000000000000000E+000	1,530062781439887E+001	1,530062781439887E+001	0,0000000E+000	0,000000000000000E+000	1,9193724E-002
1	1	0	0	0	0	0	1,057949261802941E+004	1,0000000E+001	2,0269825E+000	9,9990005E+000	5,5592194E+001	5,5592194E+001	0	1,544227600097656E+001	11	2,817181757068310E-002	0,000000000000000E+000	5,728499690445071E+007	0,000000000000000E+000	0,000000000000000E+000	1,544227600097656E+001	1,544227600097656E+001	0,0000000E+000	0,000000000000000E+000	2,0267799E-002
1	1	0	0	0	0	0	1,063049261741195E+004	1,0000000E+001	1,9943969E+000	9,9980469E+000	5,6102127E+001	5,6102127E+001	0	1,558392418755425E+001	11	2,844869297952606E-002	0,000000000000000E+000	5,981905418988704E+007	0,000000000000000E+000	0,000000000000000E+000	1,558392418755425E+001	1,558392418755425E+001	0,0000000E+000	0,000000000000000E+000	1,9940075E-002
1	1	0	0	0	0	0	1,068149261679448E+004	1,0000000E+001	1,9386731E+000	9,9988098E+000	5,6612061E+001	5,6612061E+001	0	1,572557237413194E+001	11	2,872798759474426E-002	0,000000000000000E+000	6,417582011282003E+007	0,000000000000000E+000	0,000000000000000E+000	1,572557237413194E+001	1,572557237413194E+001	0,0000000E+000	0,000000000000000E+000	1,9384423E-002
1	1	0	0	0	0	0	1,073249261617701E+004	1,0000000E+001	2,0215874E+000	9,9992552E+000	5,7121998E+001	5,7121998E+001	0	1,586722162034777E+001	11	2,900624444499084E-002	0,000000000000000E+000	5,919045114411012E+007	0,000000000000000E+000	0,000000000000000E+000	1,586722162034777E+001	1,586722162034777E+001	0,0000000E+000	0,000000000000000E+000	2,0214368E-002
1	1	0	0	0	0	0	1,078349261555955E+004	1,0000000E+001	1,9822927E+000	9,9990644E+000	5,7631931E+001	5,7631931E+001	0	1,600886980692546E+001	11	2,928364648740123E-002	0,000000000000000E+000	6,225367165973417E+007	0,000000000000000E+000	0,000000000000000E+000	1,600886980692546E+001	1,600886980692546E+001	0,0000000E+000	0,000000000000000E+000	1,9821072E-002
1	1	0	0	0	0	0	1,083449261494208E+004	1,0000000E+001	1,9715602E+000	9,9988737E+000	5,8141861E+001	5,8141861E+001	0	1,615051693386502E+001	11	2,956327066031957E-002	0,000000000000000E+000	6,354113262923337E+007	0,000000000000000E+000	0,000000000000000E+000	1,615051693386502E+001	1,615051693386502E+001	0,0000000E+000	0,000000000000000E+000	1,9713381E-002
1	1	0	0	0	0	0	1,088549261432461E+004	1,0000000E+001	2,0209124E+000	9,9983015E+000	5,8651798E+001	5,8651798E+001	0	1,629216618008084E+001	11	2,984242294170272E-002	0,000000000000000E+000	6,081818388588098E+007	0,000000000000000E+000	0,000000000000000E+000	1,629216618008084E+001	1,629216618008084E+001	0,0000000E+000	0,000000000000000E+000	2,0205691E-002
1	1	0	0	0	0	0	1,093649261370715E+004	1,0000000E+001	1,9776528E+000	9,9991283E+000	5,9161736E+001	5,9161736E+001	0	1,643381542629666E+001	11	3,012194408961138E-002	0,000000000000000E+000	6,422806523485708E+007	0,000000000000000E+000	0,000000000000000E+000	1,643381542629666E+001	1,643381542629666E+001	0,0000000E+000	0,000000000000000E+000	1,9774804E-002
1	1	0	0	0	0	0	1,098749261308968E+004	1,0000000E+001	2,0227962E+000	9,9988737E+000	5,9671669E+001	5,9671669E+001	0	1,657546361287435E+001	11	3,040134419058784E-002	0,000000000000000E+000	6,175509727716707E+007	0,000000000000000E+000	0,000000000000000E+000	1,657546361287435E+001	1,657546361287435E+001	0,0000000E+000	0,000000000000000E+000	2,0225683E-002
1	1	0	0	0	0	0	1,103849261247221E+004	1,0000000E+001	1,9753765E+000	9,9990005E+000	6,0181606E+001	6,0181606E+001	0	1,671711285909017E+001	11	3,068068035080893E-002	0,000000000000000E+000	6,549713154840080E+007	0,000000000000000E+000	0,000000000000000E+000	1,671711285909017E+001	1,671711285909017E+001	0,0000000E+000	0,000000000000000E+000	1,9751791E-002
1	1	0	0	0	0	0	1,108949261185474E+004	1,0000000E+001	1,9600492E+000	9,9993191E+000	6,0691540E+001	6,0691540E+001	0	1,685876104566786E+001	11	3,096082089452443E-002	0,000000000000000E+000	6,717261910887659E+007	0,000000000000000E+000	0,000000000000000E+000	1,685876104566786E+001	1,685876104566786E+001	0,0000000E+000	0,000000000000000E+000	1,9599156E-002
1	1	0	0	0	0	0	1,114049261123728E+004	1,0000000E+001	2,0518315E+000	9,9986830E+000	6,1201477E+001	6,1201477E+001	0	1,700041029188368E+001	11	3,124024880483959E-002	0,000000000000000E+000	6,149058205560123E+007	0,000000000000000E+000	0,000000000000000E+000	1,700041029188368E+001	1,700041029188368E+001	0,0000000E+000	0,000000000000000E+000	2,0515613E-002
1	1	0	0	0	0	0	1,119149261061981E+004	1,0000000E+001	1,9622022E+000	9,9988737E+000	6,1711411E+001	6,1711411E+001	0	1,714205847846137E+001	11	3,151848851728715E-002	0,000000000000000E+000	6,813902670460820E+007	0,000000000000000E+000	0,000000000000000E+000	1,714205847846137E+001	1,714205847846137E+001	0,0000000E+000	0,000000000000000E+000	1,9619811E-002
1	1	0	0	0	0	0	1,124249261000234E+004	1,0000000E+001	1,9776554E+000	9,9988737E+000	6,2221344E+001	6,2221344E+001	0	1,728370666503906E+001	11	3,179783361797456E-002	0,000000000000000E+000	6,754949168712972E+007	0,000000000000000E+000	0,000000000000000E+000	1,728370666503906E+001	1,728370666503906E+001	0,0000000E+000	0,000000000000000E+000	1,9774327E-002
1	1	0	0	0	0	0	1,129349260938488E+004	1,0000000E+001	1,9223791E+000	9,9988098E+000	6,2731277E+001	6,2731277E+001	0	1,742535485161675E+001	11	3,207729941907807E-002	0,000000000000000E+000	7,245084544190522E+007	0,000000000000000E+000	0,000000000000000E+000	1,742535485161675E+001	1,742535485161675E+001	0,0000000E+000	0,000000000000000E+000	1,9221503E-002
1	1	0	0	0	0	0	1,134449260876741E+004	1,0000000E+001	1,8880519E+000	9,9986191E+000	6,3241211E+001	6,3241211E+001	0	1,756700303819444E+001	11	3,235946051708666E-002	0,000000000000000E+000	7,605506126272976E+007	0,000000000000000E+000	0,000000000000000E+000	1,756700303819444E+001	1,756700303819444E+001	0,0000000E+000	0,000000000000000E+000	1,8877912E-002
1	1	0	0	0	0	0	1,139549260814994E+004	1,0000000E+001	1,9831985E+000	9,9981737E+000	6,3751144E+001	6,3751144E+001	0	1,770865122477214E+001	11	3,263601809750440E-002	0,000000000000000E+000	6,879629116247609E+007	0,000000000000000E+000	0,000000000000000E+000	1,770865122477214E+001	1,770865122477214E+001	0,0000000E+000	0,000000000000000E+000	1,9828364E-002
1	1	0	0	0	0	0	1,144649260753248E+004	1,0000000E+001	1,9384083E+000	9,9986830E+000	6,4261078E+001	6,4261078E+001	0	1,785029941134983E+001	11	3,291491896150978E-002	0,000000000000000E+000	7,286867913765147E+007	0,000000000000000E+000	0,000000000000000E+000	1,785029941134983E+001	1,785029941134983E+001	0,0000000E+000	0,000000000000000E+000	1,9381529E-002
1	1	0	0	0	0	0	1,149749260691501E+004	1,0000000E+001	2,0374012E+000	9,9979191E+000	6,4771019E+001	6,4771019E+001	0	1,799194971720378E+001	11	3,319752367006359E-002	0,000000000000000E+000	6,603438210293047E+007	0,000000000000000E+000	0,000000000000000E+000	1,799194971720378E+001	1,799194971720378E+001	0,0000000E+000	0,000000000000000E+000	2,0369772E-002
1	1	0	0	0	0	0	1,154849260629754E+004	1,0000000E+001	2,0017648E+000	9,9989376E+000	6,5280952E+001	6,5280952E+001	0	1,813359790378147E+001	11	3,347605601702072E-002	0,000000000000000E+000	6,906344138068284E+007	0,000000000000000E+000	0,000000000000000E+000	1,813359790378147E+001	1,813359790378147E+001	0,0000000E+000	0,000000000000000E+000	2,0015521E-002
1	1	0	0	0	0	0	1,159949260568008E+004	1,0000000E+001	2,0022559E+000	9,9988737E+000	6,5790886E+001	6,5790886E+001	0	1,827524609035916E+001	11	3,375551412805208E-002	0,000000000000000E+000	6,956677437302873E+007	0,000000000000000E+000	0,000000000000000E+000	1,827524609035916E+001	1,827524609035916E+001	0,0000000E+000	0,000000000000000E+000	2,0020304E-002
1	1	0	0	0	0	0	1,165049260506261E+004	1,0000000E+001	1,9659544E+000	9,9991913E+000	6,6300819E+001	6,6300819E+001	0	1,841689427693685E+001	11	3,403553701141847E-002	0,000000000000000E+000	7,290440370601900E+007	0,000000000000000E+000	0,000000000000000E+000	1,841689427693685E+001	1,841689427693685E+001	0,0000000E+000	0,000000000000000E+000	1,9657955E-002
1	1	0	0	0	0	0	1,170149260444514E+004	1,0000000E+001	1,9602015E+000	9,9985552E+000	6,6810760E+001	6,6810760E+001	0	1,855854458279080E+001	11	3,431443525095248E-002	0,000000000000000E+000	7,393282782711476E+007	0,000000000000000E+000	0,000000000000000E+000	1,855854458279080E+001	1,855854458279080E+001	0,0000000E+000	0,000000000000000E+000	1,9599183E-002
1	1	0	0	0	0	0	1,175249260382768E+004	1,0000000E+001	1,9303515E+000	9,9977283E+000	6,7320694E+001	6,7320694E+001	0	1,870019276936849E+001	11	3,459090185126268E-002	0,000000000000000E+000	7,704197366482404E+007	0,000000000000000E+000	0,000000000000000E+000	1,870019276936849E+001	1,870019276936849E+001	0,0000000E+000	0,000000000000000E+000	1,9299129E-002
1	1	0	0	0	0	0	1,180349260321021E+004	1,0000000E+001	1,9640954E+000	9,9988737E+000	6,7830627E+001	6,7830627E+001	0	1,884184095594618E+001	11	3,486665530438689E-002	0,000000000000000E+000	7,473936581593195E+007	0,000000000000000E+000	0,000000000000000E+000	1,884184095594618E+001	1,884184095594618E+001	0,0000000E+000	0,000000000000000E+000	1,9638741E-002
1	1	0	0	0	0	0	1,185449260259274E+004	1,0000000E+001	1,9642719E+000	9,9985552E+000	6,8340561E+001	6,8340561E+001	0	1,898348914252387E+001	11	3,514227308511183E-002	0,000000000000000E+000	7,528659185926105E+007	0,000000000000000E+000	0,000000000000000E+000	1,898348914252387E+001	1,898348914252387E+001	0,0000000E+000	0,000000000000000E+000	1,9639881E-002
1	1	0	0	0	0	0	1,190549260197527E+004	1,0000000E+001	1,8972127E+000	9,9988098E+000	6,8850494E+001	6,8850494E+001	0	1,912513732910156E+001	11	3,542250554278858E-002	0,000000000000000E+000	8,189860995228110E+007	0,000000000000000E+000	0,000000000000000E+000	1,912513732910156E+001	1,912513732910156E+001	0,0000000E+000	0,000000000000000E+000	1,8969869E-002
1	1	0	0	0	0	0	1,195649260135781E+004	1,0000000E+001	1,9032266E+000	9,9992552E+000	6,9360435E+001	6,9360435E+001	0	1,926678763495551E+001	11	3,570134094597886E-002	0,000000000000000E+000	8,191917641195172E+007	0,000000000000000E+000	0,000000000000000E+000	1,926678763495551E+001	1,926678763495551E+001	0,0000000E+000	0,000000000000000E+000	1,9030849E-002
1	1	0	0	0	0	0	1,200749260074034E+004	1,0000000E+001	1,9683909E+000	9,9988737E+000	6,9870369E+001	6,9870369E+001	0	1,940843582153320E+001	11	3,597697692117156E-002	0,000000000000000E+000	7,662419034207156E+007	0,000000000000000E+000	0,000000000000000E+000	1,940843582153320E+001	1,940843582153320E+001	0,0000000E+000	0,000000000000000E+000	1,9681692E-002
1	1	0	0	0	0	0	1,205849260012287E+004	1,0000000E+001	1,9643400E+000	9,9991283E+000	7,0380302E+001	7,0380302E+001	0	1,955008400811089E+001	11	3,625692352788419E-002	0,000000000000000E+000	7,752783603817399E+007	0,000000000000000E+000	0,000000000000000E+000	1,955008400811089E+001	1,955008400811089E+001	0,0000000E+000	0,000000000000000E+000	1,9641688E-002
1	1	0	0	0	0	0	1,210949259950541E+004	1,0000000E+001	1,9967161E+000	9,9985552E+000	7,0890244E+001	7,0890244E+001	0	1,969173431396484E+001	11	3,653519386988668E-002	0,000000000000000E+000	7,540047017640935E+007	0,000000000000000E+000	0,000000000000000E+000	1,969173431396484E+001	1,969173431396484E+001	0,0000000E+000	0,000000000000000E+000	1,9964276E-002
1	1	0	0	0	0	0	1,216049259888794E+004	1,0000000E+001	1,9595013E+000	9,9993191E+000	7,1400177E+001	7,1400177E+001	0	1,983338250054253E+001	11	3,681332383187638E-002	0,000000000000000E+000	7,907275085858798E+007	0,000000000000000E+000	0,000000000000000E+000	1,983338250054253E+001	1,983338250054253E+001	0,0000000E+000	0,000000000000000E+000	1,9593678E-002
1	1	0	0	0	0	0	1,221149259827047E+004	1,0000000E+001	1,9500897E+000	9,9985552E+000	7,1910110E+001	7,1910110E+001	0	1,997503068712022E+001	11	3,708732991116982E-002	0,000000000000000E+000	8,047627972105591E+007	0,000000000000000E+000	0,000000000000000E+000	1,997503068712022E+001	1,997503068712022E+001	0,0000000E+000	0,000000000000000E+000	1,9498080E-002
1	1	0	0	0	0	0	1,221954519817300E+004	1,0000000E+001	1,9730091E+000	9,9988098E+000	7,1990631E+001	7,1990631E+001	0	1,999739752875434E+001	11	3,713098294310868E-002	0,000000000000000E+000	7,855157169172882E+007	0,000000000000000E+000	0,000000000000000E+000	1,999739752875434E+001	1,999739752875434E+001	0,0000000E+000	0,000000000000000E+000	1,9727742E-002