File: Data/2022_01_04 NiNx Ti electrode1 CV post tafel, bulk_03_CP_C05.mpt
EC-Lab ASCII FILE
Nb header lines : 53

Chronopotentiometry

Run on channel : 5 (SN 30436)
User :
CE vs. WE compliance from -10 V to 10 V
Electrode connection : standard
Potential control : Ewe
Ewe ctrl range : min = -2.50 V, max = 2.50 V
Safety Limits :
	Do not start on E overload
Acquisition started on : 01/04/2023 13:13:31.069
Technique started on : 01/04/2023 13:23:31.181
Loaded Setting File :  C:\Users\grupogalan\Documents\EC-Lab\Data\Scott\2022_01_04 NiNx Ti electrode1.mps
Saved on :
	File : 2022_01_04 NiNx Ti electrode1 CV post tafel, bulk_03_CP_C05.mpr
	Directory : C:\Users\grupogalan\Documents\EC-Lab\Data\Scott\
	Host : 169.254.104.159
Device : VSP (SN 1176)
Address : USB
EC-Lab for windows v11.46 (software)
Internet server v11.40 (firmware)
Command interpretor v11.40 (firmware)
Electrode material :
Initial state :
Electrolyte :
Comments :
Electrode surface area : 0.000 cm²
Characteristic mass : 0.001 g
Equivalent Weight : 0.000 g/eq.
Density : 0.000 g/cm3
Volume (V) : 0.001 cm³
Cycle Definition : Charge/Discharge alternance
Is                  10.000
unit Is             mA
vs.                 <None>
ts (h:m:s)          2:00:0.0000
EM (V)              pass
dQM                 20.000
unit dQM            mA.h
record              <Ewe>
dEs (mV)            0.00
dts (s)             1.0000
E range min (V)     -2.500
E range max (V)     2.500
I Range             10 mA
Bandwidth           5
goto Ns'            0
nc cycles           0

mode	ox/red	error	control changes	Ns changes	counter inc.	Ns	time/s	control/mA	<Ewe>/V	I/mA	dQ/C	(Q-Qo)/C	half cycle	Q charge/discharge/mA.h	I Range	Energy charge/W.h	Energy discharge/W.h	Capacitance charge/µF	Capacitance discharge/µF	Q discharge/mA.h	Q charge/mA.h	Capacity/mA.h	Efficiency/%	cycle number	P/W
1	1	0	1	0	0	0	600.112	10	1.13333	9.99881	0.00947512	0.00947512	0	0.00263198	11	2.98289e-06	0.000000000000000E+000	0.000000000000000E+000	0.000000000000000E+000	0.000000000000000E+000	0.00263198	0.00263198	0.0000000E+000	0.000000000000000E+000	0.0113319
1	1	0	1	0	0	0	633.112	10	1.24462	9.9997	0.339446	0.339446	0	0.0942907	11	0.000115928	0.000000000000000E+000	3.05003e+06	0.000000000000000E+000	0.000000000000000E+000	0.0942907	0.0942907	0.0000000E+000	0.000000000000000E+000	0.0124458
1	1	0	1	0	0	0	666.112	10	1.25269	9.99945	0.669417	0.669417	0	0.185949	11	0.000230432	0.000000000000000E+000	5.60818e+06	0.000000000000000E+000	0.000000000000000E+000	0.185949	0.185949	0.0000000E+000	0.000000000000000E+000	0.0125262
1	1	0	1	0	0	0	699.112	10	1.25611	9.99887	0.999387	0.999387	0	0.277608	11	0.000345443	0.000000000000000E+000	8.13936e+06	0.000000000000000E+000	0.000000000000000E+000	0.277608	0.277608	0.0000000E+000	0.000000000000000E+000	0.0125597
1	1	0	1	0	0	0	732.112	10	1.2582	9.99926	1.32936	1.32936	0	0.369266	11	0.00046072	0.000000000000000E+000	1.06458e+07	0.000000000000000E+000	0.000000000000000E+000	0.369266	0.369266	0.0000000E+000	0.000000000000000E+000	0.012581
1	1	0	1	0	0	0	765.112	10	1.2598	9.99957	1.65933	1.65933	0	0.460925	11	0.000576132	0.000000000000000E+000	1.31201e+07	0.000000000000000E+000	0.000000000000000E+000	0.460925	0.460925	0.0000000E+000	0.000000000000000E+000	0.0125974
1	1	0	1	0	0	0	798.112	10	1.26259	9.99906	1.9893	1.9893	0	0.552584	11	0.000691766	0.000000000000000E+000	1.539e+07	0.000000000000000E+000	0.000000000000000E+000	0.552584	0.552584	0.0000000E+000	0.000000000000000E+000	0.0126247
1	1	0	1	0	0	0	831.112	10	1.26321	9.99926	2.31927	2.31927	0	0.644243	11	0.00080751	0.000000000000000E+000	1.78561e+07	0.000000000000000E+000	0.000000000000000E+000	0.644243	0.644243	0.0000000E+000	0.000000000000000E+000	0.0126312
1	1	0	1	0	0	0	864.112	10	1.26428	9.99945	2.64925	2.64925	0	0.735902	11	0.000923306	0.000000000000000E+000	2.02304e+07	0.000000000000000E+000	0.000000000000000E+000	0.735902	0.735902	0.0000000E+000	0.000000000000000E+000	0.0126421
1	1	0	1	0	0	0	897.112	10	1.26379	9.99945	2.97922	2.97922	0	0.82756	11	0.00103913	0.000000000000000E+000	2.28348e+07	0.000000000000000E+000	0.000000000000000E+000	0.82756	0.82756	0.0000000E+000	0.000000000000000E+000	0.0126372
1	1	0	1	0	0	0	930.112	10	1.26412	9.99945	3.30919	3.30919	0	0.919219	11	0.00115499	0.000000000000000E+000	2.53016e+07	0.000000000000000E+000	0.000000000000000E+000	0.919219	0.919219	0.0000000E+000	0.000000000000000E+000	0.0126405
1	1	0	1	0	0	0	963.112	10	1.26414	9.99989	3.63916	3.63916	0	1.01088	11	0.00127085	0.000000000000000E+000	2.78204e+07	0.000000000000000E+000	0.000000000000000E+000	1.01088	1.01088	0.0000000E+000	0.000000000000000E+000	0.0126412
1	1	0	1	0	0	0	996.112	10	1.26366	9.99964	3.96913	3.96913	0	1.10254	11	0.00138669	0.000000000000000E+000	3.04531e+07	0.000000000000000E+000	0.000000000000000E+000	1.10254	1.10254	0.0000000E+000	0.000000000000000E+000	0.0126362
1	1	0	1	0	0	0	1029.11	10	1.26285	9.99856	4.29911	4.29911	0	1.1942	11	0.00150248	0.000000000000000E+000	3.31904e+07	0.000000000000000E+000	0.000000000000000E+000	1.1942	1.1942	0.0000000E+000	0.000000000000000E+000	0.0126267
1	1	0	1	0	0	0	1062.11	10	1.26382	9.999	4.62908	4.62908	0	1.28585	11	0.0016183	0.000000000000000E+000	3.54743e+07	0.000000000000000E+000	0.000000000000000E+000	1.28585	1.28585	0.0000000E+000	0.000000000000000E+000	0.0126369
1	1	0	1	0	0	0	1095.11	10	1.26299	9.99887	4.95905	4.95905	0	1.37751	11	0.00173409	0.000000000000000E+000	3.82443e+07	0.000000000000000E+000	0.000000000000000E+000	1.37751	1.37751	0.0000000E+000	0.000000000000000E+000	0.0126285
1	1	0	1	0	0	0	1128.11	10	1.26391	9.99881	5.28902	5.28902	0	1.46917	11	0.00184988	0.000000000000000E+000	4.05044e+07	0.000000000000000E+000	0.000000000000000E+000	1.46917	1.46917	0.0000000E+000	0.000000000000000E+000	0.0126375
1	1	0	1	0	0	0	1161.11	10	1.2623	9.99887	5.61899	5.61899	0	1.56083	11	0.00196563	0.000000000000000E+000	4.35658e+07	0.000000000000000E+000	0.000000000000000E+000	1.56083	1.56083	0.0000000E+000	0.000000000000000E+000	0.0126216
1	1	0	1	0	0	0	1194.11	10	1.26274	9.99945	5.94896	5.94896	0	1.65249	11	0.00208136	0.000000000000000E+000	4.5967e+07	0.000000000000000E+000	0.000000000000000E+000	1.65249	1.65249	0.0000000E+000	0.000000000000000E+000	0.0126267
1	1	0	1	0	0	0	1227.11	10	1.2615	9.99868	6.27893	6.27893	0	1.74415	11	0.00219704	0.000000000000000E+000	4.8987e+07	0.000000000000000E+000	0.000000000000000E+000	1.74415	1.74415	0.0000000E+000	0.000000000000000E+000	0.0126134
1	1	0	1	0	0	0	1260.11	10	1.26146	9.99868	6.60891	6.60891	0	1.83581	11	0.0023127	0.000000000000000E+000	5.15785e+07	0.000000000000000E+000	0.000000000000000E+000	1.83581	1.83581	0.0000000E+000	0.000000000000000E+000	0.0126129
1	1	0	1	0	0	0	1293.11	10	1.26126	9.99926	6.93888	6.93888	0	1.92747	11	0.00242833	0.000000000000000E+000	5.42374e+07	0.000000000000000E+000	0.000000000000000E+000	1.92747	1.92747	0.0000000E+000	0.000000000000000E+000	0.0126117
1	1	0	1	0	0	0	1326.11	10	1.26059	9.99938	7.26885	7.26885	0	2.01913	11	0.00254392	0.000000000000000E+000	5.71144e+07	0.000000000000000E+000	0.000000000000000E+000	2.01913	2.01913	0.0000000E+000	0.000000000000000E+000	0.0126052
1	1	0	1	0	0	0	1359.11	10	1.26116	9.99919	7.59882	7.59882	0	2.11078	11	0.00265952	0.000000000000000E+000	5.94431e+07	0.000000000000000E+000	0.000000000000000E+000	2.11078	2.11078	0.0000000E+000	0.000000000000000E+000	0.0126106
1	1	0	1	0	0	0	1392.11	10	1.26044	9.99875	7.9288	7.9288	0	2.20244	11	0.00277506	0.000000000000000E+000	6.23746e+07	0.000000000000000E+000	0.000000000000000E+000	2.20244	2.20244	0.0000000E+000	0.000000000000000E+000	0.0126028
1	1	0	1	0	0	0	1425.11	10	1.26067	9.99881	8.25877	8.25877	0	2.2941	11	0.00289065	0.000000000000000E+000	6.48549e+07	0.000000000000000E+000	0.000000000000000E+000	2.2941	2.2941	0.0000000E+000	0.000000000000000E+000	0.0126052
1	1	0	1	0	0	0	1458.11	10	1.25956	9.99881	8.58874	8.58874	0	2.38576	11	0.00300618	0.000000000000000E+000	6.80395e+07	0.000000000000000E+000	0.000000000000000E+000	2.38576	2.38576	0.0000000E+000	0.000000000000000E+000	0.0125941
1	1	0	1	0	0	0	1491.11	10	1.26029	9.99913	8.91871	8.91871	0	2.47742	11	0.00312168	0.000000000000000E+000	7.02468e+07	0.000000000000000E+000	0.000000000000000E+000	2.47742	2.47742	0.0000000E+000	0.000000000000000E+000	0.0126018
1	1	0	1	0	0	0	1524.11	10	1.25872	9.99906	9.24869	9.24869	0	2.56908	11	0.00323717	0.000000000000000E+000	7.37589e+07	0.000000000000000E+000	0.000000000000000E+000	2.56908	2.56908	0.0000000E+000	0.000000000000000E+000	0.012586
1	1	0	1	0	0	0	1557.11	10	1.26036	9.99926	9.57866	9.57866	0	2.66074	11	0.00335263	0.000000000000000E+000	7.54044e+07	0.000000000000000E+000	0.000000000000000E+000	2.66074	2.66074	0.0000000E+000	0.000000000000000E+000	0.0126026
1	1	0	1	0	0	0	1590.11	10	1.25893	9.99805	9.90863	9.90863	0	2.7524	11	0.00346805	0.000000000000000E+000	7.88902e+07	0.000000000000000E+000	0.000000000000000E+000	2.7524	2.7524	0.0000000E+000	0.000000000000000E+000	0.0125868
1	1	0	1	0	0	0	1623.11	10	1.25873	9.999	10.2386	10.2386	0	2.84406	11	0.00358343	0.000000000000000E+000	8.16441e+07	0.000000000000000E+000	0.000000000000000E+000	2.84406	2.84406	0.0000000E+000	0.000000000000000E+000	0.0125861
1	1	0	1	0	0	0	1656.11	10	1.25866	9.99932	10.5686	10.5686	0	2.93572	11	0.00369878	0.000000000000000E+000	8.43247e+07	0.000000000000000E+000	0.000000000000000E+000	2.93572	2.93572	0.0000000E+000	0.000000000000000E+000	0.0125857
1	1	0	1	0	0	0	1689.11	10	1.25933	9.99938	10.8986	10.8986	0	3.02738	11	0.00381413	0.000000000000000E+000	8.64933e+07	0.000000000000000E+000	0.000000000000000E+000	3.02738	3.02738	0.0000000E+000	0.000000000000000E+000	0.0125925
1	1	0	1	0	0	0	1722.11	10	1.25812	9.99913	11.2285	11.2285	0	3.11904	11	0.00392949	0.000000000000000E+000	8.99748e+07	0.000000000000000E+000	0.000000000000000E+000	3.11904	3.11904	0.0000000E+000	0.000000000000000E+000	0.0125801
1	1	0	1	0	0	0	1755.11	10	1.2577	9.99875	11.5585	11.5585	0	3.2107	11	0.00404477	0.000000000000000E+000	9.29305e+07	0.000000000000000E+000	0.000000000000000E+000	3.2107	3.2107	0.0000000E+000	0.000000000000000E+000	0.0125755
1	1	0	1	0	0	0	1788.11	10	1.25722	9.99906	11.8885	11.8885	0	3.30236	11	0.00416004	0.000000000000000E+000	9.59552e+07	0.000000000000000E+000	0.000000000000000E+000	3.30236	3.30236	0.0000000E+000	0.000000000000000E+000	0.0125711
1	1	0	1	0	0	0	1821.11	10	1.25745	9.99887	12.2185	12.2185	0	3.39402	11	0.00427527	0.000000000000000E+000	9.84367e+07	0.000000000000000E+000	0.000000000000000E+000	3.39402	3.39402	0.0000000E+000	0.000000000000000E+000	0.0125731
1	1	0	1	0	0	0	1854.11	10	1.25739	9.99945	12.5485	12.5485	0	3.48568	11	0.00439049	0.000000000000000E+000	1.01147e+08	0.000000000000000E+000	0.000000000000000E+000	3.48568	3.48568	0.0000000E+000	0.000000000000000E+000	0.0125732
1	1	0	1	0	0	0	1887.11	10	1.2564	9.99894	12.8784	12.8784	0	3.57734	11	0.00450569	0.000000000000000E+000	1.04644e+08	0.000000000000000E+000	0.000000000000000E+000	3.57734	3.57734	0.0000000E+000	0.000000000000000E+000	0.0125626
1	1	0	1	0	0	0	1920.11	10	1.25628	9.99938	13.2084	13.2084	0	3.669	11	0.00462091	0.000000000000000E+000	1.07425e+08	0.000000000000000E+000	0.000000000000000E+000	3.669	3.669	0.0000000E+000	0.000000000000000E+000	0.012562
1	1	0	1	0	0	0	1953.11	10	1.25562	9.99957	13.5384	13.5384	0	3.76066	11	0.00473611	0.000000000000000E+000	1.10703e+08	0.000000000000000E+000	0.000000000000000E+000	3.76066	3.76066	0.0000000E+000	0.000000000000000E+000	0.0125557
1	1	0	1	0	0	0	1986.11	10	1.25627	9.99951	13.8684	13.8684	0	3.85232	11	0.00485127	0.000000000000000E+000	1.12805e+08	0.000000000000000E+000	0.000000000000000E+000	3.85232	3.85232	0.0000000E+000	0.000000000000000E+000	0.0125621
1	1	0	1	0	0	0	2019.11	10	1.25548	10.0003	14.1983	14.1983	0	3.94398	11	0.00496639	0.000000000000000E+000	1.16234e+08	0.000000000000000E+000	0.000000000000000E+000	3.94398	3.94398	0.0000000E+000	0.000000000000000E+000	0.0125551
1	1	0	1	0	0	0	2052.11	10	1.25637	9.9983	14.5283	14.5283	0	4.03564	11	0.00508151	0.000000000000000E+000	1.18072e+08	0.000000000000000E+000	0.000000000000000E+000	4.03564	4.03564	0.0000000E+000	0.000000000000000E+000	0.0125616
1	1	0	1	0	0	0	2085.11	10	1.25561	9.99881	14.8583	14.8583	0	4.1273	11	0.00519662	0.000000000000000E+000	1.2151e+08	0.000000000000000E+000	0.000000000000000E+000	4.1273	4.1273	0.0000000E+000	0.000000000000000E+000	0.0125546
1	1	0	1	0	0	0	2118.11	10	1.25537	9.99881	15.1882	15.1882	0	4.21896	11	0.00531171	0.000000000000000E+000	1.24444e+08	0.000000000000000E+000	0.000000000000000E+000	4.21896	4.21896	0.0000000E+000	0.000000000000000E+000	0.0125523
1	1	0	1	0	0	0	2151.11	10	1.25563	10.0002	15.5182	15.5182	0	4.31062	11	0.0054268	0.000000000000000E+000	1.26878e+08	0.000000000000000E+000	0.000000000000000E+000	4.31062	4.31062	0.0000000E+000	0.000000000000000E+000	0.0125566
1	1	0	1	0	0	0	2184.11	10	1.25519	9.99849	15.8482	15.8482	0	4.40228	11	0.00554187	0.000000000000000E+000	1.30046e+08	0.000000000000000E+000	0.000000000000000E+000	4.40228	4.40228	0.0000000E+000	0.000000000000000E+000	0.01255
1	1	0	1	0	0	0	2217.11	10	1.25514	9.99881	16.1782	16.1782	0	4.49393	11	0.00565688	0.000000000000000E+000	1.32813e+08	0.000000000000000E+000	0.000000000000000E+000	4.49393	4.49393	0.0000000E+000	0.000000000000000E+000	0.0125499
1	1	0	1	0	0	0	2250.11	10	1.25551	9.99938	16.5081	16.5081	0	4.58559	11	0.0057719	0.000000000000000E+000	1.35104e+08	0.000000000000000E+000	0.000000000000000E+000	4.58559	4.58559	0.0000000E+000	0.000000000000000E+000	0.0125544
1	1	0	1	0	0	0	2283.11	10	1.25493	9.99805	16.8381	16.8381	0	4.67725	11	0.00588693	0.000000000000000E+000	1.38464e+08	0.000000000000000E+000	0.000000000000000E+000	4.67725	4.67725	0.0000000E+000	0.000000000000000E+000	0.0125469
1	1	0	1	0	0	0	2316.11	10	1.25469	10	17.1681	17.1681	0	4.76891	11	0.00600197	0.000000000000000E+000	1.41463e+08	0.000000000000000E+000	0.000000000000000E+000	4.76891	4.76891	0.0000000E+000	0.000000000000000E+000	0.0125469
1	1	0	1	0	0	0	2349.11	10	1.25542	9.99836	17.498	17.498	0	4.86057	11	0.00611699	0.000000000000000E+000	1.43311e+08	0.000000000000000E+000	0.000000000000000E+000	4.86057	4.86057	0.0000000E+000	0.000000000000000E+000	0.0125522
1	1	0	1	0	0	0	2382.11	10	1.25456	9.999	17.828	17.828	0	4.95223	11	0.00623199	0.000000000000000E+000	1.47051e+08	0.000000000000000E+000	0.000000000000000E+000	4.95223	4.95223	0.0000000E+000	0.000000000000000E+000	0.0125444
1	1	0	1	0	0	0	2415.11	10	1.2533	9.99894	18.158	18.158	0	5.04388	11	0.00634696	0.000000000000000E+000	1.51355e+08	0.000000000000000E+000	0.000000000000000E+000	5.04388	5.04388	0.0000000E+000	0.000000000000000E+000	0.0125316
1	1	0	1	0	0	0	2448.11	10	1.25425	9.99887	18.488	18.488	0	5.13554	11	0.00646192	0.000000000000000E+000	1.52889e+08	0.000000000000000E+000	0.000000000000000E+000	5.13554	5.13554	0.0000000E+000	0.000000000000000E+000	0.0125411
1	1	0	1	0	0	0	2481.11	10	1.25402	9.99945	18.8179	18.8179	0	5.2272	11	0.00657692	0.000000000000000E+000	1.55914e+08	0.000000000000000E+000	0.000000000000000E+000	5.2272	5.2272	0.0000000E+000	0.000000000000000E+000	0.0125395
1	1	0	1	0	0	0	2514.11	10	1.2541	9.99945	19.1479	19.1479	0	5.31886	11	0.00669188	0.000000000000000E+000	1.58545e+08	0.000000000000000E+000	0.000000000000000E+000	5.31886	5.31886	0.0000000E+000	0.000000000000000E+000	0.0125403
1	1	0	1	0	0	0	2547.11	10	1.25412	9.99976	19.4779	19.4779	0	5.41052	11	0.00680685	0.000000000000000E+000	1.61252e+08	0.000000000000000E+000	0.000000000000000E+000	5.41052	5.41052	0.0000000E+000	0.000000000000000E+000	0.0125409
1	1	0	1	0	0	0	2580.11	10	1.25444	9.99817	19.8078	19.8078	0	5.50218	11	0.00692182	0.000000000000000E+000	1.63549e+08	0.000000000000000E+000	0.000000000000000E+000	5.50218	5.50218	0.0000000E+000	0.000000000000000E+000	0.0125421
1	1	0	1	0	0	0	2613.11	10	1.25527	9.99906	20.1378	20.1378	0	5.59383	11	0.00703683	0.000000000000000E+000	1.65138e+08	0.000000000000000E+000	0.000000000000000E+000	5.59383	5.59383	0.0000000E+000	0.000000000000000E+000	0.0125515
1	1	0	1	0	0	0	2646.11	10	1.25425	9.99906	20.4678	20.4678	0	5.68549	11	0.00715182	0.000000000000000E+000	1.69257e+08	0.000000000000000E+000	0.000000000000000E+000	5.68549	5.68549	0.0000000E+000	0.000000000000000E+000	0.0125414
1	1	0	1	0	0	0	2679.11	10	1.25448	9.99957	20.7977	20.7977	0	5.77715	11	0.00726681	0.000000000000000E+000	1.7166e+08	0.000000000000000E+000	0.000000000000000E+000	5.77715	5.77715	0.0000000E+000	0.000000000000000E+000	0.0125443
1	1	0	1	0	0	0	2712.11	10	1.25493	9.999	21.1277	21.1277	0	5.86881	11	0.00738179	0.000000000000000E+000	1.73746e+08	0.000000000000000E+000	0.000000000000000E+000	5.86881	5.86881	0.0000000E+000	0.000000000000000E+000	0.012548
1	1	0	1	0	0	0	2745.11	10	1.25429	9.99894	21.4577	21.4577	0	5.96047	11	0.00749673	0.000000000000000E+000	1.7739e+08	0.000000000000000E+000	0.000000000000000E+000	5.96047	5.96047	0.0000000E+000	0.000000000000000E+000	0.0125416
1	1	0	1	0	0	0	2778.11	10	1.25429	9.99926	21.7877	21.7877	0	6.05213	11	0.00761168	0.000000000000000E+000	1.80113e+08	0.000000000000000E+000	0.000000000000000E+000	6.05213	6.05213	0.0000000E+000	0.000000000000000E+000	0.012542
1	1	0	1	0	0	0	2811.11	10	1.25325	9.99894	22.1176	22.1176	0	6.14379	11	0.00772659	0.000000000000000E+000	1.84432e+08	0.000000000000000E+000	0.000000000000000E+000	6.14379	6.14379	0.0000000E+000	0.000000000000000E+000	0.0125312
1	1	0	1	0	0	0	2844.11	10	1.25315	9.99868	22.4476	22.4476	0	6.23544	11	0.00784149	0.000000000000000E+000	1.87334e+08	0.000000000000000E+000	0.000000000000000E+000	6.23544	6.23544	0.0000000E+000	0.000000000000000E+000	0.0125299
1	1	0	1	0	0	0	2877.11	10	1.25358	9.99887	22.7776	22.7776	0	6.3271	11	0.00795636	0.000000000000000E+000	1.89408e+08	0.000000000000000E+000	0.000000000000000E+000	6.3271	6.3271	0.0000000E+000	0.000000000000000E+000	0.0125344
1	1	0	1	0	0	0	2910.11	10	1.25383	9.99849	23.1075	23.1075	0	6.41876	11	0.00807123	0.000000000000000E+000	1.91752e+08	0.000000000000000E+000	0.000000000000000E+000	6.41876	6.41876	0.0000000E+000	0.000000000000000E+000	0.0125364
1	1	0	1	0	0	0	2943.11	10	1.25307	9.999	23.4375	23.4375	0	6.51042	11	0.00818612	0.000000000000000E+000	1.95738e+08	0.000000000000000E+000	0.000000000000000E+000	6.51042	6.51042	0.0000000E+000	0.000000000000000E+000	0.0125294
1	1	0	1	0	0	0	2976.11	10	1.2536	9.99906	23.7675	23.7675	0	6.60208	11	0.00830096	0.000000000000000E+000	1.97608e+08	0.000000000000000E+000	0.000000000000000E+000	6.60208	6.60208	0.0000000E+000	0.000000000000000E+000	0.0125348
1	1	0	1	0	0	0	3009.11	10	1.25351	9.9997	24.0974	24.0974	0	6.69374	11	0.00841583	0.000000000000000E+000	2.00507e+08	0.000000000000000E+000	0.000000000000000E+000	6.69374	6.69374	0.0000000E+000	0.000000000000000E+000	0.0125347
1	1	0	1	0	0	0	3042.11	10	1.2527	9.999	24.4274	24.4274	0	6.78539	11	0.00853066	0.000000000000000E+000	2.04634e+08	0.000000000000000E+000	0.000000000000000E+000	6.78539	6.78539	0.0000000E+000	0.000000000000000E+000	0.0125257
1	1	0	1	0	0	0	3075.11	10	1.2529	9.99957	24.7574	24.7574	0	6.87705	11	0.00864552	0.000000000000000E+000	2.07047e+08	0.000000000000000E+000	0.000000000000000E+000	6.87705	6.87705	0.0000000E+000	0.000000000000000E+000	0.0125285
1	1	0	1	0	0	0	3108.11	10	1.25405	9.99938	25.0874	25.0874	0	6.96871	11	0.0087604	0.000000000000000E+000	2.07806e+08	0.000000000000000E+000	0.000000000000000E+000	6.96871	6.96871	0.0000000E+000	0.000000000000000E+000	0.0125397
1	1	0	1	0	0	0	3141.11	10	1.25316	9.99913	25.4173	25.4173	0	7.06037	11	0.00887524	0.000000000000000E+000	2.12114e+08	0.000000000000000E+000	0.000000000000000E+000	7.06037	7.06037	0.0000000E+000	0.000000000000000E+000	0.0125305
1	1	0	1	0	0	0	3174.11	10	1.25262	9.99964	25.7473	25.7473	0	7.15203	11	0.00899006	0.000000000000000E+000	2.15822e+08	0.000000000000000E+000	0.000000000000000E+000	7.15203	7.15203	0.0000000E+000	0.000000000000000E+000	0.0125258
1	1	0	1	0	0	0	3207.11	10	1.25251	9.99868	26.0773	26.0773	0	7.24369	11	0.00910491	0.000000000000000E+000	2.18791e+08	0.000000000000000E+000	0.000000000000000E+000	7.24369	7.24369	0.0000000E+000	0.000000000000000E+000	0.0125235
1	1	0	1	0	0	0	3240.11	10	1.25306	9.999	26.4072	26.4072	0	7.33535	11	0.00921974	0.000000000000000E+000	2.20557e+08	0.000000000000000E+000	0.000000000000000E+000	7.33535	7.33535	0.0000000E+000	0.000000000000000E+000	0.0125293
1	1	0	1	0	0	0	3273.11	10	1.25243	9.99817	26.7372	26.7372	0	7.42701	11	0.00933456	0.000000000000000E+000	2.24492e+08	0.000000000000000E+000	0.000000000000000E+000	7.42701	7.42701	0.0000000E+000	0.000000000000000E+000	0.012522
1	1	0	1	0	0	0	3306.11	10	1.25162	9.99843	27.0672	27.0672	0	7.51866	11	0.00944939	0.000000000000000E+000	2.28814e+08	0.000000000000000E+000	0.000000000000000E+000	7.51866	7.51866	0.0000000E+000	0.000000000000000E+000	0.0125142
1	1	0	1	0	0	0	3339.11	10	1.25296	9.99932	27.3972	27.3972	0	7.61032	11	0.0095642	0.000000000000000E+000	2.29017e+08	0.000000000000000E+000	0.000000000000000E+000	7.61032	7.61032	0.0000000E+000	0.000000000000000E+000	0.0125287
1	1	0	1	0	0	0	3372.11	10	1.25178	9.99862	27.7271	27.7271	0	7.70198	11	0.00967902	0.000000000000000E+000	2.34076e+08	0.000000000000000E+000	0.000000000000000E+000	7.70198	7.70198	0.0000000E+000	0.000000000000000E+000	0.0125161
1	1	0	1	0	0	0	3405.11	10	1.25269	9.99906	28.0571	28.0571	0	7.79364	11	0.00979385	0.000000000000000E+000	2.35063e+08	0.000000000000000E+000	0.000000000000000E+000	7.79364	7.79364	0.0000000E+000	0.000000000000000E+000	0.0125257
1	1	0	1	0	0	0	3438.11	10	1.25232	9.999	28.3871	28.3871	0	7.8853	11	0.00990868	0.000000000000000E+000	2.38562e+08	0.000000000000000E+000	0.000000000000000E+000	7.8853	7.8853	0.0000000E+000	0.000000000000000E+000	0.0125219
1	1	0	1	0	0	0	3471.11	10	1.25266	9.99945	28.717	28.717	0	7.97696	11	0.0100235	0.000000000000000E+000	2.40636e+08	0.000000000000000E+000	0.000000000000000E+000	7.97696	7.97696	0.0000000E+000	0.000000000000000E+000	0.0125259
1	1	0	1	0	0	0	3504.11	10	1.2527	9.99881	29.047	29.047	0	8.06861	11	0.0101383	0.000000000000000E+000	2.43319e+08	0.000000000000000E+000	0.000000000000000E+000	8.06861	8.06861	0.0000000E+000	0.000000000000000E+000	0.0125256
1	1	0	1	0	0	0	3537.11	10	1.25159	9.99894	29.377	29.377	0	8.16027	11	0.0102531	0.000000000000000E+000	2.48411e+08	0.000000000000000E+000	0.000000000000000E+000	8.16027	8.16027	0.0000000E+000	0.000000000000000E+000	0.0125145
1	1	0	1	0	0	0	3570.11	10	1.25283	9.99926	29.707	29.707	0	8.25193	11	0.0103678	0.000000000000000E+000	2.48586e+08	0.000000000000000E+000	0.000000000000000E+000	8.25193	8.25193	0.0000000E+000	0.000000000000000E+000	0.0125274
1	1	0	1	0	0	0	3603.11	10	1.25235	9.99856	30.0369	30.0369	0	8.34359	11	0.0104826	0.000000000000000E+000	2.52368e+08	0.000000000000000E+000	0.000000000000000E+000	8.34359	8.34359	0.0000000E+000	0.000000000000000E+000	0.0125217
1	1	0	1	0	0	0	3636.11	10	1.25244	9.99932	30.3669	30.3669	0	8.43525	11	0.0105974	0.000000000000000E+000	2.54933e+08	0.000000000000000E+000	0.000000000000000E+000	8.43525	8.43525	0.0000000E+000	0.000000000000000E+000	0.0125236
1	1	0	1	0	0	0	3669.11	10	1.25278	9.99957	30.6969	30.6969	0	8.52691	11	0.0107122	0.000000000000000E+000	2.56967e+08	0.000000000000000E+000	0.000000000000000E+000	8.52691	8.52691	0.0000000E+000	0.000000000000000E+000	0.0125273
1	1	0	1	0	0	0	3702.11	10	1.25195	9.99913	31.0268	31.0268	0	8.61857	11	0.010827	0.000000000000000E+000	2.61546e+08	0.000000000000000E+000	0.000000000000000E+000	8.61857	8.61857	0.0000000E+000	0.000000000000000E+000	0.0125185
1	1	0	1	0	0	0	3735.11	10	1.25265	9.99932	31.3568	31.3568	0	8.71023	11	0.0109419	0.000000000000000E+000	2.62793e+08	0.000000000000000E+000	0.000000000000000E+000	8.71023	8.71023	0.0000000E+000	0.000000000000000E+000	0.0125256
1	1	0	1	0	0	0	3768.11	10	1.25275	9.99938	31.6868	31.6868	0	8.80188	11	0.0110567	0.000000000000000E+000	2.65331e+08	0.000000000000000E+000	0.000000000000000E+000	8.80188	8.80188	0.0000000E+000	0.000000000000000E+000	0.0125267
1	1	0	1	0	0	0	3801.11	10	1.2523	9.99926	32.0168	32.0168	0	8.89354	11	0.0111715	0.000000000000000E+000	2.6911e+08	0.000000000000000E+000	0.000000000000000E+000	8.89354	8.89354	0.0000000E+000	0.000000000000000E+000	0.0125221
1	1	0	1	0	0	0	3834.11	10	1.25328	9.99894	32.3467	32.3467	0	8.9852	11	0.0112864	0.000000000000000E+000	2.69667e+08	0.000000000000000E+000	0.000000000000000E+000	8.9852	8.9852	0.0000000E+000	0.000000000000000E+000	0.0125314
1	1	0	1	0	0	0	3867.11	10	1.25285	9.99894	32.6767	32.6767	0	9.07686	11	0.0114012	0.000000000000000E+000	2.73389e+08	0.000000000000000E+000	0.000000000000000E+000	9.07686	9.07686	0.0000000E+000	0.000000000000000E+000	0.0125272
1	1	0	1	0	0	0	3900.11	10	1.25382	9.99868	33.0067	33.0067	0	9.16852	11	0.011516	0.000000000000000E+000	2.73926e+08	0.000000000000000E+000	0.000000000000000E+000	9.16852	9.16852	0.0000000E+000	0.000000000000000E+000	0.0125366
1	1	0	1	0	0	0	3933.11	10	1.25277	9.99926	33.3366	33.3366	0	9.26018	11	0.0116309	0.000000000000000E+000	2.79096e+08	0.000000000000000E+000	0.000000000000000E+000	9.26018	9.26018	0.0000000E+000	0.000000000000000E+000	0.0125268
1	1	0	1	0	0	0	3966.11	10	1.25158	9.99906	33.6666	33.6666	0	9.35184	11	0.0117458	0.000000000000000E+000	2.84698e+08	0.000000000000000E+000	0.000000000000000E+000	9.35184	9.35184	0.0000000E+000	0.000000000000000E+000	0.0125146
1	1	0	1	0	0	0	3999.11	10	1.25282	9.99849	33.9966	33.9966	0	9.4435	11	0.0118606	0.000000000000000E+000	2.84502e+08	0.000000000000000E+000	0.000000000000000E+000	9.4435	9.4435	0.0000000E+000	0.000000000000000E+000	0.0125263
1	1	0	1	0	0	0	4032.11	10	1.25337	9.99919	34.3265	34.3265	0	9.53515	11	0.0119755	0.000000000000000E+000	2.85956e+08	0.000000000000000E+000	0.000000000000000E+000	9.53515	9.53515	0.0000000E+000	0.000000000000000E+000	0.0125327
1	1	0	1	0	0	0	4065.11	10	1.25268	9.99887	34.6565	34.6565	0	9.62681	11	0.0120903	0.000000000000000E+000	2.90378e+08	0.000000000000000E+000	0.000000000000000E+000	9.62681	9.62681	0.0000000E+000	0.000000000000000E+000	0.0125254
1	1	0	1	0	0	0	4098.11	10	1.25256	9.9997	34.9865	34.9865	0	9.71847	11	0.0122052	0.000000000000000E+000	2.9342e+08	0.000000000000000E+000	0.000000000000000E+000	9.71847	9.71847	0.0000000E+000	0.000000000000000E+000	0.0125253
1	1	0	1	0	0	0	4131.11	10	1.25419	9.99906	35.3165	35.3165	0	9.81013	11	0.01232	0.000000000000000E+000	2.92211e+08	0.000000000000000E+000	0.000000000000000E+000	9.81013	9.81013	0.0000000E+000	0.000000000000000E+000	0.0125407
1	1	0	1	0	0	0	4164.11	10	1.25353	9.99913	35.6464	35.6464	0	9.90179	11	0.0124349	0.000000000000000E+000	2.96549e+08	0.000000000000000E+000	0.000000000000000E+000	9.90179	9.90179	0.0000000E+000	0.000000000000000E+000	0.0125342
1	1	0	1	0	0	0	4197.11	10	1.25412	9.99894	35.9764	35.9764	0	9.99345	11	0.0125498	0.000000000000000E+000	2.97824e+08	0.000000000000000E+000	0.000000000000000E+000	9.99345	9.99345	0.0000000E+000	0.000000000000000E+000	0.0125399
1	1	0	1	0	0	0	4230.11	10	1.25394	9.99913	36.3064	36.3064	0	10.0851	11	0.0126647	0.000000000000000E+000	3.01022e+08	0.000000000000000E+000	0.000000000000000E+000	10.0851	10.0851	0.0000000E+000	0.000000000000000E+000	0.0125383
1	1	0	1	0	0	0	4263.11	10	1.25387	9.99913	36.6363	36.6363	0	10.1768	11	0.0127796	0.000000000000000E+000	3.03921e+08	0.000000000000000E+000	0.000000000000000E+000	10.1768	10.1768	0.0000000E+000	0.000000000000000E+000	0.0125376
1	1	0	1	0	0	0	4296.11	10	1.25403	9.99919	36.9663	36.9663	0	10.2684	11	0.0128945	0.000000000000000E+000	3.06264e+08	0.000000000000000E+000	0.000000000000000E+000	10.2684	10.2684	0.0000000E+000	0.000000000000000E+000	0.0125393
1	1	0	1	0	0	0	4329.11	10	1.25436	9.99906	37.2963	37.2963	0	10.3601	11	0.0130095	0.000000000000000E+000	3.0814e+08	0.000000000000000E+000	0.000000000000000E+000	10.3601	10.3601	0.0000000E+000	0.000000000000000E+000	0.0125425
1	1	0	1	0	0	0	4362.11	10	1.25422	9.99894	37.6263	37.6263	0	10.4517	11	0.0131244	0.000000000000000E+000	3.1124e+08	0.000000000000000E+000	0.000000000000000E+000	10.4517	10.4517	0.0000000E+000	0.000000000000000E+000	0.0125408
1	1	0	1	0	0	0	4395.11	10	1.25384	9.9997	37.9562	37.9562	0	10.5434	11	0.0132394	0.000000000000000E+000	3.14965e+08	0.000000000000000E+000	0.000000000000000E+000	10.5434	10.5434	0.0000000E+000	0.000000000000000E+000	0.012538
1	1	0	1	0	0	0	4428.11	10	1.25383	9.9983	38.2862	38.2862	0	10.6351	11	0.0133543	0.000000000000000E+000	3.17705e+08	0.000000000000000E+000	0.000000000000000E+000	10.6351	10.6351	0.0000000E+000	0.000000000000000E+000	0.0125362
1	1	0	1	0	0	0	4461.11	10	1.25354	9.99976	38.6162	38.6162	0	10.7267	11	0.0134692	0.000000000000000E+000	3.21223e+08	0.000000000000000E+000	0.000000000000000E+000	10.7267	10.7267	0.0000000E+000	0.000000000000000E+000	0.0125351
1	1	0	1	0	0	0	4494.11	10	1.25384	9.99906	38.9461	38.9461	0	10.8184	11	0.0135841	0.000000000000000E+000	3.23162e+08	0.000000000000000E+000	0.000000000000000E+000	10.8184	10.8184	0.0000000E+000	0.000000000000000E+000	0.0125372
1	1	0	1	0	0	0	4527.11	10	1.25395	9.99938	39.2761	39.2761	0	10.91	11	0.013699	0.000000000000000E+000	3.25615e+08	0.000000000000000E+000	0.000000000000000E+000	10.91	10.91	0.0000000E+000	0.000000000000000E+000	0.0125387
1	1	0	1	0	0	0	4560.11	10	1.2541	9.99849	39.6061	39.6061	0	11.0017	11	0.013814	0.000000000000000E+000	3.27924e+08	0.000000000000000E+000	0.000000000000000E+000	11.0017	11.0017	0.0000000E+000	0.000000000000000E+000	0.0125392
1	1	0	1	0	0	0	4593.11	10	1.25401	9.99913	39.9361	39.9361	0	11.0933	11	0.0139289	0.000000000000000E+000	3.3091e+08	0.000000000000000E+000	0.000000000000000E+000	11.0933	11.0933	0.0000000E+000	0.000000000000000E+000	0.012539
1	1	0	1	0	0	0	4626.11	10	1.25356	9.99919	40.266	40.266	0	11.185	11	0.0140438	0.000000000000000E+000	3.34893e+08	0.000000000000000E+000	0.000000000000000E+000	11.185	11.185	0.0000000E+000	0.000000000000000E+000	0.0125346
1	1	0	1	0	0	0	4659.11	10	1.25379	9.99894	40.596	40.596	0	11.2767	11	0.0141588	0.000000000000000E+000	3.36987e+08	0.000000000000000E+000	0.000000000000000E+000	11.2767	11.2767	0.0000000E+000	0.000000000000000E+000	0.0125366
1	1	0	1	0	0	0	4692.11	10	1.2532	9.9997	40.926	40.926	0	11.3683	11	0.0142737	0.000000000000000E+000	3.41398e+08	0.000000000000000E+000	0.000000000000000E+000	11.3683	11.3683	0.0000000E+000	0.000000000000000E+000	0.0125317
1	1	0	1	0	0	0	4725.11	10	1.2537	9.99926	41.2559	41.2559	0	11.46	11	0.0143886	0.000000000000000E+000	3.42746e+08	0.000000000000000E+000	0.000000000000000E+000	11.46	11.46	0.0000000E+000	0.000000000000000E+000	0.012536
1	1	0	1	0	0	0	4758.11	10	1.25426	9.99887	41.5859	41.5859	0	11.5516	11	0.0145035	0.000000000000000E+000	3.43872e+08	0.000000000000000E+000	0.000000000000000E+000	11.5516	11.5516	0.0000000E+000	0.000000000000000E+000	0.0125412
1	1	0	1	0	0	0	4791.11	10	1.25395	9.99989	41.9159	41.9159	0	11.6433	11	0.0146184	0.000000000000000E+000	3.47486e+08	0.000000000000000E+000	0.000000000000000E+000	11.6433	11.6433	0.0000000E+000	0.000000000000000E+000	0.0125394
1	1	0	1	0	0	0	4824.11	10	1.25514	9.99938	42.2459	42.2459	0	11.735	11	0.0147334	0.000000000000000E+000	3.46807e+08	0.000000000000000E+000	0.000000000000000E+000	11.735	11.735	0.0000000E+000	0.000000000000000E+000	0.0125506
1	1	0	1	0	0	0	4857.11	10	1.25468	9.99894	42.5758	42.5758	0	11.8266	11	0.0148484	0.000000000000000E+000	3.5084e+08	0.000000000000000E+000	0.000000000000000E+000	11.8266	11.8266	0.0000000E+000	0.000000000000000E+000	0.0125455
1	1	0	1	0	0	0	4890.11	10	1.25397	9.999	42.9058	42.9058	0	11.9183	11	0.0149633	0.000000000000000E+000	3.55639e+08	0.000000000000000E+000	0.000000000000000E+000	11.9183	11.9183	0.0000000E+000	0.000000000000000E+000	0.0125385
1	1	0	1	0	0	0	4923.11	10	1.25379	9.99856	43.2358	43.2358	0	12.0099	11	0.0150783	0.000000000000000E+000	3.589e+08	0.000000000000000E+000	0.000000000000000E+000	12.0099	12.0099	0.0000000E+000	0.000000000000000E+000	0.0125361
1	1	0	1	0	0	0	4956.11	10	1.25342	9.99906	43.5657	43.5657	0	12.1016	11	0.0151932	0.000000000000000E+000	3.62766e+08	0.000000000000000E+000	0.000000000000000E+000	12.1016	12.1016	0.0000000E+000	0.000000000000000E+000	0.012533
1	1	0	1	0	0	0	4989.11	10	1.2543	9.99906	43.8957	43.8957	0	12.1933	11	0.0153082	0.000000000000000E+000	3.62852e+08	0.000000000000000E+000	0.000000000000000E+000	12.1933	12.1933	0.0000000E+000	0.000000000000000E+000	0.0125418
1	1	0	1	0	0	0	5022.11	10	1.25346	10.0001	44.2257	44.2257	0	12.2849	11	0.0154231	0.000000000000000E+000	3.68124e+08	0.000000000000000E+000	0.000000000000000E+000	12.2849	12.2849	0.0000000E+000	0.000000000000000E+000	0.0125348
1	1	0	1	0	0	0	5055.11	10	1.25476	9.99887	44.5557	44.5557	0	12.3766	11	0.015538	0.000000000000000E+000	3.66921e+08	0.000000000000000E+000	0.000000000000000E+000	12.3766	12.3766	0.0000000E+000	0.000000000000000E+000	0.0125462
1	1	0	1	0	0	0	5088.11	10	1.25419	9.99938	44.8856	44.8856	0	12.4682	11	0.015653	0.000000000000000E+000	3.71375e+08	0.000000000000000E+000	0.000000000000000E+000	12.4682	12.4682	0.0000000E+000	0.000000000000000E+000	0.0125411
1	1	0	1	0	0	0	5121.11	10	1.25442	9.99938	45.2156	45.2156	0	12.5599	11	0.015768	0.000000000000000E+000	3.73398e+08	0.000000000000000E+000	0.000000000000000E+000	12.5599	12.5599	0.0000000E+000	0.000000000000000E+000	0.0125434
1	1	0	1	0	0	0	5154.11	10	1.25444	9.99817	45.5456	45.5456	0	12.6515	11	0.015883	0.000000000000000E+000	3.76064e+08	0.000000000000000E+000	0.000000000000000E+000	12.6515	12.6515	0.0000000E+000	0.000000000000000E+000	0.0125421
1	1	0	1	0	0	0	5187.11	10	1.25428	9.99926	45.8755	45.8755	0	12.7432	11	0.015998	0.000000000000000E+000	3.79296e+08	0.000000000000000E+000	0.000000000000000E+000	12.7432	12.7432	0.0000000E+000	0.000000000000000E+000	0.0125418
1	1	0	1	0	0	0	5220.11	10	1.25434	9.99945	46.2055	46.2055	0	12.8349	11	0.0161129	0.000000000000000E+000	3.81833e+08	0.000000000000000E+000	0.000000000000000E+000	12.8349	12.8349	0.0000000E+000	0.000000000000000E+000	0.0125427
1	1	0	1	0	0	0	5253.11	10	1.25426	9.99919	46.5355	46.5355	0	12.9265	11	0.0162279	0.000000000000000E+000	3.84797e+08	0.000000000000000E+000	0.000000000000000E+000	12.9265	12.9265	0.0000000E+000	0.000000000000000E+000	0.0125416
1	1	0	1	0	0	0	5286.11	10	1.25341	9.99894	46.8654	46.8654	0	13.0182	11	0.0163428	0.000000000000000E+000	3.90271e+08	0.000000000000000E+000	0.000000000000000E+000	13.0182	13.0182	0.0000000E+000	0.000000000000000E+000	0.0125328
1	1	0	1	0	0	0	5319.11	10	1.25405	9.99849	47.1954	47.1954	0	13.1098	11	0.0164577	0.000000000000000E+000	3.90949e+08	0.000000000000000E+000	0.000000000000000E+000	13.1098	13.1098	0.0000000E+000	0.000000000000000E+000	0.0125386
1	1	0	1	0	0	0	5352.11	10	1.25487	9.99862	47.5254	47.5254	0	13.2015	11	0.0165727	0.000000000000000E+000	3.91026e+08	0.000000000000000E+000	0.000000000000000E+000	13.2015	13.2015	0.0000000E+000	0.000000000000000E+000	0.0125469
1	1	0	1	0	0	0	5385.11	10	1.2543	9.99932	47.8554	47.8554	0	13.2932	11	0.0166876	0.000000000000000E+000	3.9559e+08	0.000000000000000E+000	0.000000000000000E+000	13.2932	13.2932	0.0000000E+000	0.000000000000000E+000	0.0125421
1	1	0	1	0	0	0	5418.11	10	1.25451	9.99919	48.1853	48.1853	0	13.3848	11	0.0168026	0.000000000000000E+000	3.97618e+08	0.000000000000000E+000	0.000000000000000E+000	13.3848	13.3848	0.0000000E+000	0.000000000000000E+000	0.0125441
1	1	0	1	0	0	0	5451.11	10	1.25498	9.99957	48.5153	48.5153	0	13.4765	11	0.0169176	0.000000000000000E+000	3.98804e+08	0.000000000000000E+000	0.000000000000000E+000	13.4765	13.4765	0.0000000E+000	0.000000000000000E+000	0.0125492
1	1	0	1	0	0	0	5484.11	10	1.25437	9.99938	48.8453	48.8453	0	13.5681	11	0.0170326	0.000000000000000E+000	4.03533e+08	0.000000000000000E+000	0.000000000000000E+000	13.5681	13.5681	0.0000000E+000	0.000000000000000E+000	0.0125429
1	1	0	1	0	0	0	5517.11	10	1.25456	9.99894	49.1752	49.1752	0	13.6598	11	0.0171476	0.000000000000000E+000	4.05628e+08	0.000000000000000E+000	0.000000000000000E+000	13.6598	13.6598	0.0000000E+000	0.000000000000000E+000	0.0125443
1	1	0	1	0	0	0	5550.11	10	1.255	9.99926	49.5052	49.5052	0	13.7514	11	0.0172626	0.000000000000000E+000	4.06859e+08	0.000000000000000E+000	0.000000000000000E+000	13.7514	13.7514	0.0000000E+000	0.000000000000000E+000	0.0125491
1	1	0	1	0	0	0	5583.11	10	1.25379	9.99881	49.8352	49.8352	0	13.8431	11	0.0173776	0.000000000000000E+000	4.13704e+08	0.000000000000000E+000	0.000000000000000E+000	13.8431	13.8431	0.0000000E+000	0.000000000000000E+000	0.0125364
1	1	0	1	0	0	0	5616.11	10	1.25488	9.99906	50.1651	50.1651	0	13.9348	11	0.0174926	0.000000000000000E+000	4.12713e+08	0.000000000000000E+000	0.000000000000000E+000	13.9348	13.9348	0.0000000E+000	0.000000000000000E+000	0.0125476
1	1	0	1	0	0	0	5649.11	10	1.25487	9.99932	50.4951	50.4951	0	14.0264	11	0.0176076	0.000000000000000E+000	4.15453e+08	0.000000000000000E+000	0.000000000000000E+000	14.0264	14.0264	0.0000000E+000	0.000000000000000E+000	0.0125478
1	1	0	1	0	0	0	5682.11	10	1.25443	9.99906	50.8251	50.8251	0	14.1181	11	0.0177226	0.000000000000000E+000	4.19677e+08	0.000000000000000E+000	0.000000000000000E+000	14.1181	14.1181	0.0000000E+000	0.000000000000000E+000	0.0125431
1	1	0	1	0	0	0	5715.11	10	1.25453	9.999	51.1551	51.1551	0	14.2097	11	0.0178376	0.000000000000000E+000	4.22046e+08	0.000000000000000E+000	0.000000000000000E+000	14.2097	14.2097	0.0000000E+000	0.000000000000000E+000	0.0125441
1	1	0	1	0	0	0	5748.11	10	1.25534	9.99906	51.485	51.485	0	14.3014	11	0.0179527	0.000000000000000E+000	4.21953e+08	0.000000000000000E+000	0.000000000000000E+000	14.3014	14.3014	0.0000000E+000	0.000000000000000E+000	0.0125522
1	1	0	1	0	0	0	5781.11	10	1.25605	9.99875	51.815	51.815	0	14.3931	11	0.0180677	0.000000000000000E+000	4.22217e+08	0.000000000000000E+000	0.000000000000000E+000	14.3931	14.3931	0.0000000E+000	0.000000000000000E+000	0.0125589
1	1	0	1	0	0	0	5814.11	10	1.25528	9.99926	52.145	52.145	0	14.4847	11	0.0181828	0.000000000000000E+000	4.27575e+08	0.000000000000000E+000	0.000000000000000E+000	14.4847	14.4847	0.0000000E+000	0.000000000000000E+000	0.0125519
1	1	0	1	0	0	0	5847.11	10	1.256	10.0003	52.475	52.475	0	14.5764	11	0.0182979	0.000000000000000E+000	4.27768e+08	0.000000000000000E+000	0.000000000000000E+000	14.5764	14.5764	0.0000000E+000	0.000000000000000E+000	0.0125603
1	1	0	1	0	0	0	5880.11	10	1.25578	9.99913	52.8049	52.8049	0	14.668	11	0.018413	0.000000000000000E+000	4.31241e+08	0.000000000000000E+000	0.000000000000000E+000	14.668	14.668	0.0000000E+000	0.000000000000000E+000	0.0125567
1	1	0	1	0	0	0	5913.11	10	1.25533	9.999	53.1349	53.1349	0	14.7597	11	0.018528	0.000000000000000E+000	4.35518e+08	0.000000000000000E+000	0.000000000000000E+000	14.7597	14.7597	0.0000000E+000	0.000000000000000E+000	0.012552
1	1	0	1	0	0	0	5946.11	10	1.25594	9.99996	53.4649	53.4649	0	14.8514	11	0.0186431	0.000000000000000E+000	4.36053e+08	0.000000000000000E+000	0.000000000000000E+000	14.8514	14.8514	0.0000000E+000	0.000000000000000E+000	0.0125593
1	1	0	1	0	0	0	5979.11	10	1.25566	9.999	53.7948	53.7948	0	14.943	11	0.0187581	0.000000000000000E+000	4.39749e+08	0.000000000000000E+000	0.000000000000000E+000	14.943	14.943	0.0000000E+000	0.000000000000000E+000	0.0125553
1	1	0	1	0	0	0	6012.11	10	1.25431	9.99887	54.1248	54.1248	0	15.0347	11	0.0188732	0.000000000000000E+000	4.4737e+08	0.000000000000000E+000	0.000000000000000E+000	15.0347	15.0347	0.0000000E+000	0.000000000000000E+000	0.0125417
1	1	0	1	0	0	0	6045.11	10	1.25512	9.99938	54.4548	54.4548	0	15.1263	11	0.0189882	0.000000000000000E+000	4.47117e+08	0.000000000000000E+000	0.000000000000000E+000	15.1263	15.1263	0.0000000E+000	0.000000000000000E+000	0.0125504
1	1	0	1	0	0	0	6078.11	10	1.25492	9.99951	54.7848	54.7848	0	15.218	11	0.0191033	0.000000000000000E+000	4.50558e+08	0.000000000000000E+000	0.000000000000000E+000	15.218	15.218	0.0000000E+000	0.000000000000000E+000	0.0125486
1	1	0	1	0	0	0	6111.11	10	1.25507	9.99849	55.1147	55.1147	0	15.3096	11	0.0192184	0.000000000000000E+000	4.52696e+08	0.000000000000000E+000	0.000000000000000E+000	15.3096	15.3096	0.0000000E+000	0.000000000000000E+000	0.0125488
1	1	0	1	0	0	0	6144.11	10	1.25523	9.99836	55.4447	55.4447	0	15.4013	11	0.0193334	0.000000000000000E+000	4.54818e+08	0.000000000000000E+000	0.000000000000000E+000	15.4013	15.4013	0.0000000E+000	0.000000000000000E+000	0.0125503
1	1	0	1	0	0	0	6177.11	10	1.25449	9.99906	55.7747	55.7747	0	15.493	11	0.0194485	0.000000000000000E+000	4.60308e+08	0.000000000000000E+000	0.000000000000000E+000	15.493	15.493	0.0000000E+000	0.000000000000000E+000	0.0125438
1	1	0	1	0	0	0	6210.11	10	1.2554	9.99887	56.1047	56.1047	0	15.5846	11	0.0195635	0.000000000000000E+000	4.59594e+08	0.000000000000000E+000	0.000000000000000E+000	15.5846	15.5846	0.0000000E+000	0.000000000000000E+000	0.0125526
1	1	0	1	0	0	0	6243.11	10	1.25506	9.99957	56.4346	56.4346	0	15.6763	11	0.0196786	0.000000000000000E+000	4.63584e+08	0.000000000000000E+000	0.000000000000000E+000	15.6763	15.6763	0.0000000E+000	0.000000000000000E+000	0.0125501
1	1	0	1	0	0	0	6276.11	10	1.2544	9.99843	56.7646	56.7646	0	15.7679	11	0.0197936	0.000000000000000E+000	4.68841e+08	0.000000000000000E+000	0.000000000000000E+000	15.7679	15.7679	0.0000000E+000	0.000000000000000E+000	0.012542
1	1	0	1	0	0	0	6309.11	10	1.25546	9.99913	57.0946	57.0946	0	15.8596	11	0.0199087	0.000000000000000E+000	4.67467e+08	0.000000000000000E+000	0.000000000000000E+000	15.8596	15.8596	0.0000000E+000	0.000000000000000E+000	0.0125535
1	1	0	1	0	0	0	6342.11	10	1.25539	9.99951	57.4246	57.4246	0	15.9513	11	0.0200238	0.000000000000000E+000	4.70466e+08	0.000000000000000E+000	0.000000000000000E+000	15.9513	15.9513	0.0000000E+000	0.000000000000000E+000	0.0125532
1	1	0	1	0	0	0	6375.11	10	1.25573	9.99938	57.7545	57.7545	0	16.0429	11	0.0201389	0.000000000000000E+000	4.71847e+08	0.000000000000000E+000	0.000000000000000E+000	16.0429	16.0429	0.0000000E+000	0.000000000000000E+000	0.0125565
1	1	0	1	0	0	0	6408.11	10	1.25622	9.99976	58.0845	58.0845	0	16.1346	11	0.020254	0.000000000000000E+000	4.72645e+08	0.000000000000000E+000	0.000000000000000E+000	16.1346	16.1346	0.0000000E+000	0.000000000000000E+000	0.0125619
1	1	0	1	0	0	0	6441.11	10	1.25518	9.99926	58.4145	58.4145	0	16.2262	11	0.0203691	0.000000000000000E+000	4.79381e+08	0.000000000000000E+000	0.000000000000000E+000	16.2262	16.2262	0.0000000E+000	0.000000000000000E+000	0.0125509
1	1	0	1	0	0	0	6474.11	10	1.25516	9.99906	58.7444	58.7444	0	16.3179	11	0.0204841	0.000000000000000E+000	4.82166e+08	0.000000000000000E+000	0.000000000000000E+000	16.3179	16.3179	0.0000000E+000	0.000000000000000E+000	0.0125504
1	1	0	1	0	0	0	6507.11	10	1.25469	9.99881	59.0744	59.0744	0	16.4096	11	0.0205992	0.000000000000000E+000	4.86741e+08	0.000000000000000E+000	0.000000000000000E+000	16.4096	16.4096	0.0000000E+000	0.000000000000000E+000	0.0125454
1	1	0	1	0	0	0	6540.11	10	1.25522	9.99951	59.4044	59.4044	0	16.5012	11	0.0207142	0.000000000000000E+000	4.87357e+08	0.000000000000000E+000	0.000000000000000E+000	16.5012	16.5012	0.0000000E+000	0.000000000000000E+000	0.0125516
1	1	0	1	0	0	0	6573.11	10	1.25564	9.99906	59.7343	59.7343	0	16.5929	11	0.0208293	0.000000000000000E+000	4.88376e+08	0.000000000000000E+000	0.000000000000000E+000	16.5929	16.5929	0.0000000E+000	0.000000000000000E+000	0.0125552
1	1	0	1	0	0	0	6606.11	10	1.25526	9.99875	60.0643	60.0643	0	16.6845	11	0.0209444	0.000000000000000E+000	4.92579e+08	0.000000000000000E+000	0.000000000000000E+000	16.6845	16.6845	0.0000000E+000	0.000000000000000E+000	0.0125511
1	1	0	1	0	0	0	6639.11	10	1.25567	9.99843	60.3943	60.3943	0	16.7762	11	0.0210594	0.000000000000000E+000	4.93644e+08	0.000000000000000E+000	0.000000000000000E+000	16.7762	16.7762	0.0000000E+000	0.000000000000000E+000	0.0125547
1	1	0	1	0	0	0	6672.11	10	1.25546	9.999	60.7242	60.7242	0	16.8678	11	0.0211745	0.000000000000000E+000	4.97183e+08	0.000000000000000E+000	0.000000000000000E+000	16.8678	16.8678	0.0000000E+000	0.000000000000000E+000	0.0125534
1	1	0	1	0	0	0	6705.11	10	1.25549	9.99964	61.0542	61.0542	0	16.9595	11	0.0212896	0.000000000000000E+000	4.99755e+08	0.000000000000000E+000	0.000000000000000E+000	16.9595	16.9595	0.0000000E+000	0.000000000000000E+000	0.0125545
1	1	0	1	0	0	0	6738.11	10	1.2558	9.99938	61.3842	61.3842	0	17.0512	11	0.0214047	0.000000000000000E+000	5.01206e+08	0.000000000000000E+000	0.000000000000000E+000	17.0512	17.0512	0.0000000E+000	0.000000000000000E+000	0.0125572
1	1	0	1	0	0	0	6771.11	10	1.25631	9.99926	61.7142	61.7142	0	17.1428	11	0.0215198	0.000000000000000E+000	5.01791e+08	0.000000000000000E+000	0.000000000000000E+000	17.1428	17.1428	0.0000000E+000	0.000000000000000E+000	0.0125622
1	1	0	1	0	0	0	6804.11	10	1.25516	9.9997	62.0441	62.0441	0	17.2345	11	0.0216349	0.000000000000000E+000	5.09236e+08	0.000000000000000E+000	0.000000000000000E+000	17.2345	17.2345	0.0000000E+000	0.000000000000000E+000	0.0125513
1	1	0	1	0	0	0	6837.11	10	1.25547	9.99875	62.3741	62.3741	0	17.3261	11	0.02175	0.000000000000000E+000	5.10659e+08	0.000000000000000E+000	0.000000000000000E+000	17.3261	17.3261	0.0000000E+000	0.000000000000000E+000	0.0125531
1	1	0	1	0	0	0	6870.11	10	1.25554	9.99849	62.7041	62.7041	0	17.4178	11	0.0218651	0.000000000000000E+000	5.13071e+08	0.000000000000000E+000	0.000000000000000E+000	17.4178	17.4178	0.0000000E+000	0.000000000000000E+000	0.0125535
1	1	0	1	0	0	0	6903.11	10	1.25558	9.99862	63.034	63.034	0	17.5095	11	0.0219802	0.000000000000000E+000	5.156e+08	0.000000000000000E+000	0.000000000000000E+000	17.5095	17.5095	0.0000000E+000	0.000000000000000E+000	0.0125541
1	1	0	1	0	0	0	6936.11	10	1.25637	9.99926	63.364	63.364	0	17.6011	11	0.0220953	0.000000000000000E+000	5.14961e+08	0.000000000000000E+000	0.000000000000000E+000	17.6011	17.6011	0.0000000E+000	0.000000000000000E+000	0.0125628
1	1	0	1	0	0	0	6969.11	10	1.25556	9.99983	63.694	63.694	0	17.6928	11	0.0222105	0.000000000000000E+000	5.2109e+08	0.000000000000000E+000	0.000000000000000E+000	17.6928	17.6928	0.0000000E+000	0.000000000000000E+000	0.0125554
1	1	0	1	0	0	0	7002.11	10	1.25672	9.99836	64.024	64.024	0	17.7844	11	0.0223256	0.000000000000000E+000	5.1887e+08	0.000000000000000E+000	0.000000000000000E+000	17.7844	17.7844	0.0000000E+000	0.000000000000000E+000	0.0125651
1	1	0	1	0	0	0	7035.11	10	1.25559	9.99938	64.3539	64.3539	0	17.8761	11	0.0224407	0.000000000000000E+000	5.26364e+08	0.000000000000000E+000	0.000000000000000E+000	17.8761	17.8761	0.0000000E+000	0.000000000000000E+000	0.0125551
1	1	0	1	0	0	0	7068.11	10	1.25786	9.99868	64.6839	64.6839	0	17.9677	11	0.0225559	0.000000000000000E+000	5.19403e+08	0.000000000000000E+000	0.000000000000000E+000	17.9677	17.9677	0.0000000E+000	0.000000000000000E+000	0.012577
1	1	0	1	0	0	0	7101.11	10	1.25592	9.99862	65.0139	65.0139	0	18.0594	11	0.022671	0.000000000000000E+000	5.30326e+08	0.000000000000000E+000	0.000000000000000E+000	18.0594	18.0594	0.0000000E+000	0.000000000000000E+000	0.0125575
1	1	0	1	0	0	0	7134.11	10	1.25726	10.0002	65.3438	65.3438	0	18.1511	11	0.0227863	0.000000000000000E+000	5.27263e+08	0.000000000000000E+000	0.000000000000000E+000	18.1511	18.1511	0.0000000E+000	0.000000000000000E+000	0.0125728
1	1	0	1	0	0	0	7167.11	10	1.25636	9.99938	65.6738	65.6738	0	18.2427	11	0.0229015	0.000000000000000E+000	5.33771e+08	0.000000000000000E+000	0.000000000000000E+000	18.2427	18.2427	0.0000000E+000	0.000000000000000E+000	0.0125629
1	1	0	1	0	0	0	7200.11	10	1.25667	9.99906	66.0038	66.0038	0	18.3344	11	0.0230166	0.000000000000000E+000	5.3513e+08	0.000000000000000E+000	0.000000000000000E+000	18.3344	18.3344	0.0000000E+000	0.000000000000000E+000	0.0125655
1	1	0	1	0	0	0	7233.11	10	1.25648	9.99849	66.3337	66.3337	0	18.426	11	0.0231318	0.000000000000000E+000	5.38611e+08	0.000000000000000E+000	0.000000000000000E+000	18.426	18.426	0.0000000E+000	0.000000000000000E+000	0.0125629
1	1	0	1	0	0	0	7266.11	10	1.25777	9.99875	66.6637	66.6637	0	18.5177	11	0.023247	0.000000000000000E+000	5.35696e+08	0.000000000000000E+000	0.000000000000000E+000	18.5177	18.5177	0.0000000E+000	0.000000000000000E+000	0.0125761
1	1	0	1	0	0	0	7299.11	10	1.25701	9.99887	66.9937	66.9937	0	18.6094	11	0.0233623	0.000000000000000E+000	5.41637e+08	0.000000000000000E+000	0.000000000000000E+000	18.6094	18.6094	0.0000000E+000	0.000000000000000E+000	0.0125687
1	1	0	1	0	0	0	7332.11	10	1.25677	9.99913	67.3237	67.3237	0	18.701	11	0.0234775	0.000000000000000E+000	5.45365e+08	0.000000000000000E+000	0.000000000000000E+000	18.701	18.701	0.0000000E+000	0.000000000000000E+000	0.0125666
1	1	0	1	0	0	0	7365.11	10	1.25615	9.99926	67.6536	67.6536	0	18.7927	11	0.0235927	0.000000000000000E+000	5.50828e+08	0.000000000000000E+000	0.000000000000000E+000	18.7927	18.7927	0.0000000E+000	0.000000000000000E+000	0.0125605
1	1	0	1	0	0	0	7398.11	10	1.25663	9.99843	67.9836	67.9836	0	18.8843	11	0.0237079	0.000000000000000E+000	5.5134e+08	0.000000000000000E+000	0.000000000000000E+000	18.8843	18.8843	0.0000000E+000	0.000000000000000E+000	0.0125643
1	1	0	1	0	0	0	7431.11	10	1.25743	9.99938	68.3136	68.3136	0	18.976	11	0.0238231	0.000000000000000E+000	5.50438e+08	0.000000000000000E+000	0.000000000000000E+000	18.976	18.976	0.0000000E+000	0.000000000000000E+000	0.0125736
1	1	0	1	0	0	0	7464.11	10	1.25761	9.99887	68.6435	68.6435	0	19.0677	11	0.0239384	0.000000000000000E+000	5.52328e+08	0.000000000000000E+000	0.000000000000000E+000	19.0677	19.0677	0.0000000E+000	0.000000000000000E+000	0.0125747
1	1	0	1	0	0	0	7497.11	10	1.2577	9.9997	68.9735	68.9735	0	19.1593	11	0.0240536	0.000000000000000E+000	5.54554e+08	0.000000000000000E+000	0.000000000000000E+000	19.1593	19.1593	0.0000000E+000	0.000000000000000E+000	0.0125767
1	1	0	1	0	0	0	7530.11	10	1.25735	9.99868	69.3035	69.3035	0	19.251	11	0.0241688	0.000000000000000E+000	5.58778e+08	0.000000000000000E+000	0.000000000000000E+000	19.251	19.251	0.0000000E+000	0.000000000000000E+000	0.0125719
1	1	0	1	0	0	0	7563.11	10	1.25686	9.99798	69.6335	69.6335	0	19.3426	11	0.0242841	0.000000000000000E+000	5.63682e+08	0.000000000000000E+000	0.000000000000000E+000	19.3426	19.3426	0.0000000E+000	0.000000000000000E+000	0.0125661
1	1	0	1	0	0	0	7596.11	10	1.25696	9.99875	69.9634	69.9634	0	19.4343	11	0.0243993	0.000000000000000E+000	5.65888e+08	0.000000000000000E+000	0.000000000000000E+000	19.4343	19.4343	0.0000000E+000	0.000000000000000E+000	0.012568
1	1	0	1	0	0	0	7629.11	10	1.25792	9.99976	70.2934	70.2934	0	19.5259	11	0.0245146	0.000000000000000E+000	5.64166e+08	0.000000000000000E+000	0.000000000000000E+000	19.5259	19.5259	0.0000000E+000	0.000000000000000E+000	0.0125789
1	1	0	1	0	0	0	7662.11	10	1.25847	9.99881	70.6234	70.6234	0	19.6176	11	0.0246299	0.000000000000000E+000	5.64356e+08	0.000000000000000E+000	0.000000000000000E+000	19.6176	19.6176	0.0000000E+000	0.000000000000000E+000	0.0125832
1	1	0	1	0	0	0	7695.11	10	1.25752	9.99887	70.9533	70.9533	0	19.7093	11	0.0247451	0.000000000000000E+000	5.71292e+08	0.000000000000000E+000	0.000000000000000E+000	19.7093	19.7093	0.0000000E+000	0.000000000000000E+000	0.0125738
1	1	0	1	0	0	0	7728.11	10	1.25663	9.99906	71.2833	71.2833	0	19.8009	11	0.0248604	0.000000000000000E+000	5.78105e+08	0.000000000000000E+000	0.000000000000000E+000	19.8009	19.8009	0.0000000E+000	0.000000000000000E+000	0.0125651
1	1	0	1	0	0	0	7761.11	10	1.25716	9.99881	71.6133	71.6133	0	19.8926	11	0.0249756	0.000000000000000E+000	5.78317e+08	0.000000000000000E+000	0.000000000000000E+000	19.8926	19.8926	0.0000000E+000	0.000000000000000E+000	0.0125701
1	1	0	1	0	0	0	7794.11	10	1.25732	9.99926	71.9432	71.9432	0	19.9842	11	0.0250909	0.000000000000000E+000	5.80203e+08	0.000000000000000E+000	0.000000000000000E+000	19.9842	19.9842	0.0000000E+000	0.000000000000000E+000	0.0125723
1	1	0	1	0	0	0	7799.16	10	1.25679	9.9997	71.9938	71.9938	0	19.9983	11	0.0251085	0.000000000000000E+000	5.83107e+08	0.000000000000000E+000	0.000000000000000E+000	19.9983	19.9983	0.0000000E+000	0.000000000000000E+000	0.0125675