File: Data/2025-02-10 exp 3 potential step 0,1 V_C05.mpt
EC-Lab ASCII FILE
Nb header lines : 62

Chronoamperometry / Chronocoulometry

Run on channel : 5 (SN 39658)
User :
CE vs. WE compliance from -10 V to 10 V
Electrode connection : standard
Potential control : Ewe
Ewe ctrl range : min = -2.50 V, max = 2.50 V
Safety Limits :
	Do not start on E overload
Acquisition started on : 02/10/2025 12:43:52.323
Loaded Setting File :  NONE
Saved on :
	File : 2025-02-10 exp2 potential step 0,1 V_C05.mpr
	Directory : C:\Users\thefo\OneDrive\Documents\EC-Lab\Data\CHEM 451\
	Host : 172.24.113.132
Device : VSP (SN 1910)
Address : USB
EC-Lab for windows v11.46 (software)
Internet server v11.40 (firmware)
Command interpretor v11.40 (firmware)
Electrode material :
Initial state :
Electrolyte :
Comments :
Current amplifier : VSPB-4A
Electrode surface area : 0.001 cm²
Characteristic mass : 0.001 g
Equivalent Weight : 0.000 g/eq.
Density : 0.000 g/cm3
Volume (V) : 0.001 cm³
Cycle Definition : Charge/Discharge alternance
Ei (V)              0.100
vs.                 Ref
ti (h:m:s)          0:00:30.0000
Imax                pass
unit Imax           mA
Imin                pass
unit Imin           mA
dQM                 0.000
unit dQM            mA.h
record              <I>
dI                  5.000
unit dI             µA
dQ                  0.000
unit dQ             mA.h
dt (s)              0.1000
dta (s)             0.1000
E range min (V)     -2.500
E range max (V)     2.500
I Range             Auto
I Range min         Unset
I Range max         Unset
I Range init        Unset
Bandwidth           4
goto Ns'            0
nc cycles           0

mode	ox/red	error	control changes	Ns changes	counter inc.	Ns	time/s	control/V	Ewe/V	<I>/mA	dQ/C	(Q-Qo)/C	I Range	Q charge/discharge/mA.h	half cycle	Energy charge/W.h	Energy discharge/W.h	Capacitance charge/µF	Capacitance discharge/µF	Q discharge/mA.h	Q charge/mA.h	Capacity/mA.h	Efficiency/%	cycle number	P/W
2	0	0	0	0	0	0	0.1	0.100017	0.100217	-0.0778911	-7.20025e-06	-7.20025e-06	12	-2.00007e-06	0	0.000000000000000E+000	2.00442e-10	0.000000000000000E+000	0.000000000000000E+000	2.00007e-06	0.000000000000000E+000	2.00007e-06	0.0000000E+000	0.000000000000000E+000	-7.80604e-06
2	0	0	0	0	0	0	0.3	0.100017	0.100217	-0.0406088	-1.74664e-05	-1.74664e-05	13	-4.85178e-06	0	0.000000000000000E+000	4.86202e-10	0.000000000000000E+000	0.000000000000000E+000	4.85178e-06	0.000000000000000E+000	4.85178e-06	0.0000000E+000	0.000000000000000E+000	-4.0697e-06
2	0	0	0	0	0	0	0.5	0.100017	0.100275	-0.0328755	-2.44938e-05	-2.44938e-05	13	-6.80382e-06	0	0.000000000000000E+000	6.81903e-10	0.000000000000000E+000	427503	6.80382e-06	0.000000000000000E+000	6.80382e-06	0.0000000E+000	0.000000000000000E+000	-3.29658e-06
2	0	0	0	0	0	0	0.7	0.100017	0.100275	-0.0271402	-3.01704e-05	-3.01704e-05	13	-8.38066e-06	0	0.000000000000000E+000	8.39988e-10	0.000000000000000E+000	526580	8.38066e-06	0.000000000000000E+000	8.38066e-06	0.0000000E+000	0.000000000000000E+000	-2.72148e-06
2	0	0	0	0	0	0	0.9	0.100017	0.100122	-0.0235379	-3.50404e-05	-3.50404e-05	13	-9.73343e-06	0	0.000000000000000E+000	9.75484e-10	0.000000000000000E+000	366995	9.73343e-06	0.000000000000000E+000	9.73343e-06	0.0000000E+000	0.000000000000000E+000	-2.35666e-06
2	0	0	0	0	0	0	1.1	0.100017	0.100141	-0.0210194	-3.93601e-05	-3.93601e-05	13	-1.09334e-05	0	0.000000000000000E+000	1.09567e-09	0.000000000000000E+000	515297	1.09334e-05	0.000000000000000E+000	1.09334e-05	0.0000000E+000	0.000000000000000E+000	-2.1049e-06
2	0	0	0	0	0	0	1.3	0.100017	0.100236	-0.019135	-4.32754e-05	-4.32754e-05	13	-1.20209e-05	0	0.000000000000000E+000	1.20471e-09	0.000000000000000E+000	2.26622e+06	1.20209e-05	0.000000000000000E+000	1.20209e-05	0.0000000E+000	0.000000000000000E+000	-1.91803e-06
2	0	0	0	0	0	0	1.5	0.100017	0.100141	-0.017663	-4.68775e-05	-4.68775e-05	13	-1.30215e-05	0	0.000000000000000E+000	1.30496e-09	0.000000000000000E+000	613714	1.30215e-05	0.000000000000000E+000	1.30215e-05	0.0000000E+000	0.000000000000000E+000	-1.76879e-06
2	0	0	0	0	0	0	1.7	0.100017	0.100084	-0.0164815	-5.02299e-05	-5.02299e-05	13	-1.39528e-05	0	0.000000000000000E+000	1.3982e-09	0.000000000000000E+000	375773	1.39528e-05	0.000000000000000E+000	1.39528e-05	0.0000000E+000	0.000000000000000E+000	-1.64953e-06
2	0	0	0	0	0	0	1.9	0.100017	0.100236	-0.0155034	-5.33774e-05	-5.33774e-05	13	-1.4827e-05	0	0.000000000000000E+000	1.48581e-09	0.000000000000000E+000	2.79524e+06	1.4827e-05	0.000000000000000E+000	1.4827e-05	0.0000000E+000	0.000000000000000E+000	-1.55401e-06
2	0	0	0	0	0	0	2.1	0.100017	0.10016	-0.01468	-5.63531e-05	-5.63531e-05	13	-1.56536e-05	0	0.000000000000000E+000	1.56864e-09	0.000000000000000E+000	983689	1.56536e-05	0.000000000000000E+000	1.56536e-05	0.0000000E+000	0.000000000000000E+000	-1.47035e-06
2	0	0	0	0	0	0	2.3	0.100017	0.100275	-0.0139715	-5.91816e-05	-5.91816e-05	13	-1.64393e-05	0	0.000000000000000E+000	1.64739e-09	0.000000000000000E+000	1.03293e+06	1.64393e-05	0.000000000000000E+000	1.64393e-05	0.0000000E+000	0.000000000000000E+000	-1.40099e-06
2	0	0	0	0	0	0	2.5	0.100017	0.100122	-0.0133603	-6.18833e-05	-6.18833e-05	13	-1.71898e-05	0	0.000000000000000E+000	1.72254e-09	0.000000000000000E+000	648134	1.71898e-05	0.000000000000000E+000	1.71898e-05	0.0000000E+000	0.000000000000000E+000	-1.33766e-06
2	0	0	0	0	0	0	2.7	0.100017	0.100122	-0.0128267	-6.44745e-05	-6.44745e-05	13	-1.79096e-05	0	0.000000000000000E+000	1.79466e-09	0.000000000000000E+000	675272	1.79096e-05	0.000000000000000E+000	1.79096e-05	0.0000000E+000	0.000000000000000E+000	-1.28423e-06
2	0	0	0	0	0	0	2.9	0.100017	0.100103	-0.0123549	-6.69684e-05	-6.69684e-05	13	-1.86023e-05	0	0.000000000000000E+000	1.86401e-09	0.000000000000000E+000	584494	1.86023e-05	0.000000000000000E+000	1.86023e-05	0.0000000E+000	0.000000000000000E+000	-1.23676e-06
2	0	0	0	0	0	0	3.1	0.100017	0.100217	-0.011933	-6.93756e-05	-6.93756e-05	13	-1.9271e-05	0	0.000000000000000E+000	1.93103e-09	0.000000000000000E+000	0.000000000000000E+000	1.9271e-05	0.000000000000000E+000	1.9271e-05	0.0000000E+000	0.000000000000000E+000	-1.1959e-06
2	0	0	0	0	0	0	3.3	0.100017	0.100217	-0.0115541	-7.17049e-05	-7.17049e-05	13	-1.9918e-05	0	0.000000000000000E+000	1.99587e-09	0.000000000000000E+000	0.000000000000000E+000	1.9918e-05	0.000000000000000E+000	1.9918e-05	0.0000000E+000	0.000000000000000E+000	-1.15792e-06
2	0	0	0	0	0	0	3.5	0.100017	0.100294	-0.0112109	-7.39638e-05	-7.39638e-05	13	-2.05455e-05	0	0.000000000000000E+000	2.0588e-09	0.000000000000000E+000	968230	2.05455e-05	0.000000000000000E+000	2.05455e-05	0.0000000E+000	0.000000000000000E+000	-1.12438e-06
2	0	0	0	0	0	0	3.7	0.100017	0.100236	-0.010908	-7.61597e-05	-7.61597e-05	13	-2.11555e-05	0	0.000000000000000E+000	2.11995e-09	0.000000000000000E+000	3.98829e+06	2.11555e-05	0.000000000000000E+000	2.11555e-05	0.0000000E+000	0.000000000000000E+000	-1.09338e-06
2	0	0	0	0	0	0	3.9	0.100017	0.100236	-0.0106175	-7.82975e-05	-7.82975e-05	13	-2.17493e-05	0	0.000000000000000E+000	2.17945e-09	0.000000000000000E+000	4.10024e+06	2.17493e-05	0.000000000000000E+000	2.17493e-05	0.0000000E+000	0.000000000000000E+000	-1.06426e-06
2	0	0	0	0	0	0	4.1	0.100017	0.100294	-0.0103527	-8.03809e-05	-8.03809e-05	13	-2.2328e-05	0	0.000000000000000E+000	2.23747e-09	0.000000000000000E+000	1.05223e+06	2.2328e-05	0.000000000000000E+000	2.2328e-05	0.0000000E+000	0.000000000000000E+000	-1.03831e-06
2	0	0	0	0	0	0	4.3	0.100017	0.100198	-0.0101095	-8.24148e-05	-8.24148e-05	13	-2.2893e-05	0	0.000000000000000E+000	2.2941e-09	0.000000000000000E+000	4.31585e+06	2.2893e-05	0.000000000000000E+000	2.2893e-05	0.0000000E+000	0.000000000000000E+000	-1.01295e-06
2	0	0	0	0	0	0	4.5	0.100017	0.100179	-0.00988443	-8.44026e-05	-8.44026e-05	13	-2.34452e-05	0	0.000000000000000E+000	2.34942e-09	0.000000000000000E+000	2.20997e+06	2.34452e-05	0.000000000000000E+000	2.34452e-05	0.0000000E+000	0.000000000000000E+000	-9.90215e-07
2	0	0	0	0	0	0	4.7	0.100017	0.100179	-0.00967418	-8.63478e-05	-8.63478e-05	13	-2.39855e-05	0	0.000000000000000E+000	2.40355e-09	0.000000000000000E+000	2.26091e+06	2.39855e-05	0.000000000000000E+000	2.39855e-05	0.0000000E+000	0.000000000000000E+000	-9.69152e-07
2	0	0	0	0	0	0	4.9	0.100017	0.100332	-0.00947724	-8.82529e-05	-8.82529e-05	13	-2.45147e-05	0	0.000000000000000E+000	2.45661e-09	0.000000000000000E+000	770213	2.45147e-05	0.000000000000000E+000	2.45147e-05	0.0000000E+000	0.000000000000000E+000	-9.50871e-07
2	0	0	0	0	0	0	5.1	0.100017	0.100217	-0.00929666	-9.01211e-05	-9.01211e-05	13	-2.50336e-05	0	0.000000000000000E+000	2.50864e-09	0.000000000000000E+000	0.000000000000000E+000	2.50336e-05	0.000000000000000E+000	2.50336e-05	0.0000000E+000	0.000000000000000E+000	-9.31687e-07
2	0	0	0	0	0	0	5.3	0.100017	0.10016	-0.00912599	-9.19546e-05	-9.19546e-05	13	-2.5543e-05	0	0.000000000000000E+000	2.55971e-09	0.000000000000000E+000	1.60514e+06	2.5543e-05	0.000000000000000E+000	2.5543e-05	0.0000000E+000	0.000000000000000E+000	-9.1406e-07
2	0	0	0	0	0	0	5.5	0.100017	0.100217	-0.00896489	-9.37556e-05	-9.37556e-05	13	-2.60432e-05	0	0.000000000000000E+000	2.60986e-09	0.000000000000000E+000	0.000000000000000E+000	2.60432e-05	0.000000000000000E+000	2.60432e-05	0.0000000E+000	0.000000000000000E+000	-8.98437e-07
2	0	0	0	0	0	0	5.7	0.100017	0.10016	-0.00881486	-9.55258e-05	-9.55258e-05	13	-2.65349e-05	0	0.000000000000000E+000	2.65915e-09	0.000000000000000E+000	1.66748e+06	2.65349e-05	0.000000000000000E+000	2.65349e-05	0.0000000E+000	0.000000000000000E+000	-8.82897e-07
2	0	0	0	0	0	0	5.9	0.100017	0.100198	-0.00867249	-9.72673e-05	-9.72673e-05	13	-2.70187e-05	0	0.000000000000000E+000	2.70764e-09	0.000000000000000E+000	5.09364e+06	2.70187e-05	0.000000000000000E+000	2.70187e-05	0.0000000E+000	0.000000000000000E+000	-8.68969e-07
2	0	0	0	0	0	0	6.1	0.100017	0.100236	-0.00853804	-9.89815e-05	-9.89815e-05	13	-2.74949e-05	0	0.000000000000000E+000	2.75538e-09	0.000000000000000E+000	5.18341e+06	2.74949e-05	0.000000000000000E+000	2.74949e-05	0.0000000E+000	0.000000000000000E+000	-8.55823e-07
2	0	0	0	0	0	0	6.3	0.100017	0.100256	-0.00840926	-0.00010067	-0.00010067	13	-2.79638e-05	0	0.000000000000000E+000	2.8024e-09	0.000000000000000E+000	2.6354e+06	2.79638e-05	0.000000000000000E+000	2.79638e-05	0.0000000E+000	0.000000000000000E+000	-8.43075e-07
2	0	0	0	0	0	0	6.5	0.100017	0.100179	-0.00828952	-0.000102334	-0.000102334	13	-2.8426e-05	0	0.000000000000000E+000	2.84873e-09	0.000000000000000E+000	2.67947e+06	2.8426e-05	0.000000000000000E+000	2.8426e-05	0.0000000E+000	0.000000000000000E+000	-8.30438e-07
2	0	0	0	0	0	0	6.7	0.100017	0.100198	-0.00817435	-0.000103974	-0.000103974	13	-2.88817e-05	0	0.000000000000000E+000	2.8944e-09	0.000000000000000E+000	5.44486e+06	2.88817e-05	0.000000000000000E+000	2.88817e-05	0.0000000E+000	0.000000000000000E+000	-8.19056e-07
2	0	0	0	0	0	0	6.9	0.100017	0.100236	-0.00806408	-0.000105592	-0.000105592	13	-2.93312e-05	0	0.000000000000000E+000	2.93944e-09	0.000000000000000E+000	5.5296e+06	2.93312e-05	0.000000000000000E+000	2.93312e-05	0.0000000E+000	0.000000000000000E+000	-8.08315e-07
2	0	0	0	0	0	0	7.1	0.100017	0.100313	-0.00795914	-0.000107189	-0.000107189	13	-2.97748e-05	0	0.000000000000000E+000	2.98391e-09	0.000000000000000E+000	1.12256e+06	2.97748e-05	0.000000000000000E+000	2.97748e-05	0.0000000E+000	0.000000000000000E+000	-7.98404e-07
2	0	0	0	0	0	0	7.3	0.100017	0.100179	-0.00786078	-0.000108766	-0.000108766	13	-3.02129e-05	0	0.000000000000000E+000	3.02784e-09	0.000000000000000E+000	2.84791e+06	3.02129e-05	0.000000000000000E+000	3.02129e-05	0.0000000E+000	0.000000000000000E+000	-7.87486e-07
2	0	0	0	0	0	0	7.5	0.100017	0.100275	-0.00776176	-0.000110324	-0.000110324	13	-3.06455e-05	0	0.000000000000000E+000	3.0712e-09	0.000000000000000E+000	1.92554e+06	3.06455e-05	0.000000000000000E+000	3.06455e-05	0.0000000E+000	0.000000000000000E+000	-7.78308e-07
2	0	0	0	0	0	0	7.7	0.100017	0.100122	-0.00767146	-0.000111862	-0.000111862	13	-3.10729e-05	0	0.000000000000000E+000	3.114e-09	0.000000000000000E+000	1.17159e+06	3.10729e-05	0.000000000000000E+000	3.10729e-05	0.0000000E+000	0.000000000000000E+000	-7.68082e-07
2	0	0	0	0	0	0	7.9	0.100017	0.100179	-0.00759023	-0.000113385	-0.000113385	13	-3.14958e-05	0	0.000000000000000E+000	3.15636e-09	0.000000000000000E+000	2.96884e+06	3.14958e-05	0.000000000000000E+000	3.14958e-05	0.0000000E+000	0.000000000000000E+000	-7.60383e-07
2	0	0	0	0	0	0	8.1	0.100017	0.100122	-0.00750097	-0.00011489	-0.00011489	13	-3.19138e-05	0	0.000000000000000E+000	3.19822e-09	0.000000000000000E+000	1.20329e+06	3.19138e-05	0.000000000000000E+000	3.19138e-05	0.0000000E+000	0.000000000000000E+000	-7.51012e-07
2	0	0	0	0	0	0	8.3	0.100017	0.100389	-0.0074189	-0.000116377	-0.000116377	13	-3.23271e-05	0	0.000000000000000E+000	3.23969e-09	0.000000000000000E+000	677125	3.23271e-05	0.000000000000000E+000	3.23271e-05	0.0000000E+000	0.000000000000000E+000	-7.44778e-07
2	0	0	0	0	0	0	8.5	0.100017	0.100103	-0.00734008	-0.000117849	-0.000117849	13	-3.27359e-05	0	0.000000000000000E+000	3.28066e-09	0.000000000000000E+000	1.02858e+06	3.27359e-05	0.000000000000000E+000	3.27359e-05	0.0000000E+000	0.000000000000000E+000	-7.34763e-07
2	0	0	0	0	0	0	8.7	0.100017	0.100217	-0.0072628	-0.000119306	-0.000119306	13	-3.31405e-05	0	0.000000000000000E+000	3.32118e-09	0.000000000000000E+000	0.000000000000000E+000	3.31405e-05	0.000000000000000E+000	3.31405e-05	0.0000000E+000	0.000000000000000E+000	-7.27859e-07
2	0	0	0	0	0	0	8.9	0.100017	0.100198	-0.00719435	-0.000120748	-0.000120748	13	-3.35412e-05	0	0.000000000000000E+000	3.36131e-09	0.000000000000000E+000	6.32327e+06	3.35412e-05	0.000000000000000E+000	3.35412e-05	0.0000000E+000	0.000000000000000E+000	-7.20862e-07
2	0	0	0	0	0	0	9.1	0.100017	0.100313	-0.00712338	-0.000122176	-0.000122176	13	-3.39378e-05	0	0.000000000000000E+000	3.40109e-09	0.000000000000000E+000	1.27951e+06	3.39378e-05	0.000000000000000E+000	3.39378e-05	0.0000000E+000	0.000000000000000E+000	-7.14567e-07
2	0	0	0	0	0	0	9.3	0.100017	0.100103	-0.00705574	-0.000123591	-0.000123591	13	-3.43307e-05	0	0.000000000000000E+000	3.44044e-09	0.000000000000000E+000	1.07869e+06	3.43307e-05	0.000000000000000E+000	3.43307e-05	0.0000000E+000	0.000000000000000E+000	-7.06299e-07
2	0	0	0	0	0	0	9.5	0.100017	0.100217	-0.006988	-0.000124992	-0.000124992	13	-3.47199e-05	0	0.000000000000000E+000	3.47944e-09	0.000000000000000E+000	0.000000000000000E+000	3.47199e-05	0.000000000000000E+000	3.47199e-05	0.0000000E+000	0.000000000000000E+000	-7.00319e-07
2	0	0	0	0	0	0	9.7	0.100017	0.100313	-0.00692564	-0.00012638	-0.00012638	13	-3.51055e-05	0	0.000000000000000E+000	3.51811e-09	0.000000000000000E+000	1.32353e+06	3.51055e-05	0.000000000000000E+000	3.51055e-05	0.0000000E+000	0.000000000000000E+000	-6.94731e-07
2	0	0	0	0	0	0	9.9	0.100017	0.100294	-0.00686479	-0.000127756	-0.000127756	13	-3.54878e-05	0	0.000000000000000E+000	3.55644e-09	0.000000000000000E+000	1.6724e+06	3.54878e-05	0.000000000000000E+000	3.54878e-05	0.0000000E+000	0.000000000000000E+000	-6.88496e-07
2	0	0	0	0	0	0	10.1	0.100017	0.10016	-0.00680532	-0.00012912	-0.00012912	13	-3.58667e-05	0	0.000000000000000E+000	3.5944e-09	0.000000000000000E+000	2.25389e+06	3.58667e-05	0.000000000000000E+000	3.58667e-05	0.0000000E+000	0.000000000000000E+000	-6.81622e-07
2	0	0	0	0	0	0	10.3	0.100017	0.100198	-0.00674656	-0.000130472	-0.000130472	13	-3.62423e-05	0	0.000000000000000E+000	3.63203e-09	0.000000000000000E+000	6.83249e+06	3.62423e-05	0.000000000000000E+000	3.62423e-05	0.0000000E+000	0.000000000000000E+000	-6.75994e-07
2	0	0	0	0	0	0	10.5	0.100017	0.100294	-0.0066919	-0.000131813	-0.000131813	13	-3.66148e-05	0	0.000000000000000E+000	3.66937e-09	0.000000000000000E+000	1.72551e+06	3.66148e-05	0.000000000000000E+000	3.66148e-05	0.0000000E+000	0.000000000000000E+000	-6.71156e-07
2	0	0	0	0	0	0	10.7	0.100017	0.100217	-0.0066372	-0.000133143	-0.000133143	13	-3.69843e-05	0	0.000000000000000E+000	3.7064e-09	0.000000000000000E+000	0.000000000000000E+000	3.69843e-05	0.000000000000000E+000	3.69843e-05	0.0000000E+000	0.000000000000000E+000	-6.65163e-07
2	0	0	0	0	0	0	10.9	0.100017	0.100236	-0.00658428	-0.000134463	-0.000134463	13	-3.73508e-05	0	0.000000000000000E+000	3.74314e-09	0.000000000000000E+000	7.04148e+06	3.73508e-05	0.000000000000000E+000	3.73508e-05	0.0000000E+000	0.000000000000000E+000	-6.59985e-07
2	0	0	0	0	0	0	11.1	0.100017	0.100313	-0.00653336	-0.000135772	-0.000135772	13	-3.77145e-05	0	0.000000000000000E+000	3.77962e-09	0.000000000000000E+000	1.4219e+06	3.77145e-05	0.000000000000000E+000	3.77145e-05	0.0000000E+000	0.000000000000000E+000	-6.55381e-07
2	0	0	0	0	0	0	11.3	0.100017	0.10016	-0.00648345	-0.000137071	-0.000137071	13	-3.80754e-05	0	0.000000000000000E+000	3.81577e-09	0.000000000000000E+000	2.39269e+06	3.80754e-05	0.000000000000000E+000	3.80754e-05	0.0000000E+000	0.000000000000000E+000	-6.49383e-07
2	0	0	0	0	0	0	11.5	0.100017	0.100236	-0.00643415	-0.000138361	-0.000138361	13	-3.84335e-05	0	0.000000000000000E+000	3.85169e-09	0.000000000000000E+000	7.24559e+06	3.84335e-05	0.000000000000000E+000	3.84335e-05	0.0000000E+000	0.000000000000000E+000	-6.44937e-07
2	0	0	0	0	0	0	11.7	0.100017	0.10016	-0.00638844	-0.000139641	-0.000139641	13	-3.87891e-05	0	0.000000000000000E+000	3.88732e-09	0.000000000000000E+000	2.43754e+06	3.87891e-05	0.000000000000000E+000	3.87891e-05	0.0000000E+000	0.000000000000000E+000	-6.39867e-07
2	0	0	0	0	0	0	11.9	0.100017	0.100179	-0.006343	-0.000140911	-0.000140911	13	-3.91421e-05	0	0.000000000000000E+000	3.92268e-09	0.000000000000000E+000	3.68958e+06	3.91421e-05	0.000000000000000E+000	3.91421e-05	0.0000000E+000	0.000000000000000E+000	-6.35437e-07
2	0	0	0	0	0	0	12.1	0.100017	0.100275	-0.00629826	-0.000142173	-0.000142173	13	-3.94926e-05	0	0.000000000000000E+000	3.95783e-09	0.000000000000000E+000	2.48143e+06	3.94926e-05	0.000000000000000E+000	3.94926e-05	0.0000000E+000	0.000000000000000E+000	-6.31556e-07
2	0	0	0	0	0	0	12.3	0.100017	0.100256	-0.00625399	-0.000143426	-0.000143426	13	-3.98406e-05	0	0.000000000000000E+000	3.99271e-09	0.000000000000000E+000	3.7547e+06	3.98406e-05	0.000000000000000E+000	3.98406e-05	0.0000000E+000	0.000000000000000E+000	-6.26997e-07
2	0	0	0	0	0	0	12.5	0.100017	0.100256	-0.00621356	-0.000144671	-0.000144671	13	-4.01864e-05	0	0.000000000000000E+000	4.02736e-09	0.000000000000000E+000	3.78728e+06	4.01864e-05	0.000000000000000E+000	4.01864e-05	0.0000000E+000	0.000000000000000E+000	-6.22944e-07
2	0	0	0	0	0	0	12.7	0.100017	0.100217	-0.00617257	-0.000145907	-0.000145907	13	-4.05298e-05	0	0.000000000000000E+000	4.06176e-09	0.000000000000000E+000	0.000000000000000E+000	4.05298e-05	0.000000000000000E+000	4.05298e-05	0.0000000E+000	0.000000000000000E+000	-6.18598e-07
2	0	0	0	0	0	0	12.9	0.100017	0.100141	-0.00613159	-0.000147136	-0.000147136	13	-4.0871e-05	0	0.000000000000000E+000	4.09593e-09	0.000000000000000E+000	1.92628e+06	4.0871e-05	0.000000000000000E+000	4.0871e-05	0.0000000E+000	0.000000000000000E+000	-6.14023e-07
2	0	0	0	0	0	0	13.1	0.100017	0.100256	-0.00609164	-0.000148356	-0.000148356	13	-4.121e-05	0	0.000000000000000E+000	4.1299e-09	0.000000000000000E+000	3.88375e+06	4.121e-05	0.000000000000000E+000	4.121e-05	0.0000000E+000	0.000000000000000E+000	-6.10721e-07
2	0	0	0	0	0	0	13.3	0.100017	0.100256	-0.00605242	-0.000149568	-0.000149568	13	-4.15468e-05	0	0.000000000000000E+000	4.16366e-09	0.000000000000000E+000	3.91549e+06	4.15468e-05	0.000000000000000E+000	4.15468e-05	0.0000000E+000	0.000000000000000E+000	-6.06789e-07
2	0	0	0	0	0	0	13.5	0.100017	0.100179	-0.00601532	-0.000150773	-0.000150773	13	-4.18814e-05	0	0.000000000000000E+000	4.19721e-09	0.000000000000000E+000	3.9478e+06	4.18814e-05	0.000000000000000E+000	4.18814e-05	0.0000000E+000	0.000000000000000E+000	-6.0261e-07
2	0	0	0	0	0	0	13.7	0.100017	0.100256	-0.00598034	-0.000151971	-0.000151971	13	-4.22141e-05	0	0.000000000000000E+000	4.23055e-09	0.000000000000000E+000	3.97838e+06	4.22141e-05	0.000000000000000E+000	4.22141e-05	0.0000000E+000	0.000000000000000E+000	-5.99563e-07
2	0	0	0	0	0	0	13.9	0.100017	0.100313	-0.00594224	-0.000153161	-0.000153161	13	-4.25446e-05	0	0.000000000000000E+000	4.26372e-09	0.000000000000000E+000	1.604e+06	4.25446e-05	0.000000000000000E+000	4.25446e-05	0.0000000E+000	0.000000000000000E+000	-5.96083e-07
2	0	0	0	0	0	0	14.1	0.100017	0.100256	-0.00590592	-0.000154343	-0.000154343	13	-4.28732e-05	0	0.000000000000000E+000	4.29666e-09	0.000000000000000E+000	4.0405e+06	4.28732e-05	0.000000000000000E+000	4.28732e-05	0.0000000E+000	0.000000000000000E+000	-5.92102e-07
2	0	0	0	0	0	0	14.3	0.100017	0.100141	-0.00587031	-0.000155519	-0.000155519	13	-4.31998e-05	0	0.000000000000000E+000	4.32937e-09	0.000000000000000E+000	2.03604e+06	4.31998e-05	0.000000000000000E+000	4.31998e-05	0.0000000E+000	0.000000000000000E+000	-5.87858e-07
2	0	0	0	0	0	0	14.5	0.100017	0.10016	-0.00583531	-0.000156688	-0.000156688	13	-4.35245e-05	0	0.000000000000000E+000	4.3619e-09	0.000000000000000E+000	2.73512e+06	4.35245e-05	0.000000000000000E+000	4.35245e-05	0.0000000E+000	0.000000000000000E+000	-5.84465e-07
2	0	0	0	0	0	0	14.7	0.100017	0.100294	-0.00580172	-0.00015785	-0.00015785	13	-4.38473e-05	0	0.000000000000000E+000	4.39428e-09	0.000000000000000E+000	2.06635e+06	4.38473e-05	0.000000000000000E+000	4.38473e-05	0.0000000E+000	0.000000000000000E+000	-5.81876e-07
2	0	0	0	0	0	0	14.9	0.100017	0.100236	-0.0057699	-0.000159006	-0.000159006	13	-4.41684e-05	0	0.000000000000000E+000	4.42646e-09	0.000000000000000E+000	8.32674e+06	4.41684e-05	0.000000000000000E+000	4.41684e-05	0.0000000E+000	0.000000000000000E+000	-5.78355e-07
2	0	0	0	0	0	0	15.1	0.100017	0.100275	-0.00573905	-0.000160156	-0.000160156	13	-4.44876e-05	0	0.000000000000000E+000	4.45844e-09	0.000000000000000E+000	2.79528e+06	4.44876e-05	0.000000000000000E+000	4.44876e-05	0.0000000E+000	0.000000000000000E+000	-5.75481e-07
2	0	0	0	0	0	0	15.3	0.100017	0.100122	-0.00570764	-0.000161299	-0.000161299	13	-4.48052e-05	0	0.000000000000000E+000	4.49026e-09	0.000000000000000E+000	1.68936e+06	4.48052e-05	0.000000000000000E+000	4.48052e-05	0.0000000E+000	0.000000000000000E+000	-5.7146e-07
2	0	0	0	0	0	0	15.5	0.100017	0.100275	-0.00567596	-0.000162435	-0.000162435	13	-4.51209e-05	0	0.000000000000000E+000	4.5219e-09	0.000000000000000E+000	2.83507e+06	4.51209e-05	0.000000000000000E+000	4.51209e-05	0.0000000E+000	0.000000000000000E+000	-5.69155e-07
2	0	0	0	0	0	0	15.7	0.100017	0.100332	-0.00564627	-0.000163566	-0.000163566	13	-4.5435e-05	0	0.000000000000000E+000	4.5534e-09	0.000000000000000E+000	1.4275e+06	4.5435e-05	0.000000000000000E+000	4.5435e-05	0.0000000E+000	0.000000000000000E+000	-5.66501e-07
2	0	0	0	0	0	0	15.9	0.100017	0.100332	-0.00561637	-0.000164691	-0.000164691	13	-4.57475e-05	0	0.000000000000000E+000	4.58475e-09	0.000000000000000E+000	1.43731e+06	4.57475e-05	0.000000000000000E+000	4.57475e-05	0.0000000E+000	0.000000000000000E+000	-5.63501e-07
2	0	0	0	0	0	0	16.1	0.100017	0.100256	-0.00558693	-0.00016581	-0.00016581	13	-4.60583e-05	0	0.000000000000000E+000	4.6159e-09	0.000000000000000E+000	4.34067e+06	4.60583e-05	0.000000000000000E+000	4.60583e-05	0.0000000E+000	0.000000000000000E+000	-5.60121e-07
2	0	0	0	0	0	0	16.3	0.100017	0.100256	-0.00555841	-0.000166923	-0.000166923	13	-4.63675e-05	0	0.000000000000000E+000	4.64689e-09	0.000000000000000E+000	4.36981e+06	4.63675e-05	0.000000000000000E+000	4.63675e-05	0.0000000E+000	0.000000000000000E+000	-5.57261e-07
2	0	0	0	0	0	0	16.5	0.100017	0.100256	-0.00553455	-0.000168032	-0.000168032	13	-4.66754e-05	0	0.000000000000000E+000	4.67777e-09	0.000000000000000E+000	4.39883e+06	4.66754e-05	0.000000000000000E+000	4.66754e-05	0.0000000E+000	0.000000000000000E+000	-5.5487e-07
2	0	0	0	0	0	0	16.7	0.100017	0.100256	-0.00550303	-0.000169134	-0.000169134	13	-4.69816e-05	0	0.000000000000000E+000	4.70846e-09	0.000000000000000E+000	4.42769e+06	4.69816e-05	0.000000000000000E+000	4.69816e-05	0.0000000E+000	0.000000000000000E+000	-5.5171e-07
2	0	0	0	0	0	0	16.9	0.100017	0.100236	-0.00547781	-0.000170231	-0.000170231	13	-4.72863e-05	0	0.000000000000000E+000	4.73899e-09	0.000000000000000E+000	8.91454e+06	4.72863e-05	0.000000000000000E+000	4.72863e-05	0.0000000E+000	0.000000000000000E+000	-5.49077e-07
2	0	0	0	0	0	0	17.1	0.100017	0.100236	-0.00545151	-0.000171322	-0.000171322	13	-4.75895e-05	0	0.000000000000000E+000	4.76938e-09	0.000000000000000E+000	8.97171e+06	4.75895e-05	0.000000000000000E+000	4.75895e-05	0.0000000E+000	0.000000000000000E+000	-5.4644e-07
2	0	0	0	0	0	0	17.3	0.100017	0.100179	-0.00542382	-0.000172408	-0.000172408	13	-4.78912e-05	0	0.000000000000000E+000	4.79959e-09	0.000000000000000E+000	4.51429e+06	4.78912e-05	0.000000000000000E+000	4.78912e-05	0.0000000E+000	0.000000000000000E+000	-5.43354e-07
2	0	0	0	0	0	0	17.5	0.100017	0.100179	-0.00539827	-0.000173489	-0.000173489	13	-4.81915e-05	0	0.000000000000000E+000	4.82969e-09	0.000000000000000E+000	4.54259e+06	4.81915e-05	0.000000000000000E+000	4.81915e-05	0.0000000E+000	0.000000000000000E+000	-5.40794e-07
2	0	0	0	0	0	0	17.7	0.100017	0.100179	-0.00537276	-0.000174565	-0.000174565	13	-4.84903e-05	0	0.000000000000000E+000	4.85964e-09	0.000000000000000E+000	4.57076e+06	4.84903e-05	0.000000000000000E+000	4.84903e-05	0.0000000E+000	0.000000000000000E+000	-5.38238e-07
2	0	0	0	0	0	0	17.9	0.100017	0.100275	-0.00534827	-0.000175636	-0.000175636	13	-4.87878e-05	0	0.000000000000000E+000	4.88944e-09	0.000000000000000E+000	3.06547e+06	4.87878e-05	0.000000000000000E+000	4.87878e-05	0.0000000E+000	0.000000000000000E+000	-5.36296e-07
2	0	0	0	0	0	0	18.1	0.100017	0.10016	-0.00532053	-0.000176702	-0.000176702	13	-4.90838e-05	0	0.000000000000000E+000	4.91911e-09	0.000000000000000E+000	3.08447e+06	4.90838e-05	0.000000000000000E+000	4.90838e-05	0.0000000E+000	0.000000000000000E+000	-5.32905e-07
2	0	0	0	0	0	0	18.3	0.100017	0.100217	-0.00529773	-0.000177762	-0.000177762	13	-4.93784e-05	0	0.000000000000000E+000	4.94865e-09	0.000000000000000E+000	0.000000000000000E+000	4.93784e-05	0.000000000000000E+000	4.93784e-05	0.0000000E+000	0.000000000000000E+000	-5.30925e-07
2	0	0	0	0	0	0	18.5	0.100017	0.100236	-0.0052751	-0.000178819	-0.000178819	13	-4.96718e-05	0	0.000000000000000E+000	4.97805e-09	0.000000000000000E+000	9.36427e+06	4.96718e-05	0.000000000000000E+000	4.96718e-05	0.0000000E+000	0.000000000000000E+000	-5.28757e-07
2	0	0	0	0	0	0	18.7	0.100017	0.10016	-0.00524997	-0.00017987	-0.00017987	13	-4.99638e-05	0	0.000000000000000E+000	5.0073e-09	0.000000000000000E+000	3.13977e+06	4.99638e-05	0.000000000000000E+000	4.99638e-05	0.0000000E+000	0.000000000000000E+000	-5.25837e-07
2	0	0	0	0	0	0	18.9	0.100017	0.100294	-0.00522641	-0.000180916	-0.000180916	13	-5.02545e-05	0	0.000000000000000E+000	5.03645e-09	0.000000000000000E+000	2.3683e+06	5.02545e-05	0.000000000000000E+000	5.02545e-05	0.0000000E+000	0.000000000000000E+000	-5.24177e-07
2	0	0	0	0	0	0	19.1	0.100017	0.100313	-0.0052027	-0.000181958	-0.000181958	13	-5.05439e-05	0	0.000000000000000E+000	5.06545e-09	0.000000000000000E+000	1.90559e+06	5.05439e-05	0.000000000000000E+000	5.05439e-05	0.0000000E+000	0.000000000000000E+000	-5.21898e-07
2	0	0	0	0	0	0	19.3	0.100017	0.100294	-0.0051811	-0.000182995	-0.000182995	13	-5.0832e-05	0	0.000000000000000E+000	5.09435e-09	0.000000000000000E+000	2.39551e+06	5.0832e-05	0.000000000000000E+000	5.0832e-05	0.0000000E+000	0.000000000000000E+000	-5.19632e-07
2	0	0	0	0	0	0	19.5	0.100017	0.100179	-0.00515922	-0.000184028	-0.000184028	13	-5.1119e-05	0	0.000000000000000E+000	5.12311e-09	0.000000000000000E+000	4.81854e+06	5.1119e-05	0.000000000000000E+000	5.1119e-05	0.0000000E+000	0.000000000000000E+000	-5.16846e-07
2	0	0	0	0	0	0	19.7	0.100017	0.100217	-0.00513751	-0.000185057	-0.000185057	13	-5.14046e-05	0	0.000000000000000E+000	5.15173e-09	0.000000000000000E+000	0.000000000000000E+000	5.14046e-05	0.000000000000000E+000	5.14046e-05	0.0000000E+000	0.000000000000000E+000	-5.14867e-07
2	0	0	0	0	0	0	19.9	0.100017	0.100294	-0.00511697	-0.000186081	-0.000186081	13	-5.16892e-05	0	0.000000000000000E+000	5.18025e-09	0.000000000000000E+000	2.43591e+06	5.16892e-05	0.000000000000000E+000	5.16892e-05	0.0000000E+000	0.000000000000000E+000	-5.132e-07
2	0	0	0	0	0	0	20.1	0.100017	0.100294	-0.00509617	-0.000187101	-0.000187101	13	-5.19726e-05	0	0.000000000000000E+000	5.20866e-09	0.000000000000000E+000	2.44927e+06	5.19726e-05	0.000000000000000E+000	5.19726e-05	0.0000000E+000	0.000000000000000E+000	-5.11114e-07
2	0	0	0	0	0	0	20.3	0.100017	0.100179	-0.00507446	-0.000188117	-0.000188117	13	-5.22548e-05	0	0.000000000000000E+000	5.23695e-09	0.000000000000000E+000	4.92561e+06	5.22548e-05	0.000000000000000E+000	5.22548e-05	0.0000000E+000	0.000000000000000E+000	-5.08355e-07
2	0	0	0	0	0	0	20.5	0.100017	0.100294	-0.0050532	-0.000189129	-0.000189129	13	-5.25359e-05	0	0.000000000000000E+000	5.26513e-09	0.000000000000000E+000	2.47581e+06	5.25359e-05	0.000000000000000E+000	5.25359e-05	0.0000000E+000	0.000000000000000E+000	-5.06805e-07
2	0	0	0	0	0	0	20.7	0.100017	0.100294	-0.005037	-0.000190138	-0.000190138	13	-5.28161e-05	0	0.000000000000000E+000	5.29322e-09	0.000000000000000E+000	2.48902e+06	5.28161e-05	0.000000000000000E+000	5.28161e-05	0.0000000E+000	0.000000000000000E+000	-5.0518e-07
2	0	0	0	0	0	0	20.9	0.100017	0.100236	-0.00501677	-0.000191142	-0.000191142	13	-5.30951e-05	0	0.000000000000000E+000	5.32115e-09	0.000000000000000E+000	1.00096e+07	5.30951e-05	0.000000000000000E+000	5.30951e-05	0.0000000E+000	0.000000000000000E+000	-5.02864e-07
2	0	0	0	0	0	0	21.1	0.100017	0.100179	-0.00499582	-0.000192142	-0.000192142	13	-5.33729e-05	0	0.000000000000000E+000	5.34898e-09	0.000000000000000E+000	5.031e+06	5.33729e-05	0.000000000000000E+000	5.33729e-05	0.0000000E+000	0.000000000000000E+000	-5.00477e-07
2	0	0	0	0	0	0	21.3	0.100017	0.100236	-0.00497617	-0.000193139	-0.000193139	13	-5.36496e-05	0	0.000000000000000E+000	5.37672e-09	0.000000000000000E+000	1.01142e+07	5.36496e-05	0.000000000000000E+000	5.36496e-05	0.0000000E+000	0.000000000000000E+000	-4.98793e-07
2	0	0	0	0	0	0	21.5	0.100017	0.100179	-0.00495524	-0.000194131	-0.000194131	13	-5.39252e-05	0	0.000000000000000E+000	5.40432e-09	0.000000000000000E+000	5.08306e+06	5.39252e-05	0.000000000000000E+000	5.39252e-05	0.0000000E+000	0.000000000000000E+000	-4.96412e-07
2	0	0	0	0	0	0	21.7	0.100017	0.100236	-0.0049366	-0.000195119	-0.000195119	13	-5.41998e-05	0	0.000000000000000E+000	5.43184e-09	0.000000000000000E+000	1.02179e+07	5.41998e-05	0.000000000000000E+000	5.41998e-05	0.0000000E+000	0.000000000000000E+000	-4.94827e-07
2	0	0	0	0	0	0	21.9	0.100017	0.100256	-0.00491963	-0.000196104	-0.000196104	13	-5.44734e-05	0	0.000000000000000E+000	5.45928e-09	0.000000000000000E+000	5.13373e+06	5.44734e-05	0.000000000000000E+000	5.44734e-05	0.0000000E+000	0.000000000000000E+000	-4.9322e-07
2	0	0	0	0	0	0	22.1	0.100017	0.100256	-0.00490079	-0.000197085	-0.000197085	13	-5.47459e-05	0	0.000000000000000E+000	5.48657e-09	0.000000000000000E+000	5.15941e+06	5.47459e-05	0.000000000000000E+000	5.47459e-05	0.0000000E+000	0.000000000000000E+000	-4.91332e-07
2	0	0	0	0	0	0	22.3	0.100017	0.100179	-0.0048814	-0.000198062	-0.000198062	13	-5.50173e-05	0	0.000000000000000E+000	5.51379e-09	0.000000000000000E+000	5.18601e+06	5.50173e-05	0.000000000000000E+000	5.50173e-05	0.0000000E+000	0.000000000000000E+000	-4.89015e-07
2	0	0	0	0	0	0	22.5	0.100017	0.100179	-0.00486405	-0.000199036	-0.000199036	13	-5.52878e-05	0	0.000000000000000E+000	5.54088e-09	0.000000000000000E+000	5.2115e+06	5.52878e-05	0.000000000000000E+000	5.52878e-05	0.0000000E+000	0.000000000000000E+000	-4.87276e-07
2	0	0	0	0	0	0	22.7	0.100017	0.100198	-0.00484515	-0.000200006	-0.000200006	13	-5.55573e-05	0	0.000000000000000E+000	5.56788e-09	0.000000000000000E+000	1.04738e+07	5.55573e-05	0.000000000000000E+000	5.55573e-05	0.0000000E+000	0.000000000000000E+000	-4.85476e-07
2	0	0	0	0	0	0	22.9	0.100017	0.100179	-0.00482816	-0.000200973	-0.000200973	13	-5.58257e-05	0	0.000000000000000E+000	5.59478e-09	0.000000000000000E+000	5.26221e+06	5.58257e-05	0.000000000000000E+000	5.58257e-05	0.0000000E+000	0.000000000000000E+000	-4.83681e-07
2	0	0	0	0	0	0	23.1	0.100017	0.100236	-0.00481076	-0.000201936	-0.000201936	13	-5.60932e-05	0	0.000000000000000E+000	5.62158e-09	0.000000000000000E+000	1.05748e+07	5.60932e-05	0.000000000000000E+000	5.60932e-05	0.0000000E+000	0.000000000000000E+000	-4.82213e-07
2	0	0	0	0	0	0	23.3	0.100017	0.100084	-0.00479288	-0.000202895	-0.000202895	13	-5.63598e-05	0	0.000000000000000E+000	5.64828e-09	0.000000000000000E+000	1.51787e+06	5.63598e-05	0.000000000000000E+000	5.63598e-05	0.0000000E+000	0.000000000000000E+000	-4.79689e-07
2	0	0	0	0	0	0	23.5	0.100017	0.100217	-0.00477647	-0.000203851	-0.000203851	13	-5.66254e-05	0	0.000000000000000E+000	5.67491e-09	0.000000000000000E+000	0.000000000000000E+000	5.66254e-05	0.000000000000000E+000	5.66254e-05	0.0000000E+000	0.000000000000000E+000	-4.78685e-07
2	0	0	0	0	0	0	23.7	0.100017	0.100026	-0.00476308	-0.000204805	-0.000204805	13	-5.68903e-05	0	0.000000000000000E+000	5.70144e-09	0.000000000000000E+000	1.07247e+06	5.68903e-05	0.000000000000000E+000	5.68903e-05	0.0000000E+000	0.000000000000000E+000	-4.76434e-07
2	0	0	0	0	0	0	23.9	0.100017	0.100275	-0.00474613	-0.000205755	-0.000205755	13	-5.71542e-05	0	0.000000000000000E+000	5.7279e-09	0.000000000000000E+000	3.59116e+06	5.71542e-05	0.000000000000000E+000	5.71542e-05	0.0000000E+000	0.000000000000000E+000	-4.75916e-07
2	0	0	0	0	0	0	24.1	0.100017	0.100217	-0.00472884	-0.000206702	-0.000206702	13	-5.74172e-05	0	0.000000000000000E+000	5.75425e-09	0.000000000000000E+000	0.000000000000000E+000	5.74172e-05	0.000000000000000E+000	5.74172e-05	0.0000000E+000	0.000000000000000E+000	-4.73913e-07
2	0	0	0	0	0	0	24.3	0.100017	0.100275	-0.0047124	-0.000207645	-0.000207645	13	-5.76792e-05	0	0.000000000000000E+000	5.78051e-09	0.000000000000000E+000	3.62414e+06	5.76792e-05	0.000000000000000E+000	5.76792e-05	0.0000000E+000	0.000000000000000E+000	-4.72534e-07
2	0	0	0	0	0	0	24.5	0.100017	0.100198	-0.00469614	-0.000208585	-0.000208585	13	-5.79403e-05	0	0.000000000000000E+000	5.80667e-09	0.000000000000000E+000	1.09231e+07	5.79403e-05	0.000000000000000E+000	5.79403e-05	0.0000000E+000	0.000000000000000E+000	-4.70545e-07
2	0	0	0	0	0	0	24.7	0.100017	0.100217	-0.00468057	-0.000209522	-0.000209522	13	-5.82006e-05	0	0.000000000000000E+000	5.83275e-09	0.000000000000000E+000	0.000000000000000E+000	5.82006e-05	0.000000000000000E+000	5.82006e-05	0.0000000E+000	0.000000000000000E+000	-4.69074e-07
2	0	0	0	0	0	0	24.9	0.100017	0.100198	-0.00466599	-0.000210456	-0.000210456	13	-5.846e-05	0	0.000000000000000E+000	5.85874e-09	0.000000000000000E+000	1.1021e+07	5.846e-05	0.000000000000000E+000	5.846e-05	0.0000000E+000	0.000000000000000E+000	-4.67524e-07
2	0	0	0	0	0	0	25.1	0.100017	0.100198	-0.00465037	-0.000211387	-0.000211387	13	-5.87185e-05	0	0.000000000000000E+000	5.88464e-09	0.000000000000000E+000	1.10698e+07	5.87185e-05	0.000000000000000E+000	5.87185e-05	0.0000000E+000	0.000000000000000E+000	-4.65959e-07
2	0	0	0	0	0	0	25.3	0.100017	0.100122	-0.00463652	-0.000212315	-0.000212315	13	-5.89763e-05	0	0.000000000000000E+000	5.91046e-09	0.000000000000000E+000	2.22368e+06	5.89763e-05	0.000000000000000E+000	5.89763e-05	0.0000000E+000	0.000000000000000E+000	-4.64218e-07
2	0	0	0	0	0	0	25.5	0.100017	0.100141	-0.00462141	-0.00021324	-0.00021324	13	-5.92333e-05	0	0.000000000000000E+000	5.9362e-09	0.000000000000000E+000	2.7917e+06	5.92333e-05	0.000000000000000E+000	5.92333e-05	0.0000000E+000	0.000000000000000E+000	-4.62793e-07
2	0	0	0	0	0	0	25.7	0.100017	0.10016	-0.00460667	-0.000214162	-0.000214162	13	-5.94894e-05	0	0.000000000000000E+000	5.96187e-09	0.000000000000000E+000	3.73837e+06	5.94894e-05	0.000000000000000E+000	5.94894e-05	0.0000000E+000	0.000000000000000E+000	-4.61405e-07
2	0	0	0	0	0	0	25.9	0.100017	0.100141	-0.00459335	-0.000215081	-0.000215081	13	-5.97448e-05	0	0.000000000000000E+000	5.98746e-09	0.000000000000000E+000	2.81581e+06	5.97448e-05	0.000000000000000E+000	5.97448e-05	0.0000000E+000	0.000000000000000E+000	-4.59983e-07
2	0	0	0	0	0	0	26.1	0.100017	0.100217	-0.00457914	-0.000215998	-0.000215998	13	-5.99994e-05	0	0.000000000000000E+000	6.01298e-09	0.000000000000000E+000	0.000000000000000E+000	5.99994e-05	0.000000000000000E+000	5.99994e-05	0.0000000E+000	0.000000000000000E+000	-4.58909e-07
2	0	0	0	0	0	0	26.3	0.100017	0.100236	-0.00457288	-0.000216912	-0.000216912	13	-6.02534e-05	0	0.000000000000000E+000	6.03846e-09	0.000000000000000E+000	1.13591e+07	6.02534e-05	0.000000000000000E+000	6.02534e-05	0.0000000E+000	0.000000000000000E+000	-4.5837e-07
2	0	0	0	0	0	0	26.5	0.100017	0.100294	-0.00455425	-0.000217824	-0.000217824	13	-6.05066e-05	0	0.000000000000000E+000	6.06383e-09	0.000000000000000E+000	2.85144e+06	6.05066e-05	0.000000000000000E+000	6.05066e-05	0.0000000E+000	0.000000000000000E+000	-4.56763e-07
2	0	0	0	0	0	0	26.7	0.100017	0.10016	-0.00453993	-0.000218733	-0.000218733	13	-6.0759e-05	0	0.000000000000000E+000	6.08913e-09	0.000000000000000E+000	3.81815e+06	6.0759e-05	0.000000000000000E+000	6.0759e-05	0.0000000E+000	0.000000000000000E+000	-4.5472e-07
2	0	0	0	0	0	0	26.9	0.100017	0.100198	-0.00452629	-0.000219639	-0.000219639	13	-6.10107e-05	0	0.000000000000000E+000	6.11434e-09	0.000000000000000E+000	1.15019e+07	6.10107e-05	0.000000000000000E+000	6.10107e-05	0.0000000E+000	0.000000000000000E+000	-4.53526e-07
2	0	0	0	0	0	0	27.1	0.100017	0.100179	-0.00451275	-0.000220542	-0.000220542	13	-6.12616e-05	0	0.000000000000000E+000	6.13948e-09	0.000000000000000E+000	5.77461e+06	6.12616e-05	0.000000000000000E+000	6.12616e-05	0.0000000E+000	0.000000000000000E+000	-4.52084e-07
2	0	0	0	0	0	0	27.3	0.100017	0.100256	-0.00449986	-0.000221443	-0.000221443	13	-6.15118e-05	0	0.000000000000000E+000	6.16456e-09	0.000000000000000E+000	5.79706e+06	6.15118e-05	0.000000000000000E+000	6.15118e-05	0.0000000E+000	0.000000000000000E+000	-4.51137e-07
2	0	0	0	0	0	0	27.5	0.100017	0.100141	-0.00449887	-0.000222341	-0.000222341	14	-6.17615e-05	0	0.000000000000000E+000	6.18956e-09	0.000000000000000E+000	2.91086e+06	6.17615e-05	0.000000000000000E+000	6.17615e-05	0.0000000E+000	0.000000000000000E+000	-4.50522e-07
2	0	0	0	0	0	0	27.7	0.100017	0.10016	-0.00446703	-0.000223236	-0.000223236	14	-6.20099e-05	0	0.000000000000000E+000	6.21445e-09	0.000000000000000E+000	3.89676e+06	6.20099e-05	0.000000000000000E+000	6.20099e-05	0.0000000E+000	0.000000000000000E+000	-4.47418e-07
2	0	0	0	0	0	0	27.9	0.100017	0.100198	-0.00445415	-0.000224127	-0.000224127	14	-6.22575e-05	0	0.000000000000000E+000	6.23926e-09	0.000000000000000E+000	1.1737e+07	6.22575e-05	0.000000000000000E+000	6.22575e-05	0.0000000E+000	0.000000000000000E+000	-4.46298e-07
2	0	0	0	0	0	0	28.1	0.100017	0.10016	-0.00444167	-0.000225016	-0.000225016	14	-6.25044e-05	0	0.000000000000000E+000	6.264e-09	0.000000000000000E+000	3.92784e+06	6.25044e-05	0.000000000000000E+000	6.25044e-05	0.0000000E+000	0.000000000000000E+000	-4.44878e-07
2	0	0	0	0	0	0	28.3	0.100017	0.100141	-0.00442961	-0.000225903	-0.000225903	14	-6.27507e-05	0	0.000000000000000E+000	6.28867e-09	0.000000000000000E+000	2.95748e+06	6.27507e-05	0.000000000000000E+000	6.27507e-05	0.0000000E+000	0.000000000000000E+000	-4.43585e-07
2	0	0	0	0	0	0	28.5	0.100017	0.100236	-0.00441865	-0.000226787	-0.000226787	14	-6.29963e-05	0	0.000000000000000E+000	6.31329e-09	0.000000000000000E+000	1.18762e+07	6.29963e-05	0.000000000000000E+000	6.29963e-05	0.0000000E+000	0.000000000000000E+000	-4.42909e-07
2	0	0	0	0	0	0	28.7	0.100017	0.100217	-0.00440567	-0.000227669	-0.000227669	14	-6.32413e-05	0	0.000000000000000E+000	6.33783e-09	0.000000000000000E+000	0.000000000000000E+000	6.32413e-05	0.000000000000000E+000	6.32413e-05	0.0000000E+000	0.000000000000000E+000	-4.41524e-07
2	0	0	0	0	0	0	28.9	0.100017	0.100122	-0.0043935	-0.000228548	-0.000228548	14	-6.34856e-05	0	0.000000000000000E+000	6.36229e-09	0.000000000000000E+000	2.39369e+06	6.34856e-05	0.000000000000000E+000	6.34856e-05	0.0000000E+000	0.000000000000000E+000	-4.39885e-07
2	0	0	0	0	0	0	29.1	0.100017	0.10016	-0.00438383	-0.000229425	-0.000229425	14	-6.37292e-05	0	0.000000000000000E+000	6.3867e-09	0.000000000000000E+000	4.0048e+06	6.37292e-05	0.000000000000000E+000	6.37292e-05	0.0000000E+000	0.000000000000000E+000	-4.39085e-07
2	0	0	0	0	0	0	29.3	0.100017	0.100103	-0.00437361	-0.0002303	-0.0002303	14	-6.39723e-05	0	0.000000000000000E+000	6.41107e-09	0.000000000000000E+000	2.01004e+06	6.39723e-05	0.000000000000000E+000	6.39723e-05	0.0000000E+000	0.000000000000000E+000	-4.37811e-07
2	0	0	0	0	0	0	29.5	0.100017	0.100236	-0.00436142	-0.000231173	-0.000231173	14	-6.42148e-05	0	0.000000000000000E+000	6.43536e-09	0.000000000000000E+000	1.2106e+07	6.42148e-05	0.000000000000000E+000	6.42148e-05	0.0000000E+000	0.000000000000000E+000	-4.37174e-07
2	0	0	0	0	0	0	29.7	0.100017	0.100179	-0.00435028	-0.000232044	-0.000232044	14	-6.44566e-05	0	0.000000000000000E+000	6.4596e-09	0.000000000000000E+000	6.07577e+06	6.44566e-05	0.000000000000000E+000	6.44566e-05	0.0000000E+000	0.000000000000000E+000	-4.35808e-07
2	0	0	0	0	0	0	29.9	0.100017	0.10016	-0.00434103	-0.000232913	-0.000232913	14	-6.4698e-05	0	0.000000000000000E+000	6.48378e-09	0.000000000000000E+000	4.06568e+06	6.4698e-05	0.000000000000000E+000	6.4698e-05	0.0000000E+000	0.000000000000000E+000	-4.34798e-07
2	0	0	0	0	0	0	29.9998	0.100017	0.100313	-0.0043354	-0.000233345	-0.000233345	14	-6.48182e-05	0	0.000000000000000E+000	6.49583e-09	0.000000000000000E+000	2.44375e+06	6.48182e-05	0.000000000000000E+000	6.48182e-05	0.0000000E+000	0.000000000000000E+000	-4.34897e-07