File: Data/2025-02-10 exp 4 potential step -0,5 V_C05.mpt
EC-Lab ASCII FILE
Nb header lines : 62

Chronoamperometry / Chronocoulometry

Run on channel : 5 (SN 39658)
User :
CE vs. WE compliance from -10 V to 10 V
Electrode connection : standard
Potential control : Ewe
Ewe ctrl range : min = -2.50 V, max = 2.50 V
Safety Limits :
	Do not start on E overload
Acquisition started on : 02/10/2025 12:42:49.649
Loaded Setting File :  NONE
Saved on :
	File : 2025-02-10 exp2 potential step -0,5 V_C05.mpr
	Directory : C:\Users\thefo\OneDrive\Documents\EC-Lab\Data\CHEM 451\
	Host : 172.24.113.132
Device : VSP (SN 1910)
Address : USB
EC-Lab for windows v11.46 (software)
Internet server v11.40 (firmware)
Command interpretor v11.40 (firmware)
Electrode material :
Initial state :
Electrolyte :
Comments :
Current amplifier : VSPB-4A
Electrode surface area : 0.001 cm²
Characteristic mass : 0.001 g
Equivalent Weight : 0.000 g/eq.
Density : 0.000 g/cm3
Volume (V) : 0.001 cm³
Cycle Definition : Charge/Discharge alternance
Ei (V)              -0.500
vs.                 Ref
ti (h:m:s)          0:00:30.0000
Imax                pass
unit Imax           mA
Imin                pass
unit Imin           mA
dQM                 0.000
unit dQM            mA.h
record              <I>
dI                  5.000
unit dI             µA
dQ                  0.000
unit dQ             mA.h
dt (s)              0.1000
dta (s)             0.1000
E range min (V)     -2.500
E range max (V)     2.500
I Range             Auto
I Range min         Unset
I Range max         Unset
I Range init        Unset
Bandwidth           4
goto Ns'            0
nc cycles           0

mode	ox/red	error	control changes	Ns changes	counter inc.	Ns	time/s	control/V	Ewe/V	<I>/mA	dQ/C	(Q-Qo)/C	I Range	Q charge/discharge/mA.h	half cycle	Energy charge/W.h	Energy discharge/W.h	Capacitance charge/µF	Capacitance discharge/µF	Q discharge/mA.h	Q charge/mA.h	Capacity/mA.h	Efficiency/%	cycle number	P/W
2	0	0	0	0	0	0	0.1	-0.499978	-0.499796	-0.226418	-1.68425e-05	-1.68425e-05	12	-4.67848e-06	0	0.000000000000000E+000	2.33828e-09	0.000000000000000E+000	0.000000000000000E+000	4.67848e-06	0.000000000000000E+000	4.67848e-06	0.0000000E+000	0.000000000000000E+000	0.000113163
2	0	0	0	0	0	0	0.3	-0.499978	-0.499815	-0.123405	-4.55937e-05	-4.55937e-05	12	-1.26649e-05	0	0.000000000000000E+000	6.3308e-09	0.000000000000000E+000	2.38669e+06	1.26649e-05	0.000000000000000E+000	1.26649e-05	0.0000000E+000	0.000000000000000E+000	6.16796e-05
2	0	0	0	0	0	0	0.5	-0.499978	-0.499949	-0.089262	-6.47738e-05	-6.47738e-05	12	-1.79927e-05	0	0.000000000000000E+000	8.99411e-09	0.000000000000000E+000	424005	1.79927e-05	0.000000000000000E+000	1.79927e-05	0.0000000E+000	0.000000000000000E+000	4.46264e-05
2	0	0	0	0	0	0	0.7	-0.499978	-0.499815	-0.0727283	-8.00307e-05	-8.00307e-05	12	-2.22308e-05	0	0.000000000000000E+000	1.11124e-08	0.000000000000000E+000	4.18937e+06	2.22308e-05	0.000000000000000E+000	2.22308e-05	0.0000000E+000	0.000000000000000E+000	3.63507e-05
2	0	0	0	0	0	0	0.9	-0.499978	-0.499815	-0.0625786	-9.30031e-05	-9.30031e-05	12	-2.58342e-05	0	0.000000000000000E+000	1.29134e-08	0.000000000000000E+000	4.86844e+06	2.58342e-05	0.000000000000000E+000	2.58342e-05	0.0000000E+000	0.000000000000000E+000	3.12777e-05
2	0	0	0	0	0	0	1.1	-0.499978	-0.499891	-0.055524	-0.000104432	-0.000104432	12	-2.90089e-05	0	0.000000000000000E+000	1.45002e-08	0.000000000000000E+000	1.09368e+06	2.90089e-05	0.000000000000000E+000	2.90089e-05	0.0000000E+000	0.000000000000000E+000	2.7756e-05
2	0	0	0	0	0	0	1.3	-0.499978	-0.499891	-0.0503	-0.000114736	-0.000114736	12	-3.1871e-05	0	0.000000000000000E+000	1.5931e-08	0.000000000000000E+000	1.20159e+06	3.1871e-05	0.000000000000000E+000	3.1871e-05	0.0000000E+000	0.000000000000000E+000	2.51446e-05
2	0	0	0	0	0	0	1.5	-0.499978	-0.499891	-0.0462402	-0.000124175	-0.000124175	12	-3.44932e-05	0	0.000000000000000E+000	1.72419e-08	0.000000000000000E+000	1.30045e+06	3.44932e-05	0.000000000000000E+000	3.44932e-05	0.0000000E+000	0.000000000000000E+000	2.31151e-05
2	0	0	0	0	0	0	1.7	-0.499978	-0.499968	-0.0429124	-0.000132928	-0.000132928	13	-3.69245e-05	0	0.000000000000000E+000	1.84574e-08	0.000000000000000E+000	773423	3.69245e-05	0.000000000000000E+000	3.69245e-05	0.0000000E+000	0.000000000000000E+000	2.14548e-05
2	0	0	0	0	0	0	1.9	-0.499978	-0.49991	-0.0402363	-0.000141103	-0.000141103	13	-3.91952e-05	0	0.000000000000000E+000	1.95925e-08	0.000000000000000E+000	1.23137e+06	3.91952e-05	0.000000000000000E+000	3.91952e-05	0.0000000E+000	0.000000000000000E+000	2.01146e-05
2	0	0	0	0	0	0	2.1	-0.499978	-0.500006	-0.0379774	-0.000148806	-0.000148806	13	-4.13351e-05	0	0.000000000000000E+000	2.06624e-08	0.000000000000000E+000	708343	4.13351e-05	0.000000000000000E+000	4.13351e-05	0.0000000E+000	0.000000000000000E+000	1.89889e-05
2	0	0	0	0	0	0	2.3	-0.499978	-0.499949	-0.0360468	-0.000156109	-0.000156109	13	-4.33635e-05	0	0.000000000000000E+000	2.16766e-08	0.000000000000000E+000	1.02188e+06	4.33635e-05	0.000000000000000E+000	4.33635e-05	0.0000000E+000	0.000000000000000E+000	1.80215e-05
2	0	0	0	0	0	0	2.5	-0.499978	-0.500044	-0.0343771	-0.000163065	-0.000163065	13	-4.52957e-05	0	0.000000000000000E+000	2.26426e-08	0.000000000000000E+000	656927	4.52957e-05	0.000000000000000E+000	4.52957e-05	0.0000000E+000	0.000000000000000E+000	1.71901e-05
2	0	0	0	0	0	0	2.7	-0.499978	-0.499987	-0.0329159	-0.000169718	-0.000169718	13	-4.7144e-05	0	0.000000000000000E+000	2.35667e-08	0.000000000000000E+000	888703	4.7144e-05	0.000000000000000E+000	4.7144e-05	0.0000000E+000	0.000000000000000E+000	1.64575e-05
2	0	0	0	0	0	0	2.9	-0.499978	-0.499815	-0.0316319	-0.000176107	-0.000176107	13	-4.89186e-05	0	0.000000000000000E+000	2.44537e-08	0.000000000000000E+000	9.21868e+06	4.89186e-05	0.000000000000000E+000	4.89186e-05	0.0000000E+000	0.000000000000000E+000	1.58101e-05
2	0	0	0	0	0	0	3.1	-0.499978	-0.499853	-0.0304834	-0.00018226	-0.00018226	13	-5.06277e-05	0	0.000000000000000E+000	2.53079e-08	0.000000000000000E+000	3.1819e+06	5.06277e-05	0.000000000000000E+000	5.06277e-05	0.0000000E+000	0.000000000000000E+000	1.52372e-05
2	0	0	0	0	0	0	3.3	-0.499978	-0.499815	-0.0294582	-0.000188201	-0.000188201	13	-5.2278e-05	0	0.000000000000000E+000	2.61329e-08	0.000000000000000E+000	9.85176e+06	5.2278e-05	0.000000000000000E+000	5.2278e-05	0.0000000E+000	0.000000000000000E+000	1.47237e-05
2	0	0	0	0	0	0	3.5	-0.499978	-0.499891	-0.0285279	-0.000193952	-0.000193952	13	-5.38755e-05	0	0.000000000000000E+000	2.69314e-08	0.000000000000000E+000	2.03119e+06	5.38755e-05	0.000000000000000E+000	5.38755e-05	0.0000000E+000	0.000000000000000E+000	1.42609e-05
2	0	0	0	0	0	0	3.7	-0.499978	-0.499853	-0.0276818	-0.00019953	-0.00019953	13	-5.54249e-05	0	0.000000000000000E+000	2.77058e-08	0.000000000000000E+000	3.48341e+06	5.54249e-05	0.000000000000000E+000	5.54249e-05	0.0000000E+000	0.000000000000000E+000	1.38368e-05
2	0	0	0	0	0	0	3.9	-0.499978	-0.499872	-0.0269106	-0.00020495	-0.00020495	13	-5.69306e-05	0	0.000000000000000E+000	2.84584e-08	0.000000000000000E+000	2.68318e+06	5.69306e-05	0.000000000000000E+000	5.69306e-05	0.0000000E+000	0.000000000000000E+000	1.34519e-05
2	0	0	0	0	0	0	4.1	-0.499978	-0.499834	-0.0261976	-0.000210224	-0.000210224	13	-5.83957e-05	0	0.000000000000000E+000	2.91907e-08	0.000000000000000E+000	5.50231e+06	5.83957e-05	0.000000000000000E+000	5.83957e-05	0.0000000E+000	0.000000000000000E+000	1.30944e-05
2	0	0	0	0	0	0	4.3	-0.499978	-0.499815	-0.0255475	-0.000215366	-0.000215366	13	-5.98239e-05	0	0.000000000000000E+000	2.99046e-08	0.000000000000000E+000	1.12738e+07	5.98239e-05	0.000000000000000E+000	5.98239e-05	0.0000000E+000	0.000000000000000E+000	1.2769e-05
2	0	0	0	0	0	0	4.5	-0.499978	-0.499777	-0.0249374	-0.000220383	-0.000220383	13	-6.12176e-05	0	0.000000000000000E+000	3.06011e-08	0.000000000000000E+000	1.15364e+07	6.12176e-05	0.000000000000000E+000	6.12176e-05	0.0000000E+000	0.000000000000000E+000	1.24631e-05
2	0	0	0	0	0	0	4.7	-0.499978	-0.499949	-0.0243707	-0.000225285	-0.000225285	13	-6.25792e-05	0	0.000000000000000E+000	3.12818e-08	0.000000000000000E+000	1.4747e+06	6.25792e-05	0.000000000000000E+000	6.25792e-05	0.0000000E+000	0.000000000000000E+000	1.21841e-05
2	0	0	0	0	0	0	4.9	-0.499978	-0.499853	-0.0238435	-0.00023008	-0.00023008	13	-6.39111e-05	0	0.000000000000000E+000	3.19476e-08	0.000000000000000E+000	4.01675e+06	6.39111e-05	0.000000000000000E+000	6.39111e-05	0.0000000E+000	0.000000000000000E+000	1.19182e-05
2	0	0	0	0	0	0	5.1	-0.499978	-0.499968	-0.0233482	-0.000234774	-0.000234774	13	-6.5215e-05	0	0.000000000000000E+000	3.25994e-08	0.000000000000000E+000	1.366e+06	6.5215e-05	0.000000000000000E+000	6.5215e-05	0.0000000E+000	0.000000000000000E+000	1.16734e-05
2	0	0	0	0	0	0	5.3	-0.499978	-0.499834	-0.0228809	-0.000239373	-0.000239373	13	-6.64926e-05	0	0.000000000000000E+000	3.3238e-08	0.000000000000000E+000	6.26524e+06	6.64926e-05	0.000000000000000E+000	6.64926e-05	0.0000000E+000	0.000000000000000E+000	1.14367e-05
2	0	0	0	0	0	0	5.5	-0.499978	-0.49993	-0.0224495	-0.000243885	-0.000243885	13	-6.77457e-05	0	0.000000000000000E+000	3.38644e-08	0.000000000000000E+000	1.82462e+06	6.77457e-05	0.000000000000000E+000	6.77457e-05	0.0000000E+000	0.000000000000000E+000	1.12232e-05
2	0	0	0	0	0	0	5.7	-0.499978	-0.499796	-0.0220373	-0.000248312	-0.000248312	13	-6.89756e-05	0	0.000000000000000E+000	3.44791e-08	0.000000000000000E+000	0.000000000000000E+000	6.89756e-05	0.000000000000000E+000	6.89756e-05	0.0000000E+000	0.000000000000000E+000	1.10142e-05
2	0	0	0	0	0	0	5.9	-0.499978	-0.499949	-0.0216485	-0.000252661	-0.000252661	13	-7.01837e-05	0	0.000000000000000E+000	3.50831e-08	0.000000000000000E+000	1.6539e+06	7.01837e-05	0.000000000000000E+000	7.01837e-05	0.0000000E+000	0.000000000000000E+000	1.08231e-05
2	0	0	0	0	0	0	6.1	-0.499978	-0.499853	-0.0212814	-0.000256936	-0.000256936	13	-7.1371e-05	0	0.000000000000000E+000	3.56766e-08	0.000000000000000E+000	4.4856e+06	7.1371e-05	0.000000000000000E+000	7.1371e-05	0.0000000E+000	0.000000000000000E+000	1.06376e-05
2	0	0	0	0	0	0	6.3	-0.499978	-0.499834	-0.020938	-0.00026114	-0.00026114	13	-7.25388e-05	0	0.000000000000000E+000	3.62604e-08	0.000000000000000E+000	6.83494e+06	7.25388e-05	0.000000000000000E+000	7.25388e-05	0.0000000E+000	0.000000000000000E+000	1.04655e-05
2	0	0	0	0	0	0	6.5	-0.499978	-0.499872	-0.0206078	-0.000265278	-0.000265278	13	-7.36883e-05	0	0.000000000000000E+000	3.68349e-08	0.000000000000000E+000	3.47298e+06	7.36883e-05	0.000000000000000E+000	7.36883e-05	0.0000000E+000	0.000000000000000E+000	1.03013e-05
2	0	0	0	0	0	0	6.7	-0.499978	-0.499834	-0.0202951	-0.000269352	-0.000269352	13	-7.48201e-05	0	0.000000000000000E+000	3.74006e-08	0.000000000000000E+000	7.0499e+06	7.48201e-05	0.000000000000000E+000	7.48201e-05	0.0000000E+000	0.000000000000000E+000	1.01442e-05
2	0	0	0	0	0	0	6.9	-0.499978	-0.499777	-0.0199949	-0.000273366	-0.000273366	13	-7.5935e-05	0	0.000000000000000E+000	3.79579e-08	0.000000000000000E+000	1.43099e+07	7.5935e-05	0.000000000000000E+000	7.5935e-05	0.0000000E+000	0.000000000000000E+000	9.99301e-06
2	0	0	0	0	0	0	7.1	-0.499978	-0.49993	-0.019708	-0.000277322	-0.000277322	13	-7.70338e-05	0	0.000000000000000E+000	3.85071e-08	0.000000000000000E+000	2.07478e+06	7.70338e-05	0.000000000000000E+000	7.70338e-05	0.0000000E+000	0.000000000000000E+000	9.85263e-06
2	0	0	0	0	0	0	7.3	-0.499978	-0.499834	-0.0194336	-0.000281222	-0.000281222	13	-7.81173e-05	0	0.000000000000000E+000	3.90487e-08	0.000000000000000E+000	7.36057e+06	7.81173e-05	0.000000000000000E+000	7.81173e-05	0.0000000E+000	0.000000000000000E+000	9.71358e-06
2	0	0	0	0	0	0	7.5	-0.499978	-0.499872	-0.0191717	-0.00028507	-0.00028507	13	-7.9186e-05	0	0.000000000000000E+000	3.95829e-08	0.000000000000000E+000	3.73209e+06	7.9186e-05	0.000000000000000E+000	7.9186e-05	0.0000000E+000	0.000000000000000E+000	9.58339e-06
2	0	0	0	0	0	0	7.7	-0.499978	-0.499853	-0.0189222	-0.000288866	-0.000288866	13	-8.02406e-05	0	0.000000000000000E+000	4.01101e-08	0.000000000000000E+000	5.04305e+06	8.02406e-05	0.000000000000000E+000	8.02406e-05	0.0000000E+000	0.000000000000000E+000	9.4583e-06
2	0	0	0	0	0	0	7.9	-0.499978	-0.499796	-0.0186823	-0.000292615	-0.000292615	13	-8.12819e-05	0	0.000000000000000E+000	4.06305e-08	0.000000000000000E+000	0.000000000000000E+000	8.12819e-05	0.000000000000000E+000	8.12819e-05	0.0000000E+000	0.000000000000000E+000	9.33736e-06
2	0	0	0	0	0	0	8.1	-0.499978	-0.49993	-0.0184473	-0.000296316	-0.000296316	13	-8.23099e-05	0	0.000000000000000E+000	4.11443e-08	0.000000000000000E+000	2.21688e+06	8.23099e-05	0.000000000000000E+000	8.23099e-05	0.0000000E+000	0.000000000000000E+000	9.22237e-06
2	0	0	0	0	0	0	8.3	-0.499978	-0.49993	-0.0182225	-0.000299971	-0.000299971	13	-8.33254e-05	0	0.000000000000000E+000	4.1652e-08	0.000000000000000E+000	2.24423e+06	8.33254e-05	0.000000000000000E+000	8.33254e-05	0.0000000E+000	0.000000000000000E+000	9.10997e-06
2	0	0	0	0	0	0	8.5	-0.499978	-0.499872	-0.0180091	-0.000303584	-0.000303584	13	-8.43288e-05	0	0.000000000000000E+000	4.21537e-08	0.000000000000000E+000	3.97448e+06	8.43288e-05	0.000000000000000E+000	8.43288e-05	0.0000000E+000	0.000000000000000E+000	9.00223e-06
2	0	0	0	0	0	0	8.7	-0.499978	-0.499949	-0.0178031	-0.000307155	-0.000307155	13	-8.53207e-05	0	0.000000000000000E+000	4.26496e-08	0.000000000000000E+000	2.01061e+06	8.53207e-05	0.000000000000000E+000	8.53207e-05	0.0000000E+000	0.000000000000000E+000	8.90065e-06
2	0	0	0	0	0	0	8.9	-0.499978	-0.499968	-0.0175978	-0.000310684	-0.000310684	13	-8.63012e-05	0	0.000000000000000E+000	4.31397e-08	0.000000000000000E+000	1.80767e+06	8.63012e-05	0.000000000000000E+000	8.63012e-05	0.0000000E+000	0.000000000000000E+000	8.79833e-06
2	0	0	0	0	0	0	9.1	-0.499978	-0.499872	-0.0174022	-0.000314174	-0.000314174	13	-8.72706e-05	0	0.000000000000000E+000	4.36243e-08	0.000000000000000E+000	4.11313e+06	8.72706e-05	0.000000000000000E+000	8.72706e-05	0.0000000E+000	0.000000000000000E+000	8.69889e-06
2	0	0	0	0	0	0	9.3	-0.499978	-0.499777	-0.0172101	-0.000317626	-0.000317626	13	-8.82294e-05	0	0.000000000000000E+000	4.41035e-08	0.000000000000000E+000	1.66268e+07	8.82294e-05	0.000000000000000E+000	8.82294e-05	0.0000000E+000	0.000000000000000E+000	8.6012e-06
2	0	0	0	0	0	0	9.5	-0.499978	-0.499968	-0.0170281	-0.000321041	-0.000321041	13	-8.9178e-05	0	0.000000000000000E+000	4.45777e-08	0.000000000000000E+000	1.86793e+06	8.9178e-05	0.000000000000000E+000	8.9178e-05	0.0000000E+000	0.000000000000000E+000	8.51348e-06
2	0	0	0	0	0	0	9.7	-0.499978	-0.499815	-0.0168531	-0.00032442	-0.00032442	13	-9.01167e-05	0	0.000000000000000E+000	4.50469e-08	0.000000000000000E+000	1.69824e+07	9.01167e-05	0.000000000000000E+000	9.01167e-05	0.0000000E+000	0.000000000000000E+000	8.42346e-06
2	0	0	0	0	0	0	9.9	-0.499978	-0.499815	-0.0166868	-0.000327765	-0.000327765	13	-9.1046e-05	0	0.000000000000000E+000	4.55114e-08	0.000000000000000E+000	1.71575e+07	9.1046e-05	0.000000000000000E+000	9.1046e-05	0.0000000E+000	0.000000000000000E+000	8.3403e-06
2	0	0	0	0	0	0	10.1	-0.499978	-0.499796	-0.0165228	-0.000331078	-0.000331078	13	-9.19662e-05	0	0.000000000000000E+000	4.59714e-08	0.000000000000000E+000	0.000000000000000E+000	9.19662e-05	0.000000000000000E+000	9.19662e-05	0.0000000E+000	0.000000000000000E+000	8.25804e-06
2	0	0	0	0	0	0	10.3	-0.499978	-0.499853	-0.0163673	-0.00033436	-0.00033436	13	-9.28777e-05	0	0.000000000000000E+000	4.6427e-08	0.000000000000000E+000	5.83728e+06	9.28777e-05	0.000000000000000E+000	9.28777e-05	0.0000000E+000	0.000000000000000E+000	8.18126e-06
2	0	0	0	0	0	0	10.5	-0.499978	-0.499891	-0.0162131	-0.00033761	-0.00033761	13	-9.37805e-05	0	0.000000000000000E+000	4.68783e-08	0.000000000000000E+000	3.53568e+06	9.37805e-05	0.000000000000000E+000	9.37805e-05	0.0000000E+000	0.000000000000000E+000	8.1048e-06
2	0	0	0	0	0	0	10.7	-0.499978	-0.49991	-0.0160647	-0.00034083	-0.00034083	13	-9.4675e-05	0	0.000000000000000E+000	4.73255e-08	0.000000000000000E+000	2.97435e+06	9.4675e-05	0.000000000000000E+000	9.4675e-05	0.0000000E+000	0.000000000000000E+000	8.03093e-06
2	0	0	0	0	0	0	10.9	-0.499978	-0.499834	-0.0159206	-0.000344021	-0.000344021	13	-9.55615e-05	0	0.000000000000000E+000	4.77686e-08	0.000000000000000E+000	9.00424e+06	9.55615e-05	0.000000000000000E+000	9.55615e-05	0.0000000E+000	0.000000000000000E+000	7.95765e-06
2	0	0	0	0	0	0	11.1	-0.499978	-0.499815	-0.0157698	-0.000347183	-0.000347183	13	-9.64398e-05	0	0.000000000000000E+000	4.82076e-08	0.000000000000000E+000	1.8174e+07	9.64398e-05	0.000000000000000E+000	9.64398e-05	0.0000000E+000	0.000000000000000E+000	7.88196e-06
2	0	0	0	0	0	0	11.3	-0.499978	-0.499815	-0.0156383	-0.000350318	-0.000350318	13	-9.73104e-05	0	0.000000000000000E+000	4.86428e-08	0.000000000000000E+000	1.83381e+07	9.73104e-05	0.000000000000000E+000	9.73104e-05	0.0000000E+000	0.000000000000000E+000	7.81626e-06
2	0	0	0	0	0	0	11.5	-0.499978	-0.499834	-0.0155021	-0.000353425	-0.000353425	13	-9.81735e-05	0	0.000000000000000E+000	4.90742e-08	0.000000000000000E+000	9.25036e+06	9.81735e-05	0.000000000000000E+000	9.81735e-05	0.0000000E+000	0.000000000000000E+000	7.74847e-06
2	0	0	0	0	0	0	11.7	-0.499978	-0.499968	-0.0153765	-0.000356506	-0.000356506	13	-9.90296e-05	0	0.000000000000000E+000	4.95021e-08	0.000000000000000E+000	2.07428e+06	9.90296e-05	0.000000000000000E+000	9.90296e-05	0.0000000E+000	0.000000000000000E+000	7.68774e-06
2	0	0	0	0	0	0	11.9	-0.499978	-0.500006	-0.0152526	-0.000359563	-0.000359563	13	-9.98786e-05	0	0.000000000000000E+000	4.99266e-08	0.000000000000000E+000	1.71158e+06	9.98786e-05	0.000000000000000E+000	9.98786e-05	0.0000000E+000	0.000000000000000E+000	7.6264e-06
2	0	0	0	0	0	0	12.1	-0.499978	-0.499853	-0.0151356	-0.000362596	-0.000362596	13	-0.000100721	0	0.000000000000000E+000	5.03477e-08	0.000000000000000E+000	6.33023e+06	0.000100721	0.000000000000000E+000	0.000100721	0.0000000E+000	0.000000000000000E+000	7.56555e-06
2	0	0	0	0	0	0	12.3	-0.499978	-0.499891	-0.0150189	-0.000365605	-0.000365605	13	-0.000101557	0	0.000000000000000E+000	5.07655e-08	0.000000000000000E+000	3.82886e+06	0.000101557	0.000000000000000E+000	0.000101557	0.0000000E+000	0.000000000000000E+000	7.50784e-06
2	0	0	0	0	0	0	12.5	-0.499978	-0.499777	-0.0149048	-0.000368592	-0.000368592	13	-0.000102387	0	0.000000000000000E+000	5.11802e-08	0.000000000000000E+000	1.92947e+07	0.000102387	0.000000000000000E+000	0.000102387	0.0000000E+000	0.000000000000000E+000	7.44907e-06
2	0	0	0	0	0	0	12.7	-0.499978	-0.499834	-0.0147933	-0.000371556	-0.000371556	13	-0.00010321	0	0.000000000000000E+000	5.15918e-08	0.000000000000000E+000	9.72492e+06	0.00010321	0.000000000000000E+000	0.00010321	0.0000000E+000	0.000000000000000E+000	7.39421e-06
2	0	0	0	0	0	0	12.9	-0.499978	-0.499853	-0.0146816	-0.000374498	-0.000374498	13	-0.000104027	0	0.000000000000000E+000	5.20003e-08	0.000000000000000E+000	6.53801e+06	0.000104027	0.000000000000000E+000	0.000104027	0.0000000E+000	0.000000000000000E+000	7.33866e-06
2	0	0	0	0	0	0	13.1	-0.499978	-0.499834	-0.0145735	-0.000377418	-0.000377418	13	-0.000104838	0	0.000000000000000E+000	5.24057e-08	0.000000000000000E+000	9.87835e+06	0.000104838	0.000000000000000E+000	0.000104838	0.0000000E+000	0.000000000000000E+000	7.28432e-06
2	0	0	0	0	0	0	13.3	-0.499978	-0.49993	-0.0144707	-0.000380317	-0.000380317	13	-0.000105644	0	0.000000000000000E+000	5.28083e-08	0.000000000000000E+000	2.84533e+06	0.000105644	0.000000000000000E+000	0.000105644	0.0000000E+000	0.000000000000000E+000	7.23433e-06
2	0	0	0	0	0	0	13.5	-0.499978	-0.499872	-0.0143692	-0.000383196	-0.000383196	13	-0.000106443	0	0.000000000000000E+000	5.32081e-08	0.000000000000000E+000	5.01674e+06	0.000106443	0.000000000000000E+000	0.000106443	0.0000000E+000	0.000000000000000E+000	7.18274e-06
2	0	0	0	0	0	0	13.7	-0.499978	-0.499834	-0.0142701	-0.000386055	-0.000386055	13	-0.000107237	0	0.000000000000000E+000	5.3605e-08	0.000000000000000E+000	1.01044e+07	0.000107237	0.000000000000000E+000	0.000107237	0.0000000E+000	0.000000000000000E+000	7.13267e-06
2	0	0	0	0	0	0	13.9	-0.499978	-0.49993	-0.0141709	-0.000388894	-0.000388894	13	-0.000108026	0	0.000000000000000E+000	5.39992e-08	0.000000000000000E+000	2.9095e+06	0.000108026	0.000000000000000E+000	0.000108026	0.0000000E+000	0.000000000000000E+000	7.08446e-06
2	0	0	0	0	0	0	14.1	-0.499978	-0.499834	-0.0140765	-0.000391714	-0.000391714	13	-0.000108809	0	0.000000000000000E+000	5.43908e-08	0.000000000000000E+000	1.02525e+07	0.000108809	0.000000000000000E+000	0.000108809	0.0000000E+000	0.000000000000000E+000	7.03594e-06
2	0	0	0	0	0	0	14.3	-0.499978	-0.499796	-0.0139847	-0.000394515	-0.000394515	13	-0.000109588	0	0.000000000000000E+000	5.47798e-08	0.000000000000000E+000	0.000000000000000E+000	0.000109588	0.000000000000000E+000	0.000109588	0.0000000E+000	0.000000000000000E+000	6.98952e-06
2	0	0	0	0	0	0	14.5	-0.499978	-0.499834	-0.0138942	-0.000397298	-0.000397298	13	-0.000110361	0	0.000000000000000E+000	5.51662e-08	0.000000000000000E+000	1.03987e+07	0.000110361	0.000000000000000E+000	0.000110361	0.0000000E+000	0.000000000000000E+000	6.9448e-06
2	0	0	0	0	0	0	14.7	-0.499978	-0.49991	-0.0138068	-0.000400064	-0.000400064	13	-0.000111129	0	0.000000000000000E+000	5.55503e-08	0.000000000000000E+000	3.49127e+06	0.000111129	0.000000000000000E+000	0.000111129	0.0000000E+000	0.000000000000000E+000	6.90219e-06
2	0	0	0	0	0	0	14.9	-0.499978	-0.49993	-0.0137204	-0.000402813	-0.000402813	13	-0.000111892	0	0.000000000000000E+000	5.59319e-08	0.000000000000000E+000	3.01363e+06	0.000111892	0.000000000000000E+000	0.000111892	0.0000000E+000	0.000000000000000E+000	6.85924e-06
2	0	0	0	0	0	0	15.1	-0.499978	-0.499853	-0.0136381	-0.000405544	-0.000405544	13	-0.000112651	0	0.000000000000000E+000	5.63112e-08	0.000000000000000E+000	7.08002e+06	0.000112651	0.000000000000000E+000	0.000112651	0.0000000E+000	0.000000000000000E+000	6.81706e-06
2	0	0	0	0	0	0	15.3	-0.499978	-0.499872	-0.0135501	-0.000408258	-0.000408258	13	-0.000113405	0	0.000000000000000E+000	5.66881e-08	0.000000000000000E+000	5.34486e+06	0.000113405	0.000000000000000E+000	0.000113405	0.0000000E+000	0.000000000000000E+000	6.77334e-06
2	0	0	0	0	0	0	15.5	-0.499978	-0.499815	-0.0134732	-0.000410958	-0.000410958	13	-0.000114155	0	0.000000000000000E+000	5.70629e-08	0.000000000000000E+000	2.15124e+07	0.000114155	0.000000000000000E+000	0.000114155	0.0000000E+000	0.000000000000000E+000	6.73408e-06
2	0	0	0	0	0	0	15.7	-0.499978	-0.499872	-0.0133902	-0.00041364	-0.00041364	13	-0.0001149	0	0.000000000000000E+000	5.74353e-08	0.000000000000000E+000	5.41531e+06	0.0001149	0.000000000000000E+000	0.0001149	0.0000000E+000	0.000000000000000E+000	6.69338e-06
2	0	0	0	0	0	0	15.9	-0.499978	-0.499815	-0.0133113	-0.000416306	-0.000416306	13	-0.000115641	0	0.000000000000000E+000	5.78054e-08	0.000000000000000E+000	2.17924e+07	0.000115641	0.000000000000000E+000	0.000115641	0.0000000E+000	0.000000000000000E+000	6.6532e-06
2	0	0	0	0	0	0	16.1	-0.499978	-0.499872	-0.0132342	-0.000418957	-0.000418957	13	-0.000116377	0	0.000000000000000E+000	5.81735e-08	0.000000000000000E+000	5.48492e+06	0.000116377	0.000000000000000E+000	0.000116377	0.0000000E+000	0.000000000000000E+000	6.61542e-06
2	0	0	0	0	0	0	16.3	-0.499978	-0.49991	-0.013161	-0.000421592	-0.000421592	13	-0.000117109	0	0.000000000000000E+000	5.85395e-08	0.000000000000000E+000	3.67914e+06	0.000117109	0.000000000000000E+000	0.000117109	0.0000000E+000	0.000000000000000E+000	6.57933e-06
2	0	0	0	0	0	0	16.5	-0.499978	-0.49991	-0.0130868	-0.000424213	-0.000424213	13	-0.000117837	0	0.000000000000000E+000	5.89035e-08	0.000000000000000E+000	3.70201e+06	0.000117837	0.000000000000000E+000	0.000117837	0.0000000E+000	0.000000000000000E+000	6.54221e-06
2	0	0	0	0	0	0	16.7	-0.499978	-0.499796	-0.0130111	-0.000426819	-0.000426819	13	-0.000118561	0	0.000000000000000E+000	5.92653e-08	0.000000000000000E+000	0.000000000000000E+000	0.000118561	0.000000000000000E+000	0.000118561	0.0000000E+000	0.000000000000000E+000	6.50289e-06
2	0	0	0	0	0	0	16.9	-0.499978	-0.49991	-0.0129313	-0.000429409	-0.000429409	13	-0.00011928	0	0.000000000000000E+000	5.96249e-08	0.000000000000000E+000	3.74736e+06	0.00011928	0.000000000000000E+000	0.00011928	0.0000000E+000	0.000000000000000E+000	6.46448e-06
2	0	0	0	0	0	0	17.1	-0.499978	-0.49991	-0.0128593	-0.000431985	-0.000431985	13	-0.000119996	0	0.000000000000000E+000	5.99826e-08	0.000000000000000E+000	3.76983e+06	0.000119996	0.000000000000000E+000	0.000119996	0.0000000E+000	0.000000000000000E+000	6.42851e-06
2	0	0	0	0	0	0	17.3	-0.499978	-0.499853	-0.0127895	-0.000434546	-0.000434546	13	-0.000120707	0	0.000000000000000E+000	6.03382e-08	0.000000000000000E+000	7.58634e+06	0.000120707	0.000000000000000E+000	0.000120707	0.0000000E+000	0.000000000000000E+000	6.39287e-06
2	0	0	0	0	0	0	17.5	-0.499978	-0.499872	-0.012721	-0.000437093	-0.000437093	13	-0.000121415	0	0.000000000000000E+000	6.0692e-08	0.000000000000000E+000	5.72236e+06	0.000121415	0.000000000000000E+000	0.000121415	0.0000000E+000	0.000000000000000E+000	6.3589e-06
2	0	0	0	0	0	0	17.7	-0.499978	-0.499796	-0.0126531	-0.000439627	-0.000439627	13	-0.000122119	0	0.000000000000000E+000	6.10438e-08	0.000000000000000E+000	0.000000000000000E+000	0.000122119	0.000000000000000E+000	0.000122119	0.0000000E+000	0.000000000000000E+000	6.32398e-06
2	0	0	0	0	0	0	17.9	-0.499978	-0.499853	-0.0125866	-0.000442148	-0.000442148	13	-0.000122819	0	0.000000000000000E+000	6.13937e-08	0.000000000000000E+000	7.71906e+06	0.000122819	0.000000000000000E+000	0.000122819	0.0000000E+000	0.000000000000000E+000	6.29143e-06
2	0	0	0	0	0	0	18.1	-0.499978	-0.49993	-0.0125209	-0.000444655	-0.000444655	13	-0.000123515	0	0.000000000000000E+000	6.17419e-08	0.000000000000000E+000	3.32668e+06	0.000123515	0.000000000000000E+000	0.000123515	0.0000000E+000	0.000000000000000E+000	6.25957e-06
2	0	0	0	0	0	0	18.3	-0.499978	-0.499987	-0.0124572	-0.00044715	-0.00044715	13	-0.000124208	0	0.000000000000000E+000	6.20883e-08	0.000000000000000E+000	2.34143e+06	0.000124208	0.000000000000000E+000	0.000124208	0.0000000E+000	0.000000000000000E+000	6.22841e-06
2	0	0	0	0	0	0	18.5	-0.499978	-0.499815	-0.012392	-0.000449631	-0.000449631	13	-0.000124898	0	0.000000000000000E+000	6.24328e-08	0.000000000000000E+000	2.35369e+07	0.000124898	0.000000000000000E+000	0.000124898	0.0000000E+000	0.000000000000000E+000	6.19372e-06
2	0	0	0	0	0	0	18.7	-0.499978	-0.499872	-0.0123304	-0.0004521	-0.0004521	13	-0.000125583	0	0.000000000000000E+000	6.27757e-08	0.000000000000000E+000	5.91884e+06	0.000125583	0.000000000000000E+000	0.000125583	0.0000000E+000	0.000000000000000E+000	6.16361e-06
2	0	0	0	0	0	0	18.9	-0.499978	-0.499853	-0.0122721	-0.000454558	-0.000454558	13	-0.000126266	0	0.000000000000000E+000	6.31169e-08	0.000000000000000E+000	7.93571e+06	0.000126266	0.000000000000000E+000	0.000126266	0.0000000E+000	0.000000000000000E+000	6.13426e-06
2	0	0	0	0	0	0	19.1	-0.499978	-0.499872	-0.0122135	-0.000457003	-0.000457003	13	-0.000126945	0	0.000000000000000E+000	6.34565e-08	0.000000000000000E+000	5.98302e+06	0.000126945	0.000000000000000E+000	0.000126945	0.0000000E+000	0.000000000000000E+000	6.10519e-06
2	0	0	0	0	0	0	19.3	-0.499978	-0.499872	-0.0121573	-0.000459438	-0.000459438	13	-0.000127622	0	0.000000000000000E+000	6.37945e-08	0.000000000000000E+000	6.01489e+06	0.000127622	0.000000000000000E+000	0.000127622	0.0000000E+000	0.000000000000000E+000	6.07712e-06
2	0	0	0	0	0	0	19.5	-0.499978	-0.49993	-0.0121011	-0.000461861	-0.000461861	13	-0.000128295	0	0.000000000000000E+000	6.4131e-08	0.000000000000000E+000	3.4554e+06	0.000128295	0.000000000000000E+000	0.000128295	0.0000000E+000	0.000000000000000E+000	6.04968e-06
2	0	0	0	0	0	0	19.7	-0.499978	-0.499853	-0.012048	-0.000464273	-0.000464273	13	-0.000128965	0	0.000000000000000E+000	6.44659e-08	0.000000000000000E+000	8.10531e+06	0.000128965	0.000000000000000E+000	0.000128965	0.0000000E+000	0.000000000000000E+000	6.02223e-06
2	0	0	0	0	0	0	19.9	-0.499978	-0.49991	-0.011992	-0.000466674	-0.000466674	13	-0.000129632	0	0.000000000000000E+000	6.47993e-08	0.000000000000000E+000	4.07256e+06	0.000129632	0.000000000000000E+000	0.000129632	0.0000000E+000	0.000000000000000E+000	5.99493e-06
2	0	0	0	0	0	0	20.1	-0.499978	-0.499834	-0.0119414	-0.000469065	-0.000469065	13	-0.000130296	0	0.000000000000000E+000	6.51312e-08	0.000000000000000E+000	1.22771e+07	0.000130296	0.000000000000000E+000	0.000130296	0.0000000E+000	0.000000000000000E+000	5.96873e-06
2	0	0	0	0	0	0	20.3	-0.499978	-0.499758	-0.0118882	-0.000471445	-0.000471445	13	-0.000130957	0	0.000000000000000E+000	6.54617e-08	0.000000000000000E+000	1.23394e+07	0.000130957	0.000000000000000E+000	0.000130957	0.0000000E+000	0.000000000000000E+000	5.94121e-06
2	0	0	0	0	0	0	20.5	-0.499978	-0.499815	-0.0118332	-0.000473815	-0.000473815	13	-0.000131615	0	0.000000000000000E+000	6.57907e-08	0.000000000000000E+000	2.48028e+07	0.000131615	0.000000000000000E+000	0.000131615	0.0000000E+000	0.000000000000000E+000	5.91442e-06
2	0	0	0	0	0	0	20.7	-0.499978	-0.499968	-0.0117841	-0.000476174	-0.000476174	13	-0.000132271	0	0.000000000000000E+000	6.61183e-08	0.000000000000000E+000	2.77055e+06	0.000132271	0.000000000000000E+000	0.000132271	0.0000000E+000	0.000000000000000E+000	5.89167e-06
2	0	0	0	0	0	0	20.9	-0.499978	-0.499834	-0.0117353	-0.000478524	-0.000478524	13	-0.000132923	0	0.000000000000000E+000	6.64445e-08	0.000000000000000E+000	1.25246e+07	0.000132923	0.000000000000000E+000	0.000132923	0.0000000E+000	0.000000000000000E+000	5.86571e-06
2	0	0	0	0	0	0	21.1	-0.499978	-0.499796	-0.0116825	-0.000480863	-0.000480863	13	-0.000133573	0	0.000000000000000E+000	6.67693e-08	0.000000000000000E+000	0.000000000000000E+000	0.000133573	0.000000000000000E+000	0.000133573	0.0000000E+000	0.000000000000000E+000	5.83886e-06
2	0	0	0	0	0	0	21.3	-0.499978	-0.499815	-0.0116306	-0.000483191	-0.000483191	13	-0.00013422	0	0.000000000000000E+000	6.70926e-08	0.000000000000000E+000	2.52936e+07	0.00013422	0.000000000000000E+000	0.00013422	0.0000000E+000	0.000000000000000E+000	5.81317e-06
2	0	0	0	0	0	0	21.5	-0.499978	-0.49993	-0.0115787	-0.00048551	-0.00048551	13	-0.000134864	0	0.000000000000000E+000	6.74145e-08	0.000000000000000E+000	3.63233e+06	0.000134864	0.000000000000000E+000	0.000134864	0.0000000E+000	0.000000000000000E+000	5.78854e-06
2	0	0	0	0	0	0	21.7	-0.499978	-0.499796	-0.0115255	-0.000487818	-0.000487818	13	-0.000135505	0	0.000000000000000E+000	6.7735e-08	0.000000000000000E+000	0.000000000000000E+000	0.000135505	0.000000000000000E+000	0.000135505	0.0000000E+000	0.000000000000000E+000	5.76042e-06
2	0	0	0	0	0	0	21.9	-0.499978	-0.499891	-0.0114728	-0.000490115	-0.000490115	13	-0.000136143	0	0.000000000000000E+000	6.80539e-08	0.000000000000000E+000	5.13281e+06	0.000136143	0.000000000000000E+000	0.000136143	0.0000000E+000	0.000000000000000E+000	5.73515e-06
2	0	0	0	0	0	0	22.1	-0.499978	-0.499758	-0.0114206	-0.000492402	-0.000492402	13	-0.000136778	0	0.000000000000000E+000	6.83713e-08	0.000000000000000E+000	1.28879e+07	0.000136778	0.000000000000000E+000	0.000136778	0.0000000E+000	0.000000000000000E+000	5.70754e-06
2	0	0	0	0	0	0	22.3	-0.499978	-0.499796	-0.0113701	-0.000494678	-0.000494678	13	-0.000137411	0	0.000000000000000E+000	6.86874e-08	0.000000000000000E+000	0.000000000000000E+000	0.000137411	0.000000000000000E+000	0.000137411	0.0000000E+000	0.000000000000000E+000	5.68272e-06
2	0	0	0	0	0	0	22.5	-0.499978	-0.499739	-0.0113207	-0.000496945	-0.000496945	13	-0.00013804	0	0.000000000000000E+000	6.90021e-08	0.000000000000000E+000	8.6757e+06	0.00013804	0.000000000000000E+000	0.00013804	0.0000000E+000	0.000000000000000E+000	5.65737e-06
2	0	0	0	0	0	0	22.7	-0.499978	-0.499758	-0.0112723	-0.000499201	-0.000499201	13	-0.000138667	0	0.000000000000000E+000	6.93154e-08	0.000000000000000E+000	1.30659e+07	0.000138667	0.000000000000000E+000	0.000138667	0.0000000E+000	0.000000000000000E+000	5.63343e-06
2	0	0	0	0	0	0	22.9	-0.499978	-0.499853	-0.0112293	-0.000501449	-0.000501449	13	-0.000139291	0	0.000000000000000E+000	6.96275e-08	0.000000000000000E+000	8.75434e+06	0.000139291	0.000000000000000E+000	0.000139291	0.0000000E+000	0.000000000000000E+000	5.613e-06
2	0	0	0	0	0	0	23.1	-0.499978	-0.49993	-0.0111907	-0.00050369	-0.00050369	13	-0.000139914	0	0.000000000000000E+000	6.99386e-08	0.000000000000000E+000	3.76834e+06	0.000139914	0.000000000000000E+000	0.000139914	0.0000000E+000	0.000000000000000E+000	5.59457e-06
2	0	0	0	0	0	0	23.3	-0.499978	-0.499872	-0.0111414	-0.00050592	-0.00050592	13	-0.000140533	0	0.000000000000000E+000	7.02483e-08	0.000000000000000E+000	6.62344e+06	0.000140533	0.000000000000000E+000	0.000140533	0.0000000E+000	0.000000000000000E+000	5.56929e-06
2	0	0	0	0	0	0	23.5	-0.499978	-0.499891	-0.0110804	-0.00050814	-0.00050814	13	-0.00014115	0	0.000000000000000E+000	7.05565e-08	0.000000000000000E+000	5.32158e+06	0.00014115	0.000000000000000E+000	0.00014115	0.0000000E+000	0.000000000000000E+000	5.53901e-06
2	0	0	0	0	0	0	23.7	-0.499978	-0.499796	-0.0110282	-0.000510347	-0.000510347	13	-0.000141763	0	0.000000000000000E+000	7.08629e-08	0.000000000000000E+000	0.000000000000000E+000	0.000141763	0.000000000000000E+000	0.000141763	0.0000000E+000	0.000000000000000E+000	5.51187e-06
2	0	0	0	0	0	0	23.9	-0.499978	-0.49991	-0.0109788	-0.000512545	-0.000512545	13	-0.000142374	0	0.000000000000000E+000	7.11682e-08	0.000000000000000E+000	4.47287e+06	0.000142374	0.000000000000000E+000	0.000142374	0.0000000E+000	0.000000000000000E+000	5.48842e-06
2	0	0	0	0	0	0	24.1	-0.499978	-0.499796	-0.0109273	-0.000514734	-0.000514734	13	-0.000142982	0	0.000000000000000E+000	7.1472e-08	0.000000000000000E+000	0.000000000000000E+000	0.000142982	0.000000000000000E+000	0.000142982	0.0000000E+000	0.000000000000000E+000	5.4614e-06
2	0	0	0	0	0	0	24.3	-0.499978	-0.499949	-0.0108738	-0.000516911	-0.000516911	13	-0.000143586	0	0.000000000000000E+000	7.17743e-08	0.000000000000000E+000	3.38366e+06	0.000143586	0.000000000000000E+000	0.000143586	0.0000000E+000	0.000000000000000E+000	5.43636e-06
2	0	0	0	0	0	0	24.5	-0.499978	-0.499872	-0.0108234	-0.000519078	-0.000519078	13	-0.000144188	0	0.000000000000000E+000	7.20753e-08	0.000000000000000E+000	6.7957e+06	0.000144188	0.000000000000000E+000	0.000144188	0.0000000E+000	0.000000000000000E+000	5.41033e-06
2	0	0	0	0	0	0	24.7	-0.499978	-0.499796	-0.0107744	-0.000521235	-0.000521235	13	-0.000144788	0	0.000000000000000E+000	7.23748e-08	0.000000000000000E+000	0.000000000000000E+000	0.000144788	0.000000000000000E+000	0.000144788	0.0000000E+000	0.000000000000000E+000	5.38499e-06
2	0	0	0	0	0	0	24.9	-0.499978	-0.499949	-0.0107303	-0.000523384	-0.000523384	13	-0.000145384	0	0.000000000000000E+000	7.26731e-08	0.000000000000000E+000	3.42603e+06	0.000145384	0.000000000000000E+000	0.000145384	0.0000000E+000	0.000000000000000E+000	5.36458e-06
2	0	0	0	0	0	0	25.1	-0.499978	-0.499853	-0.0106844	-0.000525523	-0.000525523	13	-0.000145979	0	0.000000000000000E+000	7.29701e-08	0.000000000000000E+000	9.17462e+06	0.000145979	0.000000000000000E+000	0.000145979	0.0000000E+000	0.000000000000000E+000	5.34064e-06
2	0	0	0	0	0	0	25.3	-0.499978	-0.49991	-0.0106407	-0.000527653	-0.000527653	13	-0.00014657	0	0.000000000000000E+000	7.32659e-08	0.000000000000000E+000	4.6047e+06	0.00014657	0.000000000000000E+000	0.00014657	0.0000000E+000	0.000000000000000E+000	5.31939e-06
2	0	0	0	0	0	0	25.5	-0.499978	-0.499968	-0.0105993	-0.000529775	-0.000529775	13	-0.00014716	0	0.000000000000000E+000	7.35606e-08	0.000000000000000E+000	3.08241e+06	0.00014716	0.000000000000000E+000	0.00014716	0.0000000E+000	0.000000000000000E+000	5.29929e-06
2	0	0	0	0	0	0	25.7	-0.499978	-0.499777	-0.0105662	-0.00053189	-0.00053189	13	-0.000147747	0	0.000000000000000E+000	7.38543e-08	0.000000000000000E+000	2.78429e+07	0.000147747	0.000000000000000E+000	0.000147747	0.0000000E+000	0.000000000000000E+000	5.28073e-06
2	0	0	0	0	0	0	25.9	-0.499978	-0.499949	-0.0105195	-0.000533997	-0.000533997	13	-0.000148332	0	0.000000000000000E+000	7.41468e-08	0.000000000000000E+000	3.4955e+06	0.000148332	0.000000000000000E+000	0.000148332	0.0000000E+000	0.000000000000000E+000	5.25922e-06
2	0	0	0	0	0	0	26.1	-0.499978	-0.499834	-0.0104795	-0.000536094	-0.000536094	13	-0.000148915	0	0.000000000000000E+000	7.44381e-08	0.000000000000000E+000	1.40315e+07	0.000148915	0.000000000000000E+000	0.000148915	0.0000000E+000	0.000000000000000E+000	5.23803e-06
2	0	0	0	0	0	0	26.3	-0.499978	-0.49991	-0.0104388	-0.000538184	-0.000538184	13	-0.000149496	0	0.000000000000000E+000	7.47283e-08	0.000000000000000E+000	4.69661e+06	0.000149496	0.000000000000000E+000	0.000149496	0.0000000E+000	0.000000000000000E+000	5.21845e-06
2	0	0	0	0	0	0	26.5	-0.499978	-0.499949	-0.010402	-0.000540267	-0.000540267	13	-0.000150074	0	0.000000000000000E+000	7.50175e-08	0.000000000000000E+000	3.53655e+06	0.000150074	0.000000000000000E+000	0.000150074	0.0000000E+000	0.000000000000000E+000	5.20048e-06
2	0	0	0	0	0	0	26.7	-0.499978	-0.500006	-0.010365	-0.000542341	-0.000542341	13	-0.00015065	0	0.000000000000000E+000	7.53056e-08	0.000000000000000E+000	2.58164e+06	0.00015065	0.000000000000000E+000	0.00015065	0.0000000E+000	0.000000000000000E+000	5.18254e-06
2	0	0	0	0	0	0	26.9	-0.499978	-0.49993	-0.010329	-0.000544409	-0.000544409	13	-0.000151225	0	0.000000000000000E+000	7.55928e-08	0.000000000000000E+000	4.07298e+06	0.000151225	0.000000000000000E+000	0.000151225	0.0000000E+000	0.000000000000000E+000	5.16379e-06
2	0	0	0	0	0	0	27.1	-0.499978	-0.499796	-0.0102924	-0.000546469	-0.000546469	13	-0.000151797	0	0.000000000000000E+000	7.58788e-08	0.000000000000000E+000	0.000000000000000E+000	0.000151797	0.000000000000000E+000	0.000151797	0.0000000E+000	0.000000000000000E+000	5.14412e-06
2	0	0	0	0	0	0	27.3	-0.499978	-0.499815	-0.0102578	-0.000548523	-0.000548523	13	-0.000152367	0	0.000000000000000E+000	7.61639e-08	0.000000000000000E+000	2.87135e+07	0.000152367	0.000000000000000E+000	0.000152367	0.0000000E+000	0.000000000000000E+000	5.12698e-06
2	0	0	0	0	0	0	27.5	-0.499978	-0.499834	-0.0102218	-0.000550569	-0.000550569	13	-0.000152936	0	0.000000000000000E+000	7.6448e-08	0.000000000000000E+000	1.44103e+07	0.000152936	0.000000000000000E+000	0.000152936	0.0000000E+000	0.000000000000000E+000	5.10922e-06
2	0	0	0	0	0	0	27.7	-0.499978	-0.49993	-0.0101867	-0.000552608	-0.000552608	13	-0.000153502	0	0.000000000000000E+000	7.67311e-08	0.000000000000000E+000	4.13432e+06	0.000153502	0.000000000000000E+000	0.000153502	0.0000000E+000	0.000000000000000E+000	5.09263e-06
2	0	0	0	0	0	0	27.9	-0.499978	-0.499777	-0.0101547	-0.00055464	-0.00055464	13	-0.000154067	0	0.000000000000000E+000	7.70133e-08	0.000000000000000E+000	2.90338e+07	0.000154067	0.000000000000000E+000	0.000154067	0.0000000E+000	0.000000000000000E+000	5.07506e-06
2	0	0	0	0	0	0	28.1	-0.499978	-0.499853	-0.0101232	-0.000556667	-0.000556667	13	-0.00015463	0	0.000000000000000E+000	7.72947e-08	0.000000000000000E+000	9.71833e+06	0.00015463	0.000000000000000E+000	0.00015463	0.0000000E+000	0.000000000000000E+000	5.06013e-06
2	0	0	0	0	0	0	28.3	-0.499978	-0.49993	-0.0100913	-0.000558687	-0.000558687	13	-0.000155191	0	0.000000000000000E+000	7.75752e-08	0.000000000000000E+000	4.1798e+06	0.000155191	0.000000000000000E+000	0.000155191	0.0000000E+000	0.000000000000000E+000	5.04493e-06
2	0	0	0	0	0	0	28.5	-0.499978	-0.49991	-0.0100595	-0.0005607	-0.0005607	13	-0.00015575	0	0.000000000000000E+000	7.78547e-08	0.000000000000000E+000	4.8931e+06	0.00015575	0.000000000000000E+000	0.00015575	0.0000000E+000	0.000000000000000E+000	5.02884e-06
2	0	0	0	0	0	0	28.7	-0.499978	-0.499853	-0.0100248	-0.000562707	-0.000562707	13	-0.000156307	0	0.000000000000000E+000	7.81334e-08	0.000000000000000E+000	9.82378e+06	0.000156307	0.000000000000000E+000	0.000156307	0.0000000E+000	0.000000000000000E+000	5.01093e-06
2	0	0	0	0	0	0	28.9	-0.499978	-0.499949	-0.00999148	-0.000564707	-0.000564707	13	-0.000156863	0	0.000000000000000E+000	7.84111e-08	0.000000000000000E+000	3.69653e+06	0.000156863	0.000000000000000E+000	0.000156863	0.0000000E+000	0.000000000000000E+000	4.99523e-06
2	0	0	0	0	0	0	29.1	-0.499978	-0.499853	-0.00995636	-0.0005667	-0.0005667	13	-0.000157417	0	0.000000000000000E+000	7.86879e-08	0.000000000000000E+000	9.89349e+06	0.000157417	0.000000000000000E+000	0.000157417	0.0000000E+000	0.000000000000000E+000	4.97672e-06
2	0	0	0	0	0	0	29.3	-0.499978	-0.499891	-0.00992479	-0.000568687	-0.000568687	13	-0.000157969	0	0.000000000000000E+000	7.89638e-08	0.000000000000000E+000	5.95567e+06	0.000157969	0.000000000000000E+000	0.000157969	0.0000000E+000	0.000000000000000E+000	4.96132e-06
2	0	0	0	0	0	0	29.5	-0.499978	-0.499853	-0.0098882	-0.000570666	-0.000570666	13	-0.000158518	0	0.000000000000000E+000	7.92386e-08	0.000000000000000E+000	9.96274e+06	0.000158518	0.000000000000000E+000	0.000158518	0.0000000E+000	0.000000000000000E+000	4.94265e-06
2	0	0	0	0	0	0	29.7	-0.499978	-0.49991	-0.00985751	-0.000572639	-0.000572639	13	-0.000159066	0	0.000000000000000E+000	7.95126e-08	0.000000000000000E+000	4.99729e+06	0.000159066	0.000000000000000E+000	0.000159066	0.0000000E+000	0.000000000000000E+000	4.92787e-06
2	0	0	0	0	0	0	29.9	-0.499978	-0.49993	-0.00982357	-0.000574606	-0.000574606	13	-0.000159613	0	0.000000000000000E+000	7.97857e-08	0.000000000000000E+000	4.2989e+06	0.000159613	0.000000000000000E+000	0.000159613	0.0000000E+000	0.000000000000000E+000	4.91109e-06
2	0	0	0	0	0	0	29.9998	-0.499978	-0.49993	-0.00980795	-0.000575585	-0.000575585	13	-0.000159885	0	0.000000000000000E+000	7.99216e-08	0.000000000000000E+000	4.30622e+06	0.000159885	0.000000000000000E+000	0.000159885	0.0000000E+000	0.000000000000000E+000	4.90328e-06