File: Data/2025-02-10 exp 13 bonus_C05.mpt
EC-Lab ASCII FILE
Nb header lines : 62

Chronoamperometry / Chronocoulometry

Run on channel : 5 (SN 39658)
User :
CE vs. WE compliance from -10 V to 10 V
Electrode connection : standard
Potential control : Ewe
Ewe ctrl range : min = -2.50 V, max = 2.50 V
Safety Limits :
	Do not start on E overload
Acquisition started on : 02/10/2025 13:16:06.971
Loaded Setting File :  NONE
Saved on :
	File : 2025-02-10 exp 13 bonus_C05.mpr
	Directory : C:\Users\thefo\OneDrive\Documents\EC-Lab\Data\CHEM 451\
	Host : 172.24.113.132
Device : VSP (SN 1910)
Address : USB
EC-Lab for windows v11.46 (software)
Internet server v11.40 (firmware)
Command interpretor v11.40 (firmware)
Electrode material :
Initial state :
Electrolyte :
Comments :
Current amplifier : VSPB-4A
Electrode surface area : 0.001 cm²
Characteristic mass : 0.001 g
Equivalent Weight : 0.000 g/eq.
Density : 0.000 g/cm3
Volume (V) : 0.001 cm³
Cycle Definition : Charge/Discharge alternance
Ei (V)              -0.100
vs.                 Ref
ti (h:m:s)          2:00:10.0000
Imax                pass
unit Imax           mA
Imin                pass
unit Imin           mA
dQM                 0.000
unit dQM            mA.h
record              <I>
dI                  5.000
unit dI             µA
dQ                  0.000
unit dQ             mA.h
dt (s)              0.1000
dta (s)             0.1000
E range min (V)     -2.500
E range max (V)     2.500
I Range             Auto
I Range min         Unset
I Range max         Unset
I Range init        Unset
Bandwidth           4
goto Ns'            0
nc cycles           0

mode	ox/red	error	control changes	Ns changes	counter inc.	Ns	time/s	control/V	Ewe/V	<I>/mA	dQ/C	(Q-Qo)/C	I Range	Q charge/discharge/mA.h	half cycle	Energy charge/W.h	Energy discharge/W.h	Capacitance charge/µF	Capacitance discharge/µF	Q discharge/mA.h	Q charge/mA.h	Capacity/mA.h	Efficiency/%	cycle number	P/W
2	0	0	0	0	0	0	0.1	-0.0999884	-0.0999257	-0.142054	-1.31323e-05	-1.31323e-05	12	-3.64786e-06	0	0.000000000000000E+000	3.64515e-10	0.000000000000000E+000	0.000000000000000E+000	3.64786e-06	0.000000000000000E+000	3.64786e-06	0.0000000E+000	0.000000000000000E+000	1.41949e-05
2	0	0	0	0	0	0	1	-0.0999884	-0.0998875	-0.0359965	-6.42824e-05	-6.42824e-05	13	-1.78562e-05	0	0.000000000000000E+000	1.78386e-09	0.000000000000000E+000	1.68315e+06	1.78562e-05	0.000000000000000E+000	1.78562e-05	0.0000000E+000	0.000000000000000E+000	3.5956e-06
2	0	0	0	0	0	0	1.9	-0.0999884	-0.10004	-0.0243113	-8.99386e-05	-8.99386e-05	13	-2.49829e-05	0	0.000000000000000E+000	2.49596e-09	0.000000000000000E+000	784924	2.49829e-05	0.000000000000000E+000	2.49829e-05	0.0000000E+000	0.000000000000000E+000	2.43211e-06
2	0	0	0	0	0	0	2.8	-0.0999884	-0.0998493	-0.019213	-0.000109034	-0.000109034	13	-3.02872e-05	0	0.000000000000000E+000	3.02586e-09	0.000000000000000E+000	1.42746e+06	3.02872e-05	0.000000000000000E+000	3.02872e-05	0.0000000E+000	0.000000000000000E+000	1.9184e-06
2	0	0	0	0	0	0	3.7	-0.0999884	-0.0998111	-0.0162358	-0.000124737	-0.000124737	13	-3.46491e-05	0	0.000000000000000E+000	3.46171e-09	0.000000000000000E+000	1.08869e+06	3.46491e-05	0.000000000000000E+000	3.46491e-05	0.0000000E+000	0.000000000000000E+000	1.62051e-06
2	0	0	0	0	0	0	4.6	-0.0999884	-0.0998684	-0.0142498	-0.000138303	-0.000138303	13	-3.84176e-05	0	0.000000000000000E+000	3.8382e-09	0.000000000000000E+000	2.4142e+06	3.84176e-05	0.000000000000000E+000	3.84176e-05	0.0000000E+000	0.000000000000000E+000	1.4231e-06
2	0	0	0	0	0	0	5.5	-0.0999884	-0.100002	-0.0128165	-0.00015038	-0.00015038	13	-4.17721e-05	0	0.000000000000000E+000	4.17333e-09	0.000000000000000E+000	1.96856e+06	4.17721e-05	0.000000000000000E+000	4.17721e-05	0.0000000E+000	0.000000000000000E+000	1.28167e-06
2	0	0	0	0	0	0	6.4	-0.0999884	-0.0998111	-0.0117303	-0.00016135	-0.00016135	13	-4.48195e-05	0	0.000000000000000E+000	4.47773e-09	0.000000000000000E+000	1.40825e+06	4.48195e-05	0.000000000000000E+000	4.48195e-05	0.0000000E+000	0.000000000000000E+000	1.17081e-06
2	0	0	0	0	0	0	7.3	-0.0999884	-0.0999448	-0.0108764	-0.000171467	-0.000171467	13	-4.76297e-05	0	0.000000000000000E+000	4.75844e-09	0.000000000000000E+000	8.97928e+06	4.76297e-05	0.000000000000000E+000	4.76297e-05	0.0000000E+000	0.000000000000000E+000	1.08704e-06
2	0	0	0	0	0	0	8.2	-0.0999884	-0.0998684	-0.010181	-0.000180897	-0.000180897	13	-5.02493e-05	0	0.000000000000000E+000	5.0201e-09	0.000000000000000E+000	3.15771e+06	5.02493e-05	0.000000000000000E+000	5.02493e-05	0.0000000E+000	0.000000000000000E+000	1.01676e-06
2	0	0	0	0	0	0	9.1	-0.0999884	-0.0998875	-0.00960553	-0.000189765	-0.000189765	13	-5.27125e-05	0	0.000000000000000E+000	5.26622e-09	0.000000000000000E+000	4.96875e+06	5.27125e-05	0.000000000000000E+000	5.27125e-05	0.0000000E+000	0.000000000000000E+000	9.59473e-07
2	0	0	0	0	0	0	10	-0.0999884	-0.0998111	-0.0091209	-0.000198162	-0.000198162	13	-5.50449e-05	0	0.000000000000000E+000	5.49922e-09	0.000000000000000E+000	1.72954e+06	5.50449e-05	0.000000000000000E+000	5.50449e-05	0.0000000E+000	0.000000000000000E+000	9.10367e-07
2	0	0	0	0	0	0	10.9	-0.0999884	-0.0998493	-0.00870732	-0.000206159	-0.000206159	13	-5.72665e-05	0	0.000000000000000E+000	5.72122e-09	0.000000000000000E+000	2.69901e+06	5.72665e-05	0.000000000000000E+000	5.72665e-05	0.0000000E+000	0.000000000000000E+000	8.6942e-07
2	0	0	0	0	0	0	11.8	-0.0999884	-0.0999448	-0.00834572	-0.000213812	-0.000213812	13	-5.93922e-05	0	0.000000000000000E+000	5.93358e-09	0.000000000000000E+000	1.11968e+07	5.93922e-05	0.000000000000000E+000	5.93922e-05	0.0000000E+000	0.000000000000000E+000	8.34112e-07
2	0	0	0	0	0	0	12.7	-0.0999884	-0.100002	-0.00803016	-0.000221163	-0.000221163	13	-6.14341e-05	0	0.000000000000000E+000	6.13765e-09	0.000000000000000E+000	2.89515e+06	6.14341e-05	0.000000000000000E+000	6.14341e-05	0.0000000E+000	0.000000000000000E+000	8.03033e-07
2	0	0	0	0	0	0	13.6	-0.0999884	-0.0999639	-0.00774962	-0.000228247	-0.000228247	13	-6.3402e-05	0	0.000000000000000E+000	6.33436e-09	0.000000000000000E+000	5.97636e+06	6.3402e-05	0.000000000000000E+000	6.3402e-05	0.0000000E+000	0.000000000000000E+000	7.74682e-07
2	0	0	0	0	0	0	14.5	-0.0999884	-0.0998684	-0.00749926	-0.000235095	-0.000235095	13	-6.53042e-05	0	0.000000000000000E+000	6.52439e-09	0.000000000000000E+000	4.10378e+06	6.53042e-05	0.000000000000000E+000	6.53042e-05	0.0000000E+000	0.000000000000000E+000	7.48939e-07
2	0	0	0	0	0	0	15.4	-0.0999884	-0.100002	-0.0072731	-0.00024173	-0.00024173	13	-6.71472e-05	0	0.000000000000000E+000	6.70854e-09	0.000000000000000E+000	3.16438e+06	6.71472e-05	0.000000000000000E+000	6.71472e-05	0.0000000E+000	0.000000000000000E+000	7.27325e-07
2	0	0	0	0	0	0	16.3	-0.0999884	-0.0999066	-0.00706801	-0.000248172	-0.000248172	13	-6.89366e-05	0	0.000000000000000E+000	6.88736e-09	0.000000000000000E+000	1.29961e+07	6.89366e-05	0.000000000000000E+000	6.89366e-05	0.0000000E+000	0.000000000000000E+000	7.06141e-07
2	0	0	0	0	0	0	17.2	-0.0999884	-0.0998875	-0.00688059	-0.000254438	-0.000254438	13	-7.06772e-05	0	0.000000000000000E+000	7.06125e-09	0.000000000000000E+000	6.66213e+06	7.06772e-05	0.000000000000000E+000	7.06772e-05	0.0000000E+000	0.000000000000000E+000	6.87285e-07
2	0	0	0	0	0	0	18.1	-0.0999884	-0.0998875	-0.00670756	-0.000260543	-0.000260543	13	-7.2373e-05	0	0.000000000000000E+000	7.23068e-09	0.000000000000000E+000	6.82198e+06	7.2373e-05	0.000000000000000E+000	7.2373e-05	0.0000000E+000	0.000000000000000E+000	6.70002e-07
2	0	0	0	0	0	0	19	-0.0999884	-0.100002	-0.0065486	-0.000266499	-0.000266499	13	-7.40276e-05	0	0.000000000000000E+000	7.396e-09	0.000000000000000E+000	3.48863e+06	7.40276e-05	0.000000000000000E+000	7.40276e-05	0.0000000E+000	0.000000000000000E+000	6.54874e-07
2	0	0	0	0	0	0	19.9	-0.0999884	-0.0999639	-0.00640263	-0.000272319	-0.000272319	13	-7.56442e-05	0	0.000000000000000E+000	7.55753e-09	0.000000000000000E+000	7.13033e+06	7.56442e-05	0.000000000000000E+000	7.56442e-05	0.0000000E+000	0.000000000000000E+000	6.40032e-07
2	0	0	0	0	0	0	20.8	-0.0999884	-0.0998875	-0.00626721	-0.000278013	-0.000278013	13	-7.72257e-05	0	0.000000000000000E+000	7.71555e-09	0.000000000000000E+000	7.2794e+06	7.72257e-05	0.000000000000000E+000	7.72257e-05	0.0000000E+000	0.000000000000000E+000	6.26016e-07
2	0	0	0	0	0	0	21.7	-0.0999884	-0.099792	-0.0061398	-0.000283589	-0.000283589	13	-7.87746e-05	0	0.000000000000000E+000	7.8703e-09	0.000000000000000E+000	2.12154e+06	7.87746e-05	0.000000000000000E+000	7.87746e-05	0.0000000E+000	0.000000000000000E+000	6.12703e-07
2	0	0	0	0	0	0	22.6	-0.0999884	-0.0999257	-0.00602226	-0.000289055	-0.000289055	13	-8.02931e-05	0	0.000000000000000E+000	8.02204e-09	0.000000000000000E+000	0.000000000000000E+000	8.02931e-05	0.000000000000000E+000	8.02931e-05	0.0000000E+000	0.000000000000000E+000	6.01779e-07
2	0	0	0	0	0	0	23.5	-0.0999884	-0.100002	-0.00591065	-0.000294419	-0.000294419	13	-8.1783e-05	0	0.000000000000000E+000	8.17091e-09	0.000000000000000E+000	3.85411e+06	8.1783e-05	0.000000000000000E+000	8.1783e-05	0.0000000E+000	0.000000000000000E+000	5.91078e-07
2	0	0	0	0	0	0	24.4	-0.0999884	-0.0999448	-0.00580684	-0.000299686	-0.000299686	13	-8.32462e-05	0	0.000000000000000E+000	8.31711e-09	0.000000000000000E+000	1.56938e+07	8.32462e-05	0.000000000000000E+000	8.32462e-05	0.0000000E+000	0.000000000000000E+000	5.80363e-07
2	0	0	0	0	0	0	25.3	-0.0999884	-0.0999257	-0.00570856	-0.000304863	-0.000304863	13	-8.46842e-05	0	0.000000000000000E+000	8.46079e-09	0.000000000000000E+000	0.000000000000000E+000	8.46842e-05	0.000000000000000E+000	8.46842e-05	0.0000000E+000	0.000000000000000E+000	5.70431e-07
2	0	0	0	0	0	0	26.2	-0.0999884	-0.0999066	-0.00561701	-0.000309955	-0.000309955	13	-8.60985e-05	0	0.000000000000000E+000	8.60209e-09	0.000000000000000E+000	1.62315e+07	8.60985e-05	0.000000000000000E+000	8.60985e-05	0.0000000E+000	0.000000000000000E+000	5.61177e-07
2	0	0	0	0	0	0	27.1	-0.0999884	-0.100098	-0.00552918	-0.000314966	-0.000314966	13	-8.74905e-05	0	0.000000000000000E+000	8.74118e-09	0.000000000000000E+000	1.83258e+06	8.74905e-05	0.000000000000000E+000	8.74905e-05	0.0000000E+000	0.000000000000000E+000	5.53457e-07
2	0	0	0	0	0	0	28	-0.0999884	-0.0999639	-0.00544773	-0.000319901	-0.000319901	13	-8.88615e-05	0	0.000000000000000E+000	8.87817e-09	0.000000000000000E+000	8.3762e+06	8.88615e-05	0.000000000000000E+000	8.88615e-05	0.0000000E+000	0.000000000000000E+000	5.44576e-07
2	0	0	0	0	0	0	28.9	-0.0999884	-0.0998493	-0.00537047	-0.000324765	-0.000324765	13	-9.02125e-05	0	0.000000000000000E+000	9.01319e-09	0.000000000000000E+000	4.25178e+06	9.02125e-05	0.000000000000000E+000	9.02125e-05	0.0000000E+000	0.000000000000000E+000	5.36238e-07
2	0	0	0	0	0	0	29.8	-0.0999884	-0.0999066	-0.0052959	-0.000329561	-0.000329561	13	-9.15447e-05	0	0.000000000000000E+000	9.14632e-09	0.000000000000000E+000	1.72583e+07	9.15447e-05	0.000000000000000E+000	9.15447e-05	0.0000000E+000	0.000000000000000E+000	5.29095e-07
2	0	0	0	0	0	0	30.7	-0.0999884	-0.0998302	-0.00522622	-0.000334292	-0.000334292	13	-9.28589e-05	0	0.000000000000000E+000	9.27762e-09	0.000000000000000E+000	3.5012e+06	9.28589e-05	0.000000000000000E+000	9.28589e-05	0.0000000E+000	0.000000000000000E+000	5.21735e-07
2	0	0	0	0	0	0	31.6	-0.0999884	-0.0998684	-0.00515841	-0.000338961	-0.000338961	13	-9.41559e-05	0	0.000000000000000E+000	9.40723e-09	0.000000000000000E+000	5.91684e+06	9.41559e-05	0.000000000000000E+000	9.41559e-05	0.0000000E+000	0.000000000000000E+000	5.15162e-07
2	0	0	0	0	0	0	32.5	-0.0999884	-0.0998493	-0.00509391	-0.000343572	-0.000343572	13	-9.54366e-05	0	0.000000000000000E+000	9.53519e-09	0.000000000000000E+000	4.49799e+06	9.54366e-05	0.000000000000000E+000	9.54366e-05	0.0000000E+000	0.000000000000000E+000	5.08623e-07
2	0	0	0	0	0	0	33.4	-0.0999884	-0.0999448	-0.00503439	-0.000348126	-0.000348126	13	-9.67018e-05	0	0.000000000000000E+000	9.66157e-09	0.000000000000000E+000	1.82305e+07	9.67018e-05	0.000000000000000E+000	9.67018e-05	0.0000000E+000	0.000000000000000E+000	5.03162e-07
2	0	0	0	0	0	0	34.3	-0.0999884	-0.0998493	-0.00497637	-0.000352628	-0.000352628	13	-9.79523e-05	0	0.000000000000000E+000	9.78651e-09	0.000000000000000E+000	4.61656e+06	9.79523e-05	0.000000000000000E+000	9.79523e-05	0.0000000E+000	0.000000000000000E+000	4.96887e-07
2	0	0	0	0	0	0	35.2	-0.0999884	-0.0999257	-0.00492123	-0.000357079	-0.000357079	13	-9.91887e-05	0	0.000000000000000E+000	9.91007e-09	0.000000000000000E+000	0.000000000000000E+000	9.91887e-05	0.000000000000000E+000	9.91887e-05	0.0000000E+000	0.000000000000000E+000	4.91757e-07
2	0	0	0	0	0	0	36.1	-0.0999884	-0.0999448	-0.0048694	-0.000361483	-0.000361483	13	-0.000100412	0	0.000000000000000E+000	1.00323e-08	0.000000000000000E+000	1.89299e+07	0.000100412	0.000000000000000E+000	0.000100412	0.0000000E+000	0.000000000000000E+000	4.86671e-07
2	0	0	0	0	0	0	37	-0.0999884	-0.0999639	-0.0048176	-0.000365839	-0.000365839	13	-0.000101622	0	0.000000000000000E+000	1.01532e-08	0.000000000000000E+000	9.57902e+06	0.000101622	0.000000000000000E+000	0.000101622	0.0000000E+000	0.000000000000000E+000	4.81586e-07
2	0	0	0	0	0	0	37.9	-0.0999884	-0.099983	-0.00476749	-0.000370149	-0.000370149	13	-0.000102819	0	0.000000000000000E+000	1.02729e-08	0.000000000000000E+000	6.46042e+06	0.000102819	0.000000000000000E+000	0.000102819	0.0000000E+000	0.000000000000000E+000	4.76668e-07
2	0	0	0	0	0	0	38.8	-0.0999884	-0.0998493	-0.00472042	-0.000374417	-0.000374417	13	-0.000104005	0	0.000000000000000E+000	1.03913e-08	0.000000000000000E+000	4.90181e+06	0.000104005	0.000000000000000E+000	0.000104005	0.0000000E+000	0.000000000000000E+000	4.71331e-07
2	0	0	0	0	0	0	39.7	-0.0999884	-0.0999257	-0.00467463	-0.000378643	-0.000378643	13	-0.000105179	0	0.000000000000000E+000	1.05086e-08	0.000000000000000E+000	0.000000000000000E+000	0.000105179	0.000000000000000E+000	0.000105179	0.0000000E+000	0.000000000000000E+000	4.67115e-07
2	0	0	0	0	0	0	40.6	-0.0999884	-0.0998875	-0.00463228	-0.000382828	-0.000382828	13	-0.000106341	0	0.000000000000000E+000	1.06248e-08	0.000000000000000E+000	1.00239e+07	0.000106341	0.000000000000000E+000	0.000106341	0.0000000E+000	0.000000000000000E+000	4.62707e-07
2	0	0	0	0	0	0	41.5	-0.0999884	-0.0999639	-0.00458997	-0.000386976	-0.000386976	13	-0.000107493	0	0.000000000000000E+000	1.07399e-08	0.000000000000000E+000	1.01325e+07	0.000107493	0.000000000000000E+000	0.000107493	0.0000000E+000	0.000000000000000E+000	4.58832e-07
2	0	0	0	0	0	0	42.4	-0.0999884	-0.10004	-0.00454972	-0.000391086	-0.000391086	13	-0.000108635	0	0.000000000000000E+000	1.08539e-08	0.000000000000000E+000	3.41314e+06	0.000108635	0.000000000000000E+000	0.000108635	0.0000000E+000	0.000000000000000E+000	4.55155e-07
2	0	0	0	0	0	0	43.3	-0.0999884	-0.0998875	-0.00450999	-0.00039516	-0.00039516	13	-0.000109767	0	0.000000000000000E+000	1.0967e-08	0.000000000000000E+000	1.03468e+07	0.000109767	0.000000000000000E+000	0.000109767	0.0000000E+000	0.000000000000000E+000	4.50491e-07
2	0	0	0	0	0	0	44.2084	-0.0999884	-0.0998111	-0.0044642	-0.000399233	-0.000399233	14	-0.000110898	0	0.000000000000000E+000	1.10801e-08	0.000000000000000E+000	3.48447e+06	0.000110898	0.000000000000000E+000	0.000110898	0.0000000E+000	0.000000000000000E+000	4.45577e-07
2	0	0	0	0	0	0	45.1084	-0.0999884	-0.0998111	-0.00442715	-0.000403232	-0.000403232	14	-0.000112009	0	0.000000000000000E+000	1.1191e-08	0.000000000000000E+000	3.51937e+06	0.000112009	0.000000000000000E+000	0.000112009	0.0000000E+000	0.000000000000000E+000	4.41879e-07
2	0	0	0	0	0	0	46.0084	-0.0999884	-0.10004	-0.00439227	-0.000407199	-0.000407199	14	-0.000113111	0	0.000000000000000E+000	1.13012e-08	0.000000000000000E+000	3.55376e+06	0.000113111	0.000000000000000E+000	0.000113111	0.0000000E+000	0.000000000000000E+000	4.39404e-07
2	0	0	0	0	0	0	46.9084	-0.0999884	-0.0999257	-0.00435817	-0.000411135	-0.000411135	14	-0.000114204	0	0.000000000000000E+000	1.14104e-08	0.000000000000000E+000	0.000000000000000E+000	0.000114204	0.000000000000000E+000	0.000114204	0.0000000E+000	0.000000000000000E+000	4.35494e-07
2	0	0	0	0	0	0	47.8084	-0.0999884	-0.0998493	-0.0043246	-0.00041504	-0.00041504	14	-0.000115289	0	0.000000000000000E+000	1.15188e-08	0.000000000000000E+000	5.43365e+06	0.000115289	0.000000000000000E+000	0.000115289	0.0000000E+000	0.000000000000000E+000	4.31808e-07
2	0	0	0	0	0	0	48.7084	-0.0999884	-0.0998493	-0.00429281	-0.000418916	-0.000418916	14	-0.000116366	0	0.000000000000000E+000	1.16264e-08	0.000000000000000E+000	5.48439e+06	0.000116366	0.000000000000000E+000	0.000116366	0.0000000E+000	0.000000000000000E+000	4.28634e-07
2	0	0	0	0	0	0	49.6084	-0.0999884	-0.0999066	-0.00426001	-0.000422763	-0.000422763	14	-0.000117434	0	0.000000000000000E+000	1.17331e-08	0.000000000000000E+000	2.2139e+07	0.000117434	0.000000000000000E+000	0.000117434	0.0000000E+000	0.000000000000000E+000	4.25603e-07
2	0	0	0	0	0	0	50.5084	-0.0999884	-0.10004	-0.00423026	-0.000426583	-0.000426583	14	-0.000118495	0	0.000000000000000E+000	1.18392e-08	0.000000000000000E+000	3.72294e+06	0.000118495	0.000000000000000E+000	0.000118495	0.0000000E+000	0.000000000000000E+000	4.23197e-07
2	0	0	0	0	0	0	51.4084	-0.0999884	-0.0999066	-0.00420101	-0.000430376	-0.000430376	14	-0.000119549	0	0.000000000000000E+000	1.19444e-08	0.000000000000000E+000	2.25377e+07	0.000119549	0.000000000000000E+000	0.000119549	0.0000000E+000	0.000000000000000E+000	4.19709e-07
2	0	0	0	0	0	0	52.3084	-0.0999884	-0.0999639	-0.00417213	-0.000434143	-0.000434143	14	-0.000120595	0	0.000000000000000E+000	1.2049e-08	0.000000000000000E+000	1.13675e+07	0.000120595	0.000000000000000E+000	0.000120595	0.0000000E+000	0.000000000000000E+000	4.17063e-07
2	0	0	0	0	0	0	53.2084	-0.0999884	-0.100002	-0.00414462	-0.000437884	-0.000437884	14	-0.000121634	0	0.000000000000000E+000	1.21528e-08	0.000000000000000E+000	5.73215e+06	0.000121634	0.000000000000000E+000	0.000121634	0.0000000E+000	0.000000000000000E+000	4.14471e-07
2	0	0	0	0	0	0	54.1084	-0.0999884	-0.0998111	-0.00411754	-0.0004416	-0.0004416	14	-0.000122667	0	0.000000000000000E+000	1.2256e-08	0.000000000000000E+000	3.85424e+06	0.000122667	0.000000000000000E+000	0.000122667	0.0000000E+000	0.000000000000000E+000	4.10976e-07
2	0	0	0	0	0	0	55.0084	-0.0999884	-0.0998302	-0.00409108	-0.000445293	-0.000445293	14	-0.000123692	0	0.000000000000000E+000	1.23584e-08	0.000000000000000E+000	4.66377e+06	0.000123692	0.000000000000000E+000	0.000123692	0.0000000E+000	0.000000000000000E+000	4.08414e-07
2	0	0	0	0	0	0	55.9084	-0.0999884	-0.0998493	-0.00406531	-0.000448962	-0.000448962	14	-0.000124712	0	0.000000000000000E+000	1.24602e-08	0.000000000000000E+000	5.87774e+06	0.000124712	0.000000000000000E+000	0.000124712	0.0000000E+000	0.000000000000000E+000	4.05918e-07
2	0	0	0	0	0	0	56.8084	-0.0999884	-0.099983	-0.00404093	-0.000452608	-0.000452608	14	-0.000125725	0	0.000000000000000E+000	1.25614e-08	0.000000000000000E+000	7.89962e+06	0.000125725	0.000000000000000E+000	0.000125725	0.0000000E+000	0.000000000000000E+000	4.04024e-07
2	0	0	0	0	0	0	57.7084	-0.0999884	-0.0999257	-0.0040164	-0.000456233	-0.000456233	14	-0.000126731	0	0.000000000000000E+000	1.2662e-08	0.000000000000000E+000	0.000000000000000E+000	0.000126731	0.000000000000000E+000	0.000126731	0.0000000E+000	0.000000000000000E+000	4.01342e-07
2	0	0	0	0	0	0	58.6084	-0.0999884	-0.0999448	-0.00399193	-0.000459836	-0.000459836	14	-0.000127732	0	0.000000000000000E+000	1.2762e-08	0.000000000000000E+000	2.40804e+07	0.000127732	0.000000000000000E+000	0.000127732	0.0000000E+000	0.000000000000000E+000	3.98972e-07
2	0	0	0	0	0	0	59.5084	-0.0999884	-0.0999639	-0.00396979	-0.000463417	-0.000463417	14	-0.000128727	0	0.000000000000000E+000	1.28615e-08	0.000000000000000E+000	1.2134e+07	0.000128727	0.000000000000000E+000	0.000128727	0.0000000E+000	0.000000000000000E+000	3.96836e-07
2	0	0	0	0	0	0	60.4084	-0.0999884	-0.0998684	-0.00394704	-0.000466979	-0.000466979	14	-0.000129716	0	0.000000000000000E+000	1.29603e-08	0.000000000000000E+000	8.15149e+06	0.000129716	0.000000000000000E+000	0.000129716	0.0000000E+000	0.000000000000000E+000	3.94185e-07
2	0	0	0	0	0	0	61.3084	-0.0999884	-0.0999448	-0.00392587	-0.00047052	-0.00047052	14	-0.0001307	0	0.000000000000000E+000	1.30586e-08	0.000000000000000E+000	2.46399e+07	0.0001307	0.000000000000000E+000	0.0001307	0.0000000E+000	0.000000000000000E+000	3.92371e-07
2	0	0	0	0	0	0	62.2084	-0.0999884	-0.0999639	-0.00390335	-0.000474042	-0.000474042	14	-0.000131678	0	0.000000000000000E+000	1.31564e-08	0.000000000000000E+000	1.24122e+07	0.000131678	0.000000000000000E+000	0.000131678	0.0000000E+000	0.000000000000000E+000	3.90195e-07
2	0	0	0	0	0	0	63.1084	-0.0999884	-0.0998684	-0.00388242	-0.000477545	-0.000477545	14	-0.000132651	0	0.000000000000000E+000	1.32536e-08	0.000000000000000E+000	8.33593e+06	0.000132651	0.000000000000000E+000	0.000132651	0.0000000E+000	0.000000000000000E+000	3.87731e-07
2	0	0	0	0	0	0	64.0084	-0.0999884	-0.0999066	-0.00386235	-0.000481029	-0.000481029	14	-0.000133619	0	0.000000000000000E+000	1.33503e-08	0.000000000000000E+000	2.51902e+07	0.000133619	0.000000000000000E+000	0.000133619	0.0000000E+000	0.000000000000000E+000	3.85874e-07
2	0	0	0	0	0	0	64.9084	-0.0999884	-0.0998684	-0.00384313	-0.000484495	-0.000484495	14	-0.000134582	0	0.000000000000000E+000	1.34465e-08	0.000000000000000E+000	8.45725e+06	0.000134582	0.000000000000000E+000	0.000134582	0.0000000E+000	0.000000000000000E+000	3.83808e-07
2	0	0	0	0	0	0	65.8084	-0.0999884	-0.0999257	-0.00382315	-0.000487943	-0.000487943	14	-0.00013554	0	0.000000000000000E+000	1.35422e-08	0.000000000000000E+000	0.000000000000000E+000	0.00013554	0.000000000000000E+000	0.00013554	0.0000000E+000	0.000000000000000E+000	3.82031e-07
2	0	0	0	0	0	0	66.7084	-0.0999884	-0.0998684	-0.00380258	-0.000491375	-0.000491375	14	-0.000136493	0	0.000000000000000E+000	1.36374e-08	0.000000000000000E+000	8.57734e+06	0.000136493	0.000000000000000E+000	0.000136493	0.0000000E+000	0.000000000000000E+000	3.79758e-07
2	0	0	0	0	0	0	67.6084	-0.0999884	-0.0998684	-0.0037848	-0.000494789	-0.000494789	14	-0.000137441	0	0.000000000000000E+000	1.37322e-08	0.000000000000000E+000	8.63694e+06	0.000137441	0.000000000000000E+000	0.000137441	0.0000000E+000	0.000000000000000E+000	3.77982e-07
2	0	0	0	0	0	0	68.5084	-0.0999884	-0.0999448	-0.00376762	-0.000498186	-0.000498186	14	-0.000138385	0	0.000000000000000E+000	1.38265e-08	0.000000000000000E+000	2.60887e+07	0.000138385	0.000000000000000E+000	0.000138385	0.0000000E+000	0.000000000000000E+000	3.76554e-07
2	0	0	0	0	0	0	69.4084	-0.0999884	-0.0999448	-0.0037492	-0.000501568	-0.000501568	14	-0.000139324	0	0.000000000000000E+000	1.39204e-08	0.000000000000000E+000	2.62658e+07	0.000139324	0.000000000000000E+000	0.000139324	0.0000000E+000	0.000000000000000E+000	3.74713e-07
2	0	0	0	0	0	0	70.3084	-0.0999884	-0.0998875	-0.0037322	-0.000504934	-0.000504934	14	-0.000140259	0	0.000000000000000E+000	1.40139e-08	0.000000000000000E+000	1.3221e+07	0.000140259	0.000000000000000E+000	0.000140259	0.0000000E+000	0.000000000000000E+000	3.728e-07
2	0	0	0	0	0	0	71.2084	-0.0999884	-0.0999448	-0.00371537	-0.000508284	-0.000508284	14	-0.00014119	0	0.000000000000000E+000	1.41068e-08	0.000000000000000E+000	2.66175e+07	0.00014119	0.000000000000000E+000	0.00014119	0.0000000E+000	0.000000000000000E+000	3.71332e-07
2	0	0	0	0	0	0	72.1084	-0.0999884	-0.0998684	-0.00369839	-0.000511619	-0.000511619	14	-0.000142116	0	0.000000000000000E+000	1.41994e-08	0.000000000000000E+000	8.93073e+06	0.000142116	0.000000000000000E+000	0.000142116	0.0000000E+000	0.000000000000000E+000	3.69352e-07
2	0	0	0	0	0	0	73.0084	-0.0999884	-0.0998302	-0.00368218	-0.00051494	-0.00051494	14	-0.000143039	0	0.000000000000000E+000	1.42916e-08	0.000000000000000E+000	5.39321e+06	0.000143039	0.000000000000000E+000	0.000143039	0.0000000E+000	0.000000000000000E+000	3.67593e-07
2	0	0	0	0	0	0	73.9084	-0.0999884	-0.0998875	-0.0036667	-0.000518246	-0.000518246	14	-0.000143957	0	0.000000000000000E+000	1.43833e-08	0.000000000000000E+000	1.35696e+07	0.000143957	0.000000000000000E+000	0.000143957	0.0000000E+000	0.000000000000000E+000	3.66257e-07
2	0	0	0	0	0	0	74.8084	-0.0999884	-0.0999066	-0.00365039	-0.000521538	-0.000521538	14	-0.000144872	0	0.000000000000000E+000	1.44747e-08	0.000000000000000E+000	2.73116e+07	0.000144872	0.000000000000000E+000	0.000144872	0.0000000E+000	0.000000000000000E+000	3.64698e-07
2	0	0	0	0	0	0	75.7084	-0.0999884	-0.0998684	-0.00363581	-0.000524816	-0.000524816	14	-0.000145782	0	0.000000000000000E+000	1.45657e-08	0.000000000000000E+000	9.16109e+06	0.000145782	0.000000000000000E+000	0.000145782	0.0000000E+000	0.000000000000000E+000	3.63103e-07
2	0	0	0	0	0	0	76.6084	-0.0999884	-0.0999066	-0.00362112	-0.000528081	-0.000528081	14	-0.000146689	0	0.000000000000000E+000	1.46563e-08	0.000000000000000E+000	2.76543e+07	0.000146689	0.000000000000000E+000	0.000146689	0.0000000E+000	0.000000000000000E+000	3.61774e-07
2	0	0	0	0	0	0	77.5084	-0.0999884	-0.0999448	-0.00360698	-0.000531333	-0.000531333	14	-0.000147592	0	0.000000000000000E+000	1.47466e-08	0.000000000000000E+000	2.78245e+07	0.000147592	0.000000000000000E+000	0.000147592	0.0000000E+000	0.000000000000000E+000	3.60499e-07
2	0	0	0	0	0	0	78.4084	-0.0999884	-0.0998875	-0.0035927	-0.000534572	-0.000534572	14	-0.000148492	0	0.000000000000000E+000	1.48365e-08	0.000000000000000E+000	1.39971e+07	0.000148492	0.000000000000000E+000	0.000148492	0.0000000E+000	0.000000000000000E+000	3.58866e-07
2	0	0	0	0	0	0	79.3084	-0.0999884	-0.0998111	-0.00357802	-0.000537798	-0.000537798	14	-0.000149388	0	0.000000000000000E+000	1.4926e-08	0.000000000000000E+000	4.69385e+06	0.000149388	0.000000000000000E+000	0.000149388	0.0000000E+000	0.000000000000000E+000	3.57127e-07
2	0	0	0	0	0	0	80.2084	-0.0999884	-0.0998684	-0.00356511	-0.000541012	-0.000541012	14	-0.000150281	0	0.000000000000000E+000	1.50152e-08	0.000000000000000E+000	9.4438e+06	0.000150281	0.000000000000000E+000	0.000150281	0.0000000E+000	0.000000000000000E+000	3.56042e-07
2	0	0	0	0	0	0	81.1084	-0.0999884	-0.100098	-0.00355213	-0.000544214	-0.000544214	14	-0.000151171	0	0.000000000000000E+000	1.51041e-08	0.000000000000000E+000	3.16643e+06	0.000151171	0.000000000000000E+000	0.000151171	0.0000000E+000	0.000000000000000E+000	3.5556e-07
2	0	0	0	0	0	0	82.0084	-0.0999884	-0.0998875	-0.00353829	-0.000547404	-0.000547404	14	-0.000152057	0	0.000000000000000E+000	1.51926e-08	0.000000000000000E+000	1.43331e+07	0.000152057	0.000000000000000E+000	0.000152057	0.0000000E+000	0.000000000000000E+000	3.53431e-07
2	0	0	0	0	0	0	82.9084	-0.0999884	-0.0998111	-0.00352691	-0.000550583	-0.000550583	14	-0.00015294	0	0.000000000000000E+000	1.52808e-08	0.000000000000000E+000	4.80543e+06	0.00015294	0.000000000000000E+000	0.00015294	0.0000000E+000	0.000000000000000E+000	3.52024e-07
2	0	0	0	0	0	0	83.8084	-0.0999884	-0.0997156	-0.00351503	-0.00055375	-0.00055375	14	-0.00015382	0	0.000000000000000E+000	1.53686e-08	0.000000000000000E+000	2.63613e+06	0.00015382	0.000000000000000E+000	0.00015382	0.0000000E+000	0.000000000000000E+000	3.50504e-07
2	0	0	0	0	0	0	84.7084	-0.0999884	-0.0999257	-0.00350267	-0.000556908	-0.000556908	14	-0.000154697	0	0.000000000000000E+000	1.54561e-08	0.000000000000000E+000	0.000000000000000E+000	0.000154697	0.000000000000000E+000	0.000154697	0.0000000E+000	0.000000000000000E+000	3.50007e-07
2	0	0	0	0	0	0	85.6084	-0.0999884	-0.0999066	-0.00349143	-0.000560055	-0.000560055	14	-0.000155571	0	0.000000000000000E+000	1.55433e-08	0.000000000000000E+000	2.93286e+07	0.000155571	0.000000000000000E+000	0.000155571	0.0000000E+000	0.000000000000000E+000	3.48817e-07
2	0	0	0	0	0	0	86.5084	-0.0999884	-0.100021	-0.00348386	-0.000563193	-0.000563193	14	-0.000156442	0	0.000000000000000E+000	1.56305e-08	0.000000000000000E+000	5.89813e+06	0.000156442	0.000000000000000E+000	0.000156442	0.0000000E+000	0.000000000000000E+000	3.4846e-07
2	0	0	0	0	0	0	87.4084	-0.0999884	-0.100117	-0.00347608	-0.000566324	-0.000566324	14	-0.000157312	0	0.000000000000000E+000	1.57176e-08	0.000000000000000E+000	2.96558e+06	0.000157312	0.000000000000000E+000	0.000157312	0.0000000E+000	0.000000000000000E+000	3.48013e-07
2	0	0	0	0	0	0	88.3084	-0.0999884	-0.100231	-0.005501	-0.000569892	-0.000569892	14	-0.000158303	0	0.000000000000000E+000	1.58168e-08	0.000000000000000E+000	1.86515e+06	0.000158303	0.000000000000000E+000	0.000158303	0.0000000E+000	0.000000000000000E+000	5.51372e-07
2	0	0	0	0	0	0	89.2084	-0.0999884	-0.10004	-0.01217	-0.000577495	-0.000577495	13	-0.000160415	0	0.000000000000000E+000	1.60281e-08	0.000000000000000E+000	5.03999e+06	0.000160415	0.000000000000000E+000	0.000160415	0.0000000E+000	0.000000000000000E+000	1.21749e-06
2	0	0	0	0	0	0	90.1084	-0.0999884	-0.0997729	-0.0300057	-0.000595292	-0.000595292	13	-0.000165359	0	0.000000000000000E+000	1.65217e-08	0.000000000000000E+000	3.89674e+06	0.000165359	0.000000000000000E+000	0.000165359	0.0000000E+000	0.000000000000000E+000	2.99376e-06
2	0	0	0	0	0	0	91.0084	-0.0999884	-0.0997538	-0.0508694	-0.000636759	-0.000636759	13	-0.000176878	0	0.000000000000000E+000	1.76712e-08	0.000000000000000E+000	3.70489e+06	0.000176878	0.000000000000000E+000	0.000176878	0.0000000E+000	0.000000000000000E+000	5.07442e-06
2	0	0	0	0	0	0	91.9084	-0.0999884	-0.0999639	-0.0557543	-0.000682566	-0.000682566	13	-0.000189602	0	0.000000000000000E+000	1.89411e-08	0.000000000000000E+000	1.78721e+07	0.000189602	0.000000000000000E+000	0.000189602	0.0000000E+000	0.000000000000000E+000	5.57342e-06
2	0	0	0	0	0	0	92.8084	-0.0999884	-0.10004	-0.0536396	-0.000731164	-0.000731164	13	-0.000203101	0	0.000000000000000E+000	2.02901e-08	0.000000000000000E+000	6.38112e+06	0.000203101	0.000000000000000E+000	0.000203101	0.0000000E+000	0.000000000000000E+000	5.36612e-06
2	0	0	0	0	0	0	93.7084	-0.0999884	-0.100098	-0.0552827	-0.000779848	-0.000779848	13	-0.000216624	0	0.000000000000000E+000	2.16427e-08	0.000000000000000E+000	4.53743e+06	0.000216624	0.000000000000000E+000	0.000216624	0.0000000E+000	0.000000000000000E+000	5.53367e-06
2	0	0	0	0	0	0	94.6084	-0.0999884	-0.100002	-0.0558797	-0.000828761	-0.000828761	13	-0.000230211	0	0.000000000000000E+000	2.30017e-08	0.000000000000000E+000	1.0849e+07	0.000230211	0.000000000000000E+000	0.000230211	0.0000000E+000	0.000000000000000E+000	5.58809e-06
2	0	0	0	0	0	0	95.5084	-0.0999884	-0.099983	-0.0514422	-0.000874355	-0.000874355	13	-0.000242877	0	0.000000000000000E+000	2.42678e-08	0.000000000000000E+000	1.52606e+07	0.000242877	0.000000000000000E+000	0.000242877	0.0000000E+000	0.000000000000000E+000	5.14335e-06
2	0	0	0	0	0	0	96.4084	-0.0999884	-0.0998684	-0.0517108	-0.000922133	-0.000922133	13	-0.000256148	0	0.000000000000000E+000	2.5594e-08	0.000000000000000E+000	1.60966e+07	0.000256148	0.000000000000000E+000	0.000256148	0.0000000E+000	0.000000000000000E+000	5.16427e-06
2	0	0	0	0	0	0	97.3084	-0.0999884	-0.0998493	-0.0523812	-0.000971252	-0.000971252	13	-0.000269792	0	0.000000000000000E+000	2.69571e-08	0.000000000000000E+000	1.27155e+07	0.000269792	0.000000000000000E+000	0.000269792	0.0000000E+000	0.000000000000000E+000	5.23022e-06
2	0	0	0	0	0	0	98.2084	-0.0999884	-0.099792	-0.0566392	-0.00101863	-0.00101863	13	-0.000282953	0	0.000000000000000E+000	2.82721e-08	0.000000000000000E+000	7.62043e+06	0.000282953	0.000000000000000E+000	0.000282953	0.0000000E+000	0.000000000000000E+000	5.65214e-06
2	0	0	0	0	0	0	99.1084	-0.0999884	-0.0999639	-0.0536645	-0.00106703	-0.00106703	13	-0.000296397	0	0.000000000000000E+000	2.96162e-08	0.000000000000000E+000	2.79387e+07	0.000296397	0.000000000000000E+000	0.000296397	0.0000000E+000	0.000000000000000E+000	5.36451e-06
2	0	0	0	0	0	0	100.008	-0.0999884	-0.100021	-0.0560829	-0.00111534	-0.00111534	13	-0.000309816	0	0.000000000000000E+000	3.09574e-08	0.000000000000000E+000	1.16806e+07	0.000309816	0.000000000000000E+000	0.000309816	0.0000000E+000	0.000000000000000E+000	5.60948e-06
2	0	0	0	0	0	0	100.908	-0.0999884	-0.10004	-0.052312	-0.00116185	-0.00116185	13	-0.000322737	0	0.000000000000000E+000	3.2249e-08	0.000000000000000E+000	1.01399e+07	0.000322737	0.000000000000000E+000	0.000322737	0.0000000E+000	0.000000000000000E+000	5.23331e-06
2	0	0	0	0	0	0	101.808	-0.0999884	-0.0999066	-0.0530344	-0.00121029	-0.00121029	13	-0.000336192	0	0.000000000000000E+000	3.35934e-08	0.000000000000000E+000	6.33798e+07	0.000336192	0.000000000000000E+000	0.000336192	0.0000000E+000	0.000000000000000E+000	5.29848e-06
2	0	0	0	0	0	0	102.708	-0.0999884	-0.0999448	-0.0499074	-0.00125701	-0.00125701	13	-0.00034917	0	0.000000000000000E+000	3.48906e-08	0.000000000000000E+000	6.58264e+07	0.00034917	0.000000000000000E+000	0.00034917	0.0000000E+000	0.000000000000000E+000	4.98799e-06
2	0	0	0	0	0	0	103.608	-0.0999884	-0.099983	-0.0342782	-0.00129318	-0.00129318	13	-0.000359217	0	0.000000000000000E+000	3.58946e-08	0.000000000000000E+000	2.25706e+07	0.000359217	0.000000000000000E+000	0.000359217	0.0000000E+000	0.000000000000000E+000	3.42723e-06
2	0	0	0	0	0	0	104.508	-0.0999884	-0.0999066	-0.0227868	-0.00131739	-0.00131739	13	-0.000365941	0	0.000000000000000E+000	3.65665e-08	0.000000000000000E+000	6.89882e+07	0.000365941	0.000000000000000E+000	0.000365941	0.0000000E+000	0.000000000000000E+000	2.27655e-06
2	0	0	0	0	0	0	105.408	-0.0999884	-0.0999066	-0.0172105	-0.00133465	-0.00133465	13	-0.000370737	0	0.000000000000000E+000	3.70458e-08	0.000000000000000E+000	6.98924e+07	0.000370737	0.000000000000000E+000	0.000370737	0.0000000E+000	0.000000000000000E+000	1.71944e-06
2	0	0	0	0	0	0	106.308	-0.0999884	-0.0998302	-0.0155822	-0.00134927	-0.00134927	13	-0.000374796	0	0.000000000000000E+000	3.74514e-08	0.000000000000000E+000	1.41315e+07	0.000374796	0.000000000000000E+000	0.000374796	0.0000000E+000	0.000000000000000E+000	1.55557e-06
2	0	0	0	0	0	0	107.208	-0.0999884	-0.0998493	-0.0139009	-0.00136254	-0.00136254	13	-0.000378484	0	0.000000000000000E+000	3.78197e-08	0.000000000000000E+000	1.78382e+07	0.000378484	0.000000000000000E+000	0.000378484	0.0000000E+000	0.000000000000000E+000	1.388e-06
2	0	0	0	0	0	0	108.108	-0.0999884	-0.0999448	-0.012257	-0.00137416	-0.00137416	13	-0.000381712	0	0.000000000000000E+000	3.81424e-08	0.000000000000000E+000	7.19614e+07	0.000381712	0.000000000000000E+000	0.000381712	0.0000000E+000	0.000000000000000E+000	1.22502e-06
2	0	0	0	0	0	0	109.008	-0.0999884	-0.100002	-0.0112476	-0.00138466	-0.00138466	13	-0.000384629	0	0.000000000000000E+000	3.84339e-08	0.000000000000000E+000	1.8126e+07	0.000384629	0.000000000000000E+000	0.000384629	0.0000000E+000	0.000000000000000E+000	1.12478e-06
2	0	0	0	0	0	0	109.908	-0.0999884	-0.099983	-0.0104723	-0.00139439	-0.00139439	13	-0.00038733	0	0.000000000000000E+000	3.87038e-08	0.000000000000000E+000	2.4337e+07	0.00038733	0.000000000000000E+000	0.00038733	0.0000000E+000	0.000000000000000E+000	1.04705e-06
2	0	0	0	0	0	0	110.808	-0.0999884	-0.100021	-0.00983531	-0.00140348	-0.00140348	13	-0.000389857	0	0.000000000000000E+000	3.89564e-08	0.000000000000000E+000	1.46982e+07	0.000389857	0.000000000000000E+000	0.000389857	0.0000000E+000	0.000000000000000E+000	9.8374e-07
2	0	0	0	0	0	0	111.708	-0.0999884	-0.0998111	-0.00931838	-0.00141207	-0.00141207	13	-0.000392242	0	0.000000000000000E+000	3.91946e-08	0.000000000000000E+000	1.23244e+07	0.000392242	0.000000000000000E+000	0.000392242	0.0000000E+000	0.000000000000000E+000	9.30078e-07
2	0	0	0	0	0	0	112.608	-0.0999884	-0.0999257	-0.00886975	-0.00142023	-0.00142023	13	-0.000394508	0	0.000000000000000E+000	3.94211e-08	0.000000000000000E+000	0.000000000000000E+000	0.000394508	0.000000000000000E+000	0.000394508	0.0000000E+000	0.000000000000000E+000	8.86316e-07
2	0	0	0	0	0	0	113.508	-0.0999884	-0.0999066	-0.00847155	-0.00142801	-0.00142801	13	-0.00039667	0	0.000000000000000E+000	3.9637e-08	0.000000000000000E+000	7.47812e+07	0.00039667	0.000000000000000E+000	0.00039667	0.0000000E+000	0.000000000000000E+000	8.46364e-07
2	0	0	0	0	0	0	114.408	-0.0999884	-0.099983	-0.00812326	-0.00143546	-0.00143546	13	-0.000398738	0	0.000000000000000E+000	3.98437e-08	0.000000000000000E+000	2.50538e+07	0.000398738	0.000000000000000E+000	0.000398738	0.0000000E+000	0.000000000000000E+000	8.12188e-07
2	0	0	0	0	0	0	115.308	-0.0999884	-0.0999066	-0.00782144	-0.00144261	-0.00144261	13	-0.000400726	0	0.000000000000000E+000	4.00424e-08	0.000000000000000E+000	7.5546e+07	0.000400726	0.000000000000000E+000	0.000400726	0.0000000E+000	0.000000000000000E+000	7.81414e-07
2	0	0	0	0	0	0	116.208	-0.0999884	-0.0998875	-0.00755975	-0.00144952	-0.00144952	13	-0.000402644	0	0.000000000000000E+000	4.02341e-08	0.000000000000000E+000	3.79538e+07	0.000402644	0.000000000000000E+000	0.000402644	0.0000000E+000	0.000000000000000E+000	7.55125e-07
2	0	0	0	0	0	0	117.108	-0.0999884	-0.0999448	-0.00732978	-0.00145621	-0.00145621	13	-0.000404502	0	0.000000000000000E+000	4.04198e-08	0.000000000000000E+000	7.62578e+07	0.000404502	0.000000000000000E+000	0.000404502	0.0000000E+000	0.000000000000000E+000	7.32573e-07
2	0	0	0	0	0	0	118.008	-0.0999884	-0.099792	-0.00712579	-0.0014627	-0.0014627	13	-0.000406305	0	0.000000000000000E+000	4.06001e-08	0.000000000000000E+000	1.09425e+07	0.000406305	0.000000000000000E+000	0.000406305	0.0000000E+000	0.000000000000000E+000	7.11098e-07
2	0	0	0	0	0	0	118.908	-0.0999884	-0.0999066	-0.00694081	-0.00146902	-0.00146902	13	-0.000408061	0	0.000000000000000E+000	4.07754e-08	0.000000000000000E+000	7.69287e+07	0.000408061	0.000000000000000E+000	0.000408061	0.0000000E+000	0.000000000000000E+000	6.93433e-07
2	0	0	0	0	0	0	119.808	-0.0999884	-0.0998302	-0.006773	-0.00147518	-0.00147518	13	-0.000409772	0	0.000000000000000E+000	4.09464e-08	0.000000000000000E+000	1.54503e+07	0.000409772	0.000000000000000E+000	0.000409772	0.0000000E+000	0.000000000000000E+000	6.7615e-07
2	0	0	0	0	0	0	120.708	-0.0999884	-0.0999448	-0.00662067	-0.0014812	-0.0014812	13	-0.000411444	0	0.000000000000000E+000	4.11135e-08	0.000000000000000E+000	7.75666e+07	0.000411444	0.000000000000000E+000	0.000411444	0.0000000E+000	0.000000000000000E+000	6.61702e-07
2	0	0	0	0	0	0	121.608	-0.0999884	-0.100021	-0.00648079	-0.00148709	-0.00148709	13	-0.00041308	0	0.000000000000000E+000	4.1277e-08	0.000000000000000E+000	1.55738e+07	0.00041308	0.000000000000000E+000	0.00041308	0.0000000E+000	0.000000000000000E+000	6.48216e-07
2	0	0	0	0	0	0	122.508	-0.0999884	-0.0998111	-0.00635277	-0.00149285	-0.00149285	13	-0.000414682	0	0.000000000000000E+000	4.1437e-08	0.000000000000000E+000	1.30295e+07	0.000414682	0.000000000000000E+000	0.000414682	0.0000000E+000	0.000000000000000E+000	6.34077e-07
2	0	0	0	0	0	0	123.408	-0.0999884	-0.0998493	-0.00623382	-0.00149851	-0.00149851	13	-0.000416253	0	0.000000000000000E+000	4.15941e-08	0.000000000000000E+000	1.96183e+07	0.000416253	0.000000000000000E+000	0.000416253	0.0000000E+000	0.000000000000000E+000	6.22442e-07
2	0	0	0	0	0	0	124.308	-0.0999884	-0.099792	-0.00612447	-0.00150407	-0.00150407	13	-0.000417796	0	0.000000000000000E+000	4.17483e-08	0.000000000000000E+000	1.1252e+07	0.000417796	0.000000000000000E+000	0.000417796	0.0000000E+000	0.000000000000000E+000	6.11173e-07
2	0	0	0	0	0	0	125.208	-0.0999884	-0.099792	-0.00602131	-0.00150953	-0.00150953	13	-0.000419313	0	0.000000000000000E+000	4.18998e-08	0.000000000000000E+000	1.12929e+07	0.000419313	0.000000000000000E+000	0.000419313	0.0000000E+000	0.000000000000000E+000	6.00878e-07
2	0	0	0	0	0	0	126.108	-0.0999884	-0.099792	-0.00609902	-0.00151492	-0.00151492	13	-0.000420811	0	0.000000000000000E+000	4.20495e-08	0.000000000000000E+000	1.13332e+07	0.000420811	0.000000000000000E+000	0.000420811	0.0000000E+000	0.000000000000000E+000	6.08633e-07
2	0	0	0	0	0	0	127.008	-0.0999884	-0.0998875	-0.00930053	-0.0015219	-0.0015219	13	-0.000422751	0	0.000000000000000E+000	4.22433e-08	0.000000000000000E+000	3.98491e+07	0.000422751	0.000000000000000E+000	0.000422751	0.0000000E+000	0.000000000000000E+000	9.29007e-07
2	0	0	0	0	0	0	127.908	-0.0999884	-0.099792	-0.0168459	-0.00153313	-0.00153313	13	-0.000425869	0	0.000000000000000E+000	4.25548e-08	0.000000000000000E+000	1.14694e+07	0.000425869	0.000000000000000E+000	0.000425869	0.0000000E+000	0.000000000000000E+000	1.68109e-06
2	0	0	0	0	0	0	128.808	-0.0999884	-0.10004	-0.0172223	-0.00154935	-0.00154935	13	-0.000430376	0	0.000000000000000E+000	4.30052e-08	0.000000000000000E+000	1.35217e+07	0.000430376	0.000000000000000E+000	0.000430376	0.0000000E+000	0.000000000000000E+000	1.72292e-06
2	0	0	0	0	0	0	129.708	-0.0999884	-0.0999257	-0.014332	-0.00156314	-0.00156314	13	-0.000434206	0	0.000000000000000E+000	4.33878e-08	0.000000000000000E+000	0.000000000000000E+000	0.000434206	0.000000000000000E+000	0.000434206	0.0000000E+000	0.000000000000000E+000	1.43213e-06
2	0	0	0	0	0	0	130.608	-0.0999884	-0.100021	-0.0136278	-0.00157563	-0.00157563	13	-0.000437675	0	0.000000000000000E+000	4.37345e-08	0.000000000000000E+000	1.6501e+07	0.000437675	0.000000000000000E+000	0.000437675	0.0000000E+000	0.000000000000000E+000	1.36307e-06
2	0	0	0	0	0	0	131.508	-0.0999884	-0.0998302	-0.0131522	-0.00158764	-0.00158764	13	-0.000441012	0	0.000000000000000E+000	4.40679e-08	0.000000000000000E+000	1.66282e+07	0.000441012	0.000000000000000E+000	0.000441012	0.0000000E+000	0.000000000000000E+000	1.31299e-06
2	0	0	0	0	0	0	132.408	-0.0999884	-0.0997538	-0.012961	-0.0015994	-0.0015994	13	-0.000444277	0	0.000000000000000E+000	4.43942e-08	0.000000000000000E+000	9.30586e+06	0.000444277	0.000000000000000E+000	0.000444277	0.0000000E+000	0.000000000000000E+000	1.29291e-06
2	0	0	0	0	0	0	133.308	-0.0999884	-0.0999066	-0.0121214	-0.00161068	-0.00161068	13	-0.000447411	0	0.000000000000000E+000	4.47074e-08	0.000000000000000E+000	8.43471e+07	0.000447411	0.000000000000000E+000	0.000447411	0.0000000E+000	0.000000000000000E+000	1.211e-06
2	0	0	0	0	0	0	134.208	-0.0999884	-0.0999257	-0.0113816	-0.00162121	-0.00162121	13	-0.000450335	0	0.000000000000000E+000	4.49997e-08	0.000000000000000E+000	0.000000000000000E+000	0.000450335	0.000000000000000E+000	0.000450335	0.0000000E+000	0.000000000000000E+000	1.13731e-06
2	0	0	0	0	0	0	135.108	-0.0999884	-0.0999066	-0.0106765	-0.00163109	-0.00163109	13	-0.00045308	0	0.000000000000000E+000	4.5274e-08	0.000000000000000E+000	8.5416e+07	0.00045308	0.000000000000000E+000	0.00045308	0.0000000E+000	0.000000000000000E+000	1.06666e-06
2	0	0	0	0	0	0	136.008	-0.0999884	-0.0999639	-0.0101117	-0.0016404	-0.0016404	13	-0.000455668	0	0.000000000000000E+000	4.55326e-08	0.000000000000000E+000	4.29519e+07	0.000455668	0.000000000000000E+000	0.000455668	0.0000000E+000	0.000000000000000E+000	1.01081e-06
2	0	0	0	0	0	0	136.908	-0.0999884	-0.0999257	-0.00965603	-0.00164927	-0.00164927	13	-0.000458131	0	0.000000000000000E+000	4.57787e-08	0.000000000000000E+000	0.000000000000000E+000	0.000458131	0.000000000000000E+000	0.000458131	0.0000000E+000	0.000000000000000E+000	9.64886e-07
2	0	0	0	0	0	0	137.808	-0.0999884	-0.0999639	-0.0092515	-0.00165776	-0.00165776	13	-0.000460488	0	0.000000000000000E+000	4.60142e-08	0.000000000000000E+000	4.34062e+07	0.000460488	0.000000000000000E+000	0.000460488	0.0000000E+000	0.000000000000000E+000	9.24816e-07
2	0	0	0	0	0	0	138.708	-0.0999884	-0.0998684	-0.00890611	-0.00166591	-0.00166591	13	-0.000462752	0	0.000000000000000E+000	4.62404e-08	0.000000000000000E+000	2.90797e+07	0.000462752	0.000000000000000E+000	0.000462752	0.0000000E+000	0.000000000000000E+000	8.89439e-07
2	0	0	0	0	0	0	139.608	-0.0999884	-0.0999066	-0.00860456	-0.00167377	-0.00167377	13	-0.000464936	0	0.000000000000000E+000	4.64585e-08	0.000000000000000E+000	8.7651e+07	0.000464936	0.000000000000000E+000	0.000464936	0.0000000E+000	0.000000000000000E+000	8.59652e-07
2	0	0	0	0	0	0	140.508	-0.0999884	-0.0999257	-0.00833044	-0.00168137	-0.00168137	13	-0.000467048	0	0.000000000000000E+000	4.66696e-08	0.000000000000000E+000	0.000000000000000E+000	0.000467048	0.000000000000000E+000	0.000467048	0.0000000E+000	0.000000000000000E+000	8.32425e-07
2	0	0	0	0	0	0	141.408	-0.0999884	-0.100059	-0.00807622	-0.00168874	-0.00168874	13	-0.000469095	0	0.000000000000000E+000	4.68742e-08	0.000000000000000E+000	1.26329e+07	0.000469095	0.000000000000000E+000	0.000469095	0.0000000E+000	0.000000000000000E+000	8.08101e-07
2	0	0	0	0	0	0	142.308	-0.0999884	-0.0999448	-0.00784077	-0.00169589	-0.00169589	13	-0.000471081	0	0.000000000000000E+000	4.70726e-08	0.000000000000000E+000	8.88095e+07	0.000471081	0.000000000000000E+000	0.000471081	0.0000000E+000	0.000000000000000E+000	7.83644e-07
2	0	0	0	0	0	0	143.208	-0.0999884	-0.0999066	-0.00762376	-0.00170284	-0.00170284	13	-0.000473011	0	0.000000000000000E+000	4.72655e-08	0.000000000000000E+000	8.91733e+07	0.000473011	0.000000000000000E+000	0.000473011	0.0000000E+000	0.000000000000000E+000	7.61664e-07
2	0	0	0	0	0	0	144.108	-0.0999884	-0.100002	-0.00742611	-0.0017096	-0.0017096	13	-0.000474889	0	0.000000000000000E+000	4.74532e-08	0.000000000000000E+000	2.23797e+07	0.000474889	0.000000000000000E+000	0.000474889	0.0000000E+000	0.000000000000000E+000	7.42627e-07
2	0	0	0	0	0	0	145.008	-0.0999884	-0.0998684	-0.00724389	-0.00171619	-0.00171619	13	-0.00047672	0	0.000000000000000E+000	4.76361e-08	0.000000000000000E+000	2.99575e+07	0.00047672	0.000000000000000E+000	0.00047672	0.0000000E+000	0.000000000000000E+000	7.23436e-07
2	0	0	0	0	0	0	145.908	-0.0999884	-0.0999066	-0.00707554	-0.00172263	-0.00172263	13	-0.000478507	0	0.000000000000000E+000	4.78147e-08	0.000000000000000E+000	9.02095e+07	0.000478507	0.000000000000000E+000	0.000478507	0.0000000E+000	0.000000000000000E+000	7.06894e-07
2	0	0	0	0	0	0	146.808	-0.0999884	-0.0999639	-0.00691892	-0.00172892	-0.00172892	13	-0.000480254	0	0.000000000000000E+000	4.79892e-08	0.000000000000000E+000	4.52694e+07	0.000480254	0.000000000000000E+000	0.000480254	0.0000000E+000	0.000000000000000E+000	6.91643e-07
2	0	0	0	0	0	0	147.708	-0.0999884	-0.0998684	-0.00677126	-0.00173507	-0.00173507	13	-0.000481963	0	0.000000000000000E+000	4.816e-08	0.000000000000000E+000	3.0287e+07	0.000481963	0.000000000000000E+000	0.000481963	0.0000000E+000	0.000000000000000E+000	6.76235e-07
2	0	0	0	0	0	0	148.608	-0.0999884	-0.0999066	-0.00663481	-0.00174109	-0.00174109	13	-0.000483637	0	0.000000000000000E+000	4.83272e-08	0.000000000000000E+000	9.11766e+07	0.000483637	0.000000000000000E+000	0.000483637	0.0000000E+000	0.000000000000000E+000	6.62862e-07
2	0	0	0	0	0	0	149.508	-0.0999884	-0.0999639	-0.0065071	-0.001747	-0.001747	13	-0.000485278	0	0.000000000000000E+000	4.84912e-08	0.000000000000000E+000	4.5743e+07	0.000485278	0.000000000000000E+000	0.000485278	0.0000000E+000	0.000000000000000E+000	6.50475e-07
2	0	0	0	0	0	0	150.408	-0.0999884	-0.0998493	-0.00638724	-0.0017528	-0.0017528	13	-0.000486888	0	0.000000000000000E+000	4.86521e-08	0.000000000000000E+000	2.29474e+07	0.000486888	0.000000000000000E+000	0.000486888	0.0000000E+000	0.000000000000000E+000	6.37761e-07
2	0	0	0	0	0	0	151.308	-0.0999884	-0.0999639	-0.00627596	-0.00175849	-0.00175849	13	-0.000488469	0	0.000000000000000E+000	4.88101e-08	0.000000000000000E+000	4.60438e+07	0.000488469	0.000000000000000E+000	0.000488469	0.0000000E+000	0.000000000000000E+000	6.2737e-07
2	0	0	0	0	0	0	152.208	-0.0999884	-0.0999257	-0.00616945	-0.00176408	-0.00176408	13	-0.000490023	0	0.000000000000000E+000	4.89654e-08	0.000000000000000E+000	0.000000000000000E+000	0.000490023	0.000000000000000E+000	0.000490023	0.0000000E+000	0.000000000000000E+000	6.16487e-07
2	0	0	0	0	0	0	153.108	-0.0999884	-0.099983	-0.00606849	-0.00176958	-0.00176958	13	-0.000491551	0	0.000000000000000E+000	4.91182e-08	0.000000000000000E+000	3.08855e+07	0.000491551	0.000000000000000E+000	0.000491551	0.0000000E+000	0.000000000000000E+000	6.06746e-07
2	0	0	0	0	0	0	154.008	-0.0999884	-0.0999639	-0.00597211	-0.001775	-0.001775	13	-0.000493055	0	0.000000000000000E+000	4.92684e-08	0.000000000000000E+000	4.6476e+07	0.000493055	0.000000000000000E+000	0.000493055	0.0000000E+000	0.000000000000000E+000	5.96995e-07
2	0	0	0	0	0	0	154.908	-0.0999884	-0.0999066	-0.00587957	-0.00178033	-0.00178033	13	-0.000494535	0	0.000000000000000E+000	4.94163e-08	0.000000000000000E+000	9.32311e+07	0.000494535	0.000000000000000E+000	0.000494535	0.0000000E+000	0.000000000000000E+000	5.87407e-07
2	0	0	0	0	0	0	155.808	-0.0999884	-0.0998875	-0.00579108	-0.00178557	-0.00178557	13	-0.000495992	0	0.000000000000000E+000	4.9562e-08	0.000000000000000E+000	4.67529e+07	0.000495992	0.000000000000000E+000	0.000495992	0.0000000E+000	0.000000000000000E+000	5.78457e-07
2	0	0	0	0	0	0	156.708	-0.0999884	-0.10004	-0.00570746	-0.00179074	-0.00179074	13	-0.000497429	0	0.000000000000000E+000	4.97055e-08	0.000000000000000E+000	1.56284e+07	0.000497429	0.000000000000000E+000	0.000497429	0.0000000E+000	0.000000000000000E+000	5.70976e-07
2	0	0	0	0	0	0	157.608	-0.0999884	-0.0999639	-0.00562757	-0.00179584	-0.00179584	13	-0.000498844	0	0.000000000000000E+000	4.9847e-08	0.000000000000000E+000	4.70217e+07	0.000498844	0.000000000000000E+000	0.000498844	0.0000000E+000	0.000000000000000E+000	5.62554e-07
2	0	0	0	0	0	0	158.508	-0.0999884	-0.0999639	-0.00554957	-0.00180086	-0.00180086	13	-0.00050024	0	0.000000000000000E+000	4.99866e-08	0.000000000000000E+000	4.71533e+07	0.00050024	0.000000000000000E+000	0.00050024	0.0000000E+000	0.000000000000000E+000	5.54756e-07
2	0	0	0	0	0	0	159.408	-0.0999884	-0.0999066	-0.00547636	-0.00180582	-0.00180582	13	-0.000501617	0	0.000000000000000E+000	5.01242e-08	0.000000000000000E+000	9.45663e+07	0.000501617	0.000000000000000E+000	0.000501617	0.0000000E+000	0.000000000000000E+000	5.47125e-07
2	0	0	0	0	0	0	160.308	-0.0999884	-0.0998875	-0.00540433	-0.00181071	-0.00181071	13	-0.000502976	0	0.000000000000000E+000	5.026e-08	0.000000000000000E+000	4.74112e+07	0.000502976	0.000000000000000E+000	0.000502976	0.0000000E+000	0.000000000000000E+000	5.39825e-07
2	0	0	0	0	0	0	161.208	-0.0999884	-0.0998875	-0.00533654	-0.00181554	-0.00181554	13	-0.000504318	0	0.000000000000000E+000	5.0394e-08	0.000000000000000E+000	4.75377e+07	0.000504318	0.000000000000000E+000	0.000504318	0.0000000E+000	0.000000000000000E+000	5.33054e-07
2	0	0	0	0	0	0	162.108	-0.0999884	-0.0998302	-0.00526913	-0.00182031	-0.00182031	13	-0.000505643	0	0.000000000000000E+000	5.05263e-08	0.000000000000000E+000	1.9065e+07	0.000505643	0.000000000000000E+000	0.000505643	0.0000000E+000	0.000000000000000E+000	5.26019e-07
2	0	0	0	0	0	0	163.008	-0.0999884	-0.100021	-0.00520599	-0.00182502	-0.00182502	13	-0.000506951	0	0.000000000000000E+000	5.06571e-08	0.000000000000000E+000	1.91129e+07	0.000506951	0.000000000000000E+000	0.000506951	0.0000000E+000	0.000000000000000E+000	5.2071e-07
2	0	0	0	0	0	0	163.908	-0.0999884	-0.100021	-0.00514332	-0.00182968	-0.00182968	13	-0.000508244	0	0.000000000000000E+000	5.07863e-08	0.000000000000000E+000	1.91616e+07	0.000508244	0.000000000000000E+000	0.000508244	0.0000000E+000	0.000000000000000E+000	5.14441e-07
2	0	0	0	0	0	0	164.808	-0.0999884	-0.0998493	-0.00508371	-0.00183428	-0.00183428	13	-0.000509521	0	0.000000000000000E+000	5.09139e-08	0.000000000000000E+000	2.40141e+07	0.000509521	0.000000000000000E+000	0.000509521	0.0000000E+000	0.000000000000000E+000	5.07605e-07
2	0	0	0	0	0	0	165.335	-0.0999884	-0.0998684	-0.00504596	-0.00183694	-0.00183694	13	-0.000510262	0	0.000000000000000E+000	5.0988e-08	0.000000000000000E+000	3.20653e+07	0.000510262	0.000000000000000E+000	0.000510262	0.0000000E+000	0.000000000000000E+000	5.03932e-07