File: Data/2025-02-10 exp 2 potential step 0 v_C05.mpt
EC-Lab ASCII FILE
Nb header lines : 62

Chronoamperometry / Chronocoulometry

Run on channel : 5 (SN 39658)
User :
CE vs. WE compliance from -10 V to 10 V
Electrode connection : standard
Potential control : Ewe
Ewe ctrl range : min = -2.50 V, max = 2.50 V
Safety Limits :
	Do not start on E overload
Acquisition started on : 02/10/2025 12:39:34.140
Loaded Setting File :  NONE
Saved on :
	File : 2025-02-10 exp2 potential step 0 v_C05.mpr
	Directory : C:\Users\thefo\OneDrive\Documents\EC-Lab\Data\CHEM 451\
	Host : 172.24.113.132
Device : VSP (SN 1910)
Address : USB
EC-Lab for windows v11.46 (software)
Internet server v11.40 (firmware)
Command interpretor v11.40 (firmware)
Electrode material :
Initial state :
Electrolyte :
Comments :
Current amplifier : VSPB-4A
Electrode surface area : 0.001 cm²
Characteristic mass : 0.001 g
Equivalent Weight : 0.000 g/eq.
Density : 0.000 g/cm3
Volume (V) : 0.001 cm³
Cycle Definition : Charge/Discharge alternance
Ei (V)              0.000
vs.                 Ref
ti (h:m:s)          0:00:30.0000
Imax                pass
unit Imax           mA
Imin                pass
unit Imin           mA
dQM                 0.000
unit dQM            mA.h
record              <I>
dI                  5.000
unit dI             µA
dQ                  0.000
unit dQ             mA.h
dt (s)              0.1000
dta (s)             0.1000
E range min (V)     -2.500
E range max (V)     2.500
I Range             Auto
I Range min         Unset
I Range max         Unset
I Range init        Unset
Bandwidth           4
goto Ns'            0
nc cycles           0

mode	ox/red	error	control changes	Ns changes	counter inc.	Ns	time/s	control/V	Ewe/V	<I>/mA	dQ/C	(Q-Qo)/C	I Range	Q charge/discharge/mA.h	half cycle	Energy charge/W.h	Energy discharge/W.h	Capacitance charge/µF	Capacitance discharge/µF	Q discharge/mA.h	Q charge/mA.h	Capacity/mA.h	Efficiency/%	cycle number	P/W
2	0	0	1	0	0	0	0.1	1.57199e-05	0.000151523	-0.11956	-1.10073e-05	-1.10073e-05	12	-3.05758e-06	0	0.000000000000000E+000	4.63293e-13	0.000000000000000E+000	0.000000000000000E+000	3.05758e-06	0.000000000000000E+000	3.05758e-06	0.0000000E+000	0.000000000000000E+000	-1.81161e-08
2	0	0	1	0	0	0	0.3	1.57199e-05	0.000189716	-0.0674007	-2.6565e-05	-2.6565e-05	12	-7.37916e-06	0	0.000000000000000E+000	1.09607e-12	0.000000000000000E+000	695545	7.37916e-06	0.000000000000000E+000	7.37916e-06	0.0000000E+000	0.000000000000000E+000	-1.2787e-08
2	0	0	1	0	0	0	0.5	1.57199e-05	0.00011333	-0.0493774	-3.71486e-05	-3.71486e-05	12	-1.03191e-05	0	0.000000000000000E+000	1.36935e-12	0.000000000000000E+000	972652	1.03191e-05	0.000000000000000E+000	1.03191e-05	0.0000000E+000	0.000000000000000E+000	-5.59594e-09
2	0	0	1	0	0	0	0.7	1.57199e-05	0.000151523	-0.0403705	-4.56408e-05	-4.56408e-05	13	-1.2678e-05	0	0.000000000000000E+000	1.79768e-12	0.000000000000000E+000	0.000000000000000E+000	1.2678e-05	0.000000000000000E+000	1.2678e-05	0.0000000E+000	0.000000000000000E+000	-6.11706e-09
2	0	0	1	0	0	0	0.9	1.57199e-05	0.000247006	-0.0348063	-5.28521e-05	-5.28521e-05	13	-1.46811e-05	0	0.000000000000000E+000	2.2331e-12	0.000000000000000E+000	553525	1.46811e-05	0.000000000000000E+000	1.46811e-05	0.0000000E+000	0.000000000000000E+000	-8.59735e-09
2	0	0	1	0	0	0	1.1	1.57199e-05	0.000208813	-0.0309341	-5.92169e-05	-5.92169e-05	13	-1.64491e-05	0	0.000000000000000E+000	2.55022e-12	0.000000000000000E+000	1.03364e+06	1.64491e-05	0.000000000000000E+000	1.64491e-05	0.0000000E+000	0.000000000000000E+000	-6.45943e-09
2	0	0	1	0	0	0	1.3	1.57199e-05	0.000151523	-0.0280432	-6.49606e-05	-6.49606e-05	13	-1.80446e-05	0	0.000000000000000E+000	2.77638e-12	0.000000000000000E+000	0.000000000000000E+000	1.80446e-05	0.000000000000000E+000	1.80446e-05	0.0000000E+000	0.000000000000000E+000	-4.24919e-09
2	0	0	1	0	0	0	1.5	1.57199e-05	0.000247006	-0.0257836	-7.0224e-05	-7.0224e-05	13	-1.95067e-05	0	0.000000000000000E+000	3.05206e-12	0.000000000000000E+000	735463	1.95067e-05	0.000000000000000E+000	1.95067e-05	0.0000000E+000	0.000000000000000E+000	-6.36869e-09
2	0	0	1	0	0	0	1.7	1.57199e-05	0.000132426	-0.0239581	-7.51024e-05	-7.51024e-05	13	-2.08618e-05	0	0.000000000000000E+000	3.17883e-12	0.000000000000000E+000	3.93277e+06	2.08618e-05	0.000000000000000E+000	2.08618e-05	0.0000000E+000	0.000000000000000E+000	-3.17269e-09
2	0	0	1	0	0	0	1.9	1.57199e-05	0.000189716	-0.0224438	-7.96636e-05	-7.96636e-05	13	-2.21288e-05	0	0.000000000000000E+000	3.35776e-12	0.000000000000000E+000	2.08581e+06	2.21288e-05	0.000000000000000E+000	2.21288e-05	0.0000000E+000	0.000000000000000E+000	-4.25795e-09
2	0	0	1	0	0	0	2.1	1.57199e-05	0.000151523	-0.0211594	-8.39572e-05	-8.39572e-05	13	-2.33214e-05	0	0.000000000000000E+000	3.58468e-12	0.000000000000000E+000	0.000000000000000E+000	2.33214e-05	0.000000000000000E+000	2.33214e-05	0.0000000E+000	0.000000000000000E+000	-3.20614e-09
2	0	0	1	0	0	0	2.3	1.57199e-05	0.000151523	-0.0200666	-8.80233e-05	-8.80233e-05	13	-2.44509e-05	0	0.000000000000000E+000	3.76674e-12	0.000000000000000E+000	0.000000000000000E+000	2.44509e-05	0.000000000000000E+000	2.44509e-05	0.0000000E+000	0.000000000000000E+000	-3.04054e-09
2	0	0	1	0	0	0	2.5	1.57199e-05	0.000189716	-0.0191126	-9.18921e-05	-9.18921e-05	13	-2.55256e-05	0	0.000000000000000E+000	3.94985e-12	0.000000000000000E+000	2.40599e+06	2.55256e-05	0.000000000000000E+000	2.55256e-05	0.0000000E+000	0.000000000000000E+000	-3.62596e-09
2	0	0	1	0	0	0	2.7	1.57199e-05	0.000170619	-0.0182742	-9.55877e-05	-9.55877e-05	13	-2.65521e-05	0	0.000000000000000E+000	4.15473e-12	0.000000000000000E+000	5.0055e+06	2.65521e-05	0.000000000000000E+000	2.65521e-05	0.0000000E+000	0.000000000000000E+000	-3.11794e-09
2	0	0	1	0	0	0	2.9	1.57199e-05	0.000189716	-0.0175253	-9.91292e-05	-9.91292e-05	13	-2.75359e-05	0	0.000000000000000E+000	4.38881e-12	0.000000000000000E+000	2.59547e+06	2.75359e-05	0.000000000000000E+000	2.75359e-05	0.0000000E+000	0.000000000000000E+000	-3.32483e-09
2	0	0	1	0	0	0	3.1	1.57199e-05	0.000361585	-0.0168549	-0.000102533	-0.000102533	13	-2.84813e-05	0	0.000000000000000E+000	4.63953e-12	0.000000000000000E+000	488107	2.84813e-05	0.000000000000000E+000	2.84813e-05	0.0000000E+000	0.000000000000000E+000	-6.09449e-09
2	0	0	1	0	0	0	3.3	1.57199e-05	0.00011333	-0.016251	-0.000105813	-0.000105813	13	-2.93924e-05	0	0.000000000000000E+000	4.78667e-12	0.000000000000000E+000	2.77046e+06	2.93924e-05	0.000000000000000E+000	2.93924e-05	0.0000000E+000	0.000000000000000E+000	-1.84172e-09
2	0	0	1	0	0	0	3.5	1.57199e-05	0.00011333	-0.0157077	-0.000108981	-0.000108981	13	-3.02724e-05	0	0.000000000000000E+000	4.94572e-12	0.000000000000000E+000	2.85341e+06	3.02724e-05	0.000000000000000E+000	3.02724e-05	0.0000000E+000	0.000000000000000E+000	-1.78015e-09
2	0	0	1	0	0	0	3.7	1.57199e-05	0.000227909	-0.0152083	-0.000112047	-0.000112047	13	-3.11241e-05	0	0.000000000000000E+000	5.06605e-12	0.000000000000000E+000	1.46685e+06	3.11241e-05	0.000000000000000E+000	3.11241e-05	0.0000000E+000	0.000000000000000E+000	-3.46612e-09
2	0	0	1	0	0	0	3.9	1.57199e-05	0.000227909	-0.0147515	-0.000115019	-0.000115019	13	-3.19498e-05	0	0.000000000000000E+000	5.20659e-12	0.000000000000000E+000	1.50576e+06	3.19498e-05	0.000000000000000E+000	3.19498e-05	0.0000000E+000	0.000000000000000E+000	-3.362e-09
2	0	0	1	0	0	0	4.1	1.57199e-05	0.00011333	-0.0143308	-0.000117906	-0.000117906	13	-3.27517e-05	0	0.000000000000000E+000	5.34373e-12	0.000000000000000E+000	3.08711e+06	3.27517e-05	0.000000000000000E+000	3.27517e-05	0.0000000E+000	0.000000000000000E+000	-1.62411e-09
2	0	0	1	0	0	0	4.3	1.57199e-05	0.000132426	-0.0139437	-0.000120714	-0.000120714	13	-3.35316e-05	0	0.000000000000000E+000	5.41702e-12	0.000000000000000E+000	6.32124e+06	3.35316e-05	0.000000000000000E+000	3.35316e-05	0.0000000E+000	0.000000000000000E+000	-1.84651e-09
2	0	0	1	0	0	0	4.5	1.57199e-05	0.000170619	-0.0135833	-0.000123448	-0.000123448	13	-3.42911e-05	0	0.000000000000000E+000	5.55391e-12	0.000000000000000E+000	6.46442e+06	3.42911e-05	0.000000000000000E+000	3.42911e-05	0.0000000E+000	0.000000000000000E+000	-2.31757e-09
2	0	0	1	0	0	0	4.7	1.57199e-05	9.42333e-05	-0.0132486	-0.000126114	-0.000126114	13	-3.50317e-05	0	0.000000000000000E+000	5.63792e-12	0.000000000000000E+000	2.20134e+06	3.50317e-05	0.000000000000000E+000	3.50317e-05	0.0000000E+000	0.000000000000000E+000	-1.24846e-09
2	0	0	1	0	0	0	4.9	1.57199e-05	0.000170619	-0.0129386	-0.000128717	-0.000128717	13	-3.57547e-05	0	0.000000000000000E+000	5.78211e-12	0.000000000000000E+000	6.74033e+06	3.57547e-05	0.000000000000000E+000	3.57547e-05	0.0000000E+000	0.000000000000000E+000	-2.20759e-09
2	0	0	1	0	0	0	5.1	1.57199e-05	0.000132426	-0.0126491	-0.000131261	-0.000131261	13	-3.64613e-05	0	0.000000000000000E+000	5.88248e-12	0.000000000000000E+000	6.87354e+06	3.64613e-05	0.000000000000000E+000	3.64613e-05	0.0000000E+000	0.000000000000000E+000	-1.67508e-09
2	0	0	1	0	0	0	5.3	1.57199e-05	0.000189716	-0.0123621	-0.000133748	-0.000133748	13	-3.71522e-05	0	0.000000000000000E+000	6.01355e-12	0.000000000000000E+000	3.50189e+06	3.71522e-05	0.000000000000000E+000	3.71522e-05	0.0000000E+000	0.000000000000000E+000	-2.34528e-09
2	0	0	1	0	0	0	5.5	1.57199e-05	0.000132426	-0.0121203	-0.000136184	-0.000136184	13	-3.78289e-05	0	0.000000000000000E+000	6.11615e-12	0.000000000000000E+000	7.13135e+06	3.78289e-05	0.000000000000000E+000	3.78289e-05	0.0000000E+000	0.000000000000000E+000	-1.60505e-09
2	0	0	1	0	0	0	5.7	1.57199e-05	0.000151523	-0.0118791	-0.000138572	-0.000138572	13	-3.84921e-05	0	0.000000000000000E+000	6.22937e-12	0.000000000000000E+000	0.000000000000000E+000	3.84921e-05	0.000000000000000E+000	3.84921e-05	0.0000000E+000	0.000000000000000E+000	-1.79996e-09
2	0	0	1	0	0	0	5.9	1.57199e-05	0.000227909	-0.0116532	-0.000140913	-0.000140913	13	-3.91426e-05	0	0.000000000000000E+000	6.36514e-12	0.000000000000000E+000	1.84475e+06	3.91426e-05	0.000000000000000E+000	3.91426e-05	0.0000000E+000	0.000000000000000E+000	-2.65587e-09
2	0	0	1	0	0	0	6.1	1.57199e-05	0.000132426	-0.0114405	-0.000143212	-0.000143212	13	-3.97811e-05	0	0.000000000000000E+000	6.49256e-12	0.000000000000000E+000	7.49937e+06	3.97811e-05	0.000000000000000E+000	3.97811e-05	0.0000000E+000	0.000000000000000E+000	-1.51503e-09
2	0	0	1	0	0	0	6.3	1.57199e-05	0.000189716	-0.0112395	-0.00014547	-0.00014547	13	-4.04083e-05	0	0.000000000000000E+000	6.61155e-12	0.000000000000000E+000	3.8088e+06	4.04083e-05	0.000000000000000E+000	4.04083e-05	0.0000000E+000	0.000000000000000E+000	-2.13231e-09
2	0	0	1	0	0	0	6.5	1.57199e-05	1.78471e-05	-0.0110478	-0.000147689	-0.000147689	13	-4.10248e-05	0	0.000000000000000E+000	6.65211e-12	0.000000000000000E+000	1.10483e+06	4.10248e-05	0.000000000000000E+000	4.10248e-05	0.0000000E+000	0.000000000000000E+000	-1.97171e-10
2	0	0	1	0	0	0	6.7	1.57199e-05	0.000247006	-0.0108649	-0.000149871	-0.000149871	13	-4.16308e-05	0	0.000000000000000E+000	6.77857e-12	0.000000000000000E+000	1.56961e+06	4.16308e-05	0.000000000000000E+000	4.16308e-05	0.0000000E+000	0.000000000000000E+000	-2.6837e-09
2	0	0	1	0	0	0	6.9	1.57199e-05	0.000189716	-0.0106901	-0.000152018	-0.000152018	13	-4.22271e-05	0	0.000000000000000E+000	6.89742e-12	0.000000000000000E+000	3.98024e+06	4.22271e-05	0.000000000000000E+000	4.22271e-05	0.0000000E+000	0.000000000000000E+000	-2.02809e-09
2	0	0	1	0	0	0	7.1	1.57199e-05	0.000170619	-0.0105252	-0.000154131	-0.000154131	13	-4.28141e-05	0	0.000000000000000E+000	7.00882e-12	0.000000000000000E+000	8.07114e+06	4.28141e-05	0.000000000000000E+000	4.28141e-05	0.0000000E+000	0.000000000000000E+000	-1.7958e-09
2	0	0	1	0	0	0	7.3	1.57199e-05	0.000189716	-0.0103673	-0.000156212	-0.000156212	13	-4.33922e-05	0	0.000000000000000E+000	7.10188e-12	0.000000000000000E+000	4.09006e+06	4.33922e-05	0.000000000000000E+000	4.33922e-05	0.0000000E+000	0.000000000000000E+000	-1.96684e-09
2	0	0	1	0	0	0	7.5	1.57199e-05	0.000247006	-0.0102184	-0.000158263	-0.000158263	13	-4.3962e-05	0	0.000000000000000E+000	7.23714e-12	0.000000000000000E+000	1.6575e+06	4.3962e-05	0.000000000000000E+000	4.3962e-05	0.0000000E+000	0.000000000000000E+000	-2.524e-09
2	0	0	1	0	0	0	7.7	1.57199e-05	0.000151523	-0.0100742	-0.000160285	-0.000160285	13	-4.45236e-05	0	0.000000000000000E+000	7.34914e-12	0.000000000000000E+000	0.000000000000000E+000	4.45236e-05	0.000000000000000E+000	4.45236e-05	0.0000000E+000	0.000000000000000E+000	-1.52647e-09
2	0	0	1	0	0	0	7.9	1.57199e-05	0.00011333	-0.00993668	-0.000162279	-0.000162279	13	-4.50775e-05	0	0.000000000000000E+000	7.41723e-12	0.000000000000000E+000	4.24891e+06	4.50775e-05	0.000000000000000E+000	4.50775e-05	0.0000000E+000	0.000000000000000E+000	-1.12612e-09
2	0	0	1	0	0	0	8.1	1.57199e-05	0.000189716	-0.0098056	-0.000164247	-0.000164247	13	-4.56241e-05	0	0.000000000000000E+000	7.52616e-12	0.000000000000000E+000	4.30043e+06	4.56241e-05	0.000000000000000E+000	4.56241e-05	0.0000000E+000	0.000000000000000E+000	-1.86028e-09
2	0	0	1	0	0	0	8.3	1.57199e-05	0.000132426	-0.00967951	-0.000166189	-0.000166189	13	-4.61636e-05	0	0.000000000000000E+000	7.62344e-12	0.000000000000000E+000	8.70256e+06	4.61636e-05	0.000000000000000E+000	4.61636e-05	0.0000000E+000	0.000000000000000E+000	-1.28182e-09
2	0	0	1	0	0	0	8.5	1.57199e-05	0.000208813	-0.00955785	-0.000168106	-0.000168106	13	-4.66962e-05	0	0.000000000000000E+000	7.70405e-12	0.000000000000000E+000	2.93433e+06	4.66962e-05	0.000000000000000E+000	4.66962e-05	0.0000000E+000	0.000000000000000E+000	-1.9958e-09
2	0	0	1	0	0	0	8.7	1.57199e-05	0.000151523	-0.00944253	-0.000170001	-0.000170001	13	-4.72224e-05	0	0.000000000000000E+000	7.7737e-12	0.000000000000000E+000	0.000000000000000E+000	4.72224e-05	0.000000000000000E+000	4.72224e-05	0.0000000E+000	0.000000000000000E+000	-1.43076e-09
2	0	0	1	0	0	0	8.9	1.57199e-05	0.000170619	-0.00932705	-0.000171872	-0.000171872	13	-4.77422e-05	0	0.000000000000000E+000	7.87732e-12	0.000000000000000E+000	9.00016e+06	4.77422e-05	0.000000000000000E+000	4.77422e-05	0.0000000E+000	0.000000000000000E+000	-1.59138e-09
2	0	0	1	0	0	0	9.1	1.57199e-05	0.000304295	-0.00922311	-0.000173722	-0.000173722	13	-4.8256e-05	0	0.000000000000000E+000	7.99924e-12	0.000000000000000E+000	1.13713e+06	4.8256e-05	0.000000000000000E+000	4.8256e-05	0.0000000E+000	0.000000000000000E+000	-2.80655e-09
2	0	0	1	0	0	0	9.3	1.57199e-05	0.00011333	-0.00912251	-0.000175551	-0.000175551	13	-4.87642e-05	0	0.000000000000000E+000	8.07143e-12	0.000000000000000E+000	4.59641e+06	4.87642e-05	0.000000000000000E+000	4.87642e-05	0.0000000E+000	0.000000000000000E+000	-1.03385e-09
2	0	0	1	0	0	0	9.5	1.57199e-05	0.000151523	-0.00902348	-0.000177361	-0.000177361	13	-4.92669e-05	0	0.000000000000000E+000	8.18129e-12	0.000000000000000E+000	0.000000000000000E+000	4.92669e-05	0.000000000000000E+000	4.92669e-05	0.0000000E+000	0.000000000000000E+000	-1.36726e-09
2	0	0	1	0	0	0	9.7	1.57199e-05	0.000247006	-0.00892667	-0.000179151	-0.000179151	13	-4.97642e-05	0	0.000000000000000E+000	8.27555e-12	0.000000000000000E+000	1.87627e+06	4.97642e-05	0.000000000000000E+000	4.97642e-05	0.0000000E+000	0.000000000000000E+000	-2.20494e-09
2	0	0	1	0	0	0	9.9	1.57199e-05	0.000247006	-0.00883674	-0.000180923	-0.000180923	13	-5.02563e-05	0	0.000000000000000E+000	8.38769e-12	0.000000000000000E+000	1.89482e+06	5.02563e-05	0.000000000000000E+000	5.02563e-05	0.0000000E+000	0.000000000000000E+000	-2.18273e-09
2	0	0	1	0	0	0	10.1	1.57199e-05	0.000208813	-0.00874837	-0.000182677	-0.000182677	13	-5.07435e-05	0	0.000000000000000E+000	8.50342e-12	0.000000000000000E+000	3.18865e+06	5.07435e-05	0.000000000000000E+000	5.07435e-05	0.0000000E+000	0.000000000000000E+000	-1.82677e-09
2	0	0	1	0	0	0	10.3	1.57199e-05	0.000132426	-0.00866212	-0.000184413	-0.000184413	13	-5.12259e-05	0	0.000000000000000E+000	8.58577e-12	0.000000000000000E+000	9.65689e+06	5.12259e-05	0.000000000000000E+000	5.12259e-05	0.0000000E+000	0.000000000000000E+000	-1.14709e-09
2	0	0	1	0	0	0	10.5	1.57199e-05	0.000170619	-0.00857954	-0.000186133	-0.000186133	13	-5.17037e-05	0	0.000000000000000E+000	8.69016e-12	0.000000000000000E+000	9.74697e+06	5.17037e-05	0.000000000000000E+000	5.17037e-05	0.0000000E+000	0.000000000000000E+000	-1.46384e-09
2	0	0	1	0	0	0	10.7	1.57199e-05	5.60402e-05	-0.00849954	-0.000187837	-0.000187837	13	-5.2177e-05	0	0.000000000000000E+000	8.73933e-12	0.000000000000000E+000	1.96724e+06	5.2177e-05	0.000000000000000E+000	5.2177e-05	0.0000000E+000	0.000000000000000E+000	-4.76316e-10
2	0	0	1	0	0	0	10.9	1.57199e-05	0.000227909	-0.0084225	-0.000189526	-0.000189526	13	-5.2646e-05	0	0.000000000000000E+000	8.82377e-12	0.000000000000000E+000	2.48115e+06	5.2646e-05	0.000000000000000E+000	5.2646e-05	0.0000000E+000	0.000000000000000E+000	-1.91956e-09
2	0	0	1	0	0	0	11.1	1.57199e-05	0.000208813	-0.00834685	-0.000191199	-0.000191199	13	-5.31107e-05	0	0.000000000000000E+000	8.90748e-12	0.000000000000000E+000	3.3374e+06	5.31107e-05	0.000000000000000E+000	5.31107e-05	0.0000000E+000	0.000000000000000E+000	-1.74293e-09
2	0	0	1	0	0	0	11.3	1.57199e-05	0.000189716	-0.00827491	-0.000192857	-0.000192857	13	-5.35714e-05	0	0.000000000000000E+000	9.03015e-12	0.000000000000000E+000	5.04953e+06	5.35714e-05	0.000000000000000E+000	5.35714e-05	0.0000000E+000	0.000000000000000E+000	-1.56988e-09
2	0	0	1	0	0	0	11.5	1.57199e-05	0.000208813	-0.00820586	-0.000194502	-0.000194502	13	-5.40283e-05	0	0.000000000000000E+000	9.11243e-12	0.000000000000000E+000	3.39506e+06	5.40283e-05	0.000000000000000E+000	5.40283e-05	0.0000000E+000	0.000000000000000E+000	-1.71349e-09
2	0	0	1	0	0	0	11.7	1.57199e-05	9.42333e-05	-0.00813752	-0.000196133	-0.000196133	13	-5.44813e-05	0	0.000000000000000E+000	9.21147e-12	0.000000000000000E+000	3.42353e+06	5.44813e-05	0.000000000000000E+000	5.44813e-05	0.0000000E+000	0.000000000000000E+000	-7.66825e-10
2	0	0	1	0	0	0	11.9	1.57199e-05	0.000189716	-0.00807285	-0.000197751	-0.000197751	13	-5.49307e-05	0	0.000000000000000E+000	9.27953e-12	0.000000000000000E+000	5.17766e+06	5.49307e-05	0.000000000000000E+000	5.49307e-05	0.0000000E+000	0.000000000000000E+000	-1.53155e-09
2	0	0	1	0	0	0	12.1	1.57199e-05	0.000170619	-0.00800967	-0.000199356	-0.000199356	13	-5.53765e-05	0	0.000000000000000E+000	9.33854e-12	0.000000000000000E+000	1.04394e+07	5.53765e-05	0.000000000000000E+000	5.53765e-05	0.0000000E+000	0.000000000000000E+000	-1.3666e-09
2	0	0	1	0	0	0	12.3	1.57199e-05	0.000151523	-0.0079483	-0.000200948	-0.000200948	13	-5.5819e-05	0	0.000000000000000E+000	9.40981e-12	0.000000000000000E+000	0.000000000000000E+000	5.5819e-05	0.000000000000000E+000	5.5819e-05	0.0000000E+000	0.000000000000000E+000	-1.20435e-09
2	0	0	1	0	0	0	12.5	1.57199e-05	9.42333e-05	-0.00788912	-0.000202529	-0.000202529	13	-5.62581e-05	0	0.000000000000000E+000	9.47218e-12	0.000000000000000E+000	3.53518e+06	5.62581e-05	0.000000000000000E+000	5.62581e-05	0.0000000E+000	0.000000000000000E+000	-7.43417e-10
2	0	0	1	0	0	0	12.7	1.57199e-05	0.000304295	-0.00783049	-0.000204098	-0.000204098	13	-5.66939e-05	0	0.000000000000000E+000	9.5798e-12	0.000000000000000E+000	1.33596e+06	5.66939e-05	0.000000000000000E+000	5.66939e-05	0.0000000E+000	0.000000000000000E+000	-2.38278e-09
2	0	0	1	0	0	0	12.9	1.57199e-05	0.000151523	-0.00777526	-0.000205656	-0.000205656	13	-5.71266e-05	0	0.000000000000000E+000	9.63295e-12	0.000000000000000E+000	0.000000000000000E+000	5.71266e-05	0.000000000000000E+000	5.71266e-05	0.0000000E+000	0.000000000000000E+000	-1.17813e-09
2	0	0	1	0	0	0	13.1	1.57199e-05	0.000170619	-0.0077213	-0.000207203	-0.000207203	13	-5.75563e-05	0	0.000000000000000E+000	9.70626e-12	0.000000000000000E+000	1.08503e+07	5.75563e-05	0.000000000000000E+000	5.75563e-05	0.0000000E+000	0.000000000000000E+000	-1.3174e-09
2	0	0	1	0	0	0	13.3	1.57199e-05	0.000247006	-0.0076689	-0.000208739	-0.000208739	13	-5.79831e-05	0	0.000000000000000E+000	9.78311e-12	0.000000000000000E+000	2.18615e+06	5.79831e-05	0.000000000000000E+000	5.79831e-05	0.0000000E+000	0.000000000000000E+000	-1.89426e-09
2	0	0	1	0	0	0	13.5	1.57199e-05	5.60402e-05	-0.00761683	-0.000210265	-0.000210265	13	-5.8407e-05	0	0.000000000000000E+000	9.83929e-12	0.000000000000000E+000	2.20213e+06	5.8407e-05	0.000000000000000E+000	5.8407e-05	0.0000000E+000	0.000000000000000E+000	-4.26849e-10
2	0	0	1	0	0	0	13.7	1.57199e-05	9.42333e-05	-0.00756889	-0.000211781	-0.000211781	13	-5.88282e-05	0	0.000000000000000E+000	9.89912e-12	0.000000000000000E+000	3.69668e+06	5.88282e-05	0.000000000000000E+000	5.88282e-05	0.0000000E+000	0.000000000000000E+000	-7.13241e-10
2	0	0	1	0	0	0	13.9	1.57199e-05	9.42333e-05	-0.00752174	-0.000213288	-0.000213288	13	-5.92467e-05	0	0.000000000000000E+000	9.95457e-12	0.000000000000000E+000	3.72298e+06	5.92467e-05	0.000000000000000E+000	5.92467e-05	0.0000000E+000	0.000000000000000E+000	-7.08798e-10
2	0	0	1	0	0	0	14.1	1.57199e-05	0.000266102	-0.00747393	-0.000214785	-0.000214785	13	-5.96626e-05	0	0.000000000000000E+000	1.00613e-11	0.000000000000000E+000	1.87456e+06	5.96626e-05	0.000000000000000E+000	5.96626e-05	0.0000000E+000	0.000000000000000E+000	-1.98883e-09
2	0	0	1	0	0	0	14.3	1.57199e-05	0.000189716	-0.00742918	-0.000216273	-0.000216273	13	-6.00759e-05	0	0.000000000000000E+000	1.01357e-11	0.000000000000000E+000	5.66263e+06	6.00759e-05	0.000000000000000E+000	6.00759e-05	0.0000000E+000	0.000000000000000E+000	-1.40943e-09
2	0	0	1	0	0	0	14.5	1.57199e-05	0.000227909	-0.00738559	-0.000217753	-0.000217753	13	-6.04868e-05	0	0.000000000000000E+000	1.0249e-11	0.000000000000000E+000	2.85068e+06	6.04868e-05	0.000000000000000E+000	6.04868e-05	0.0000000E+000	0.000000000000000E+000	-1.68324e-09
2	0	0	1	0	0	0	14.7	1.57199e-05	7.51368e-05	-0.00734426	-0.000219223	-0.000219223	13	-6.08954e-05	0	0.000000000000000E+000	1.02914e-11	0.000000000000000E+000	2.86994e+06	6.08954e-05	0.000000000000000E+000	6.08954e-05	0.0000000E+000	0.000000000000000E+000	-5.51824e-10
2	0	0	1	0	0	0	14.9	1.57199e-05	0.000208813	-0.00730183	-0.000220686	-0.000220686	13	-6.13016e-05	0	0.000000000000000E+000	1.03607e-11	0.000000000000000E+000	3.85211e+06	6.13016e-05	0.000000000000000E+000	6.13016e-05	0.0000000E+000	0.000000000000000E+000	-1.52471e-09
2	0	0	1	0	0	0	15.1	1.57199e-05	0.000227909	-0.0072629	-0.00022214	-0.00022214	13	-6.17056e-05	0	0.000000000000000E+000	1.04451e-11	0.000000000000000E+000	2.90812e+06	6.17056e-05	0.000000000000000E+000	6.17056e-05	0.0000000E+000	0.000000000000000E+000	-1.65528e-09
2	0	0	1	0	0	0	15.3	1.57199e-05	0.000132426	-0.00722399	-0.000223587	-0.000223587	13	-6.21075e-05	0	0.000000000000000E+000	1.04983e-11	0.000000000000000E+000	1.17082e+07	6.21075e-05	0.000000000000000E+000	6.21075e-05	0.0000000E+000	0.000000000000000E+000	-9.56647e-10
2	0	0	1	0	0	0	15.5	1.57199e-05	0.000227909	-0.0071865	-0.000225026	-0.000225026	13	-6.25073e-05	0	0.000000000000000E+000	1.05665e-11	0.000000000000000E+000	2.9459e+06	6.25073e-05	0.000000000000000E+000	6.25073e-05	0.0000000E+000	0.000000000000000E+000	-1.63787e-09
2	0	0	1	0	0	0	15.7	1.57199e-05	9.42333e-05	-0.00715178	-0.000226458	-0.000226458	13	-6.29051e-05	0	0.000000000000000E+000	1.0623e-11	0.000000000000000E+000	3.95287e+06	6.29051e-05	0.000000000000000E+000	6.29051e-05	0.0000000E+000	0.000000000000000E+000	-6.73936e-10
2	0	0	1	0	0	0	15.9	1.57199e-05	0.000132426	-0.00711648	-0.000227883	-0.000227883	13	-6.33009e-05	0	0.000000000000000E+000	1.06792e-11	0.000000000000000E+000	1.19332e+07	6.33009e-05	0.000000000000000E+000	6.33009e-05	0.0000000E+000	0.000000000000000E+000	-9.4241e-10
2	0	0	1	0	0	0	16.1	1.57199e-05	0.000227909	-0.00708392	-0.000229302	-0.000229302	13	-6.36949e-05	0	0.000000000000000E+000	1.07652e-11	0.000000000000000E+000	3.00187e+06	6.36949e-05	0.000000000000000E+000	6.36949e-05	0.0000000E+000	0.000000000000000E+000	-1.61449e-09
2	0	0	1	0	0	0	16.3	1.57199e-05	0.00011333	-0.00705292	-0.000230714	-0.000230714	13	-6.40872e-05	0	0.000000000000000E+000	1.08209e-11	0.000000000000000E+000	6.04072e+06	6.40872e-05	0.000000000000000E+000	6.40872e-05	0.0000000E+000	0.000000000000000E+000	-7.99306e-10
2	0	0	1	0	0	0	16.5	1.57199e-05	0.000132426	-0.00702208	-0.00023212	-0.00023212	13	-6.44777e-05	0	0.000000000000000E+000	1.08988e-11	0.000000000000000E+000	1.21551e+07	6.44777e-05	0.000000000000000E+000	6.44777e-05	0.0000000E+000	0.000000000000000E+000	-9.29908e-10
2	0	0	1	0	0	0	16.7	1.57199e-05	0.000208813	-0.0069894	-0.000233519	-0.000233519	13	-6.48664e-05	0	0.000000000000000E+000	1.09502e-11	0.000000000000000E+000	4.07612e+06	6.48664e-05	0.000000000000000E+000	6.48664e-05	0.0000000E+000	0.000000000000000E+000	-1.45947e-09
2	0	0	1	0	0	0	16.9	1.57199e-05	0.000132426	-0.0069594	-0.000234913	-0.000234913	13	-6.52535e-05	0	0.000000000000000E+000	1.09904e-11	0.000000000000000E+000	1.23013e+07	6.52535e-05	0.000000000000000E+000	6.52535e-05	0.0000000E+000	0.000000000000000E+000	-9.21608e-10
2	0	0	1	0	0	0	17.1	1.57199e-05	0.000170619	-0.00693182	-0.0002363	-0.0002363	13	-6.5639e-05	0	0.000000000000000E+000	1.1034e-11	0.000000000000000E+000	1.2374e+07	6.5639e-05	0.000000000000000E+000	6.5639e-05	0.0000000E+000	0.000000000000000E+000	-1.1827e-09
2	0	0	1	0	0	0	17.3	1.57199e-05	0.000247006	-0.00689982	-0.000237682	-0.000237682	13	-6.60228e-05	0	0.000000000000000E+000	1.11031e-11	0.000000000000000E+000	2.48927e+06	6.60228e-05	0.000000000000000E+000	6.60228e-05	0.0000000E+000	0.000000000000000E+000	-1.70429e-09
2	0	0	1	0	0	0	17.5	1.57199e-05	0.00011333	-0.00687689	-0.000239059	-0.000239059	13	-6.64052e-05	0	0.000000000000000E+000	1.11611e-11	0.000000000000000E+000	6.25921e+06	6.64052e-05	0.000000000000000E+000	6.64052e-05	0.0000000E+000	0.000000000000000E+000	-7.79357e-10
2	0	0	1	0	0	0	17.7	1.57199e-05	0.000132426	-0.00685409	-0.000240431	-0.000240431	13	-6.67863e-05	0	0.000000000000000E+000	1.12407e-11	0.000000000000000E+000	1.25903e+07	6.67863e-05	0.000000000000000E+000	6.67863e-05	0.0000000E+000	0.000000000000000E+000	-9.07663e-10
2	0	0	1	0	0	0	17.9	1.57199e-05	0.00011333	-0.0068273	-0.000241797	-0.000241797	13	-6.71659e-05	0	0.000000000000000E+000	1.12837e-11	0.000000000000000E+000	6.33092e+06	6.71659e-05	0.000000000000000E+000	6.71659e-05	0.0000000E+000	0.000000000000000E+000	-7.73737e-10
2	0	0	1	0	0	0	18.1	1.57199e-05	0.000151523	-0.00680298	-0.000243159	-0.000243159	13	-6.75442e-05	0	0.000000000000000E+000	1.13519e-11	0.000000000000000E+000	0.000000000000000E+000	6.75442e-05	0.000000000000000E+000	6.75442e-05	0.0000000E+000	0.000000000000000E+000	-1.03081e-09
2	0	0	1	0	0	0	18.3	1.57199e-05	0.000170619	-0.00677979	-0.000244516	-0.000244516	13	-6.79212e-05	0	0.000000000000000E+000	1.14306e-11	0.000000000000000E+000	1.28042e+07	6.79212e-05	0.000000000000000E+000	6.79212e-05	0.0000000E+000	0.000000000000000E+000	-1.15676e-09
2	0	0	1	0	0	0	18.5	1.57199e-05	0.000266102	-0.00675696	-0.000245869	-0.000245869	13	-6.82969e-05	0	0.000000000000000E+000	1.15234e-11	0.000000000000000E+000	2.14584e+06	6.82969e-05	0.000000000000000E+000	6.82969e-05	0.0000000E+000	0.000000000000000E+000	-1.79804e-09
2	0	0	1	0	0	0	18.7	1.57199e-05	0.000208813	-0.00673542	-0.000247217	-0.000247217	13	-6.86714e-05	0	0.000000000000000E+000	1.16016e-11	0.000000000000000E+000	4.31521e+06	6.86714e-05	0.000000000000000E+000	6.86714e-05	0.0000000E+000	0.000000000000000E+000	-1.40644e-09
2	0	0	1	0	0	0	18.9	1.57199e-05	0.000227909	-0.00671352	-0.000248561	-0.000248561	13	-6.90447e-05	0	0.000000000000000E+000	1.17045e-11	0.000000000000000E+000	3.254e+06	6.90447e-05	0.000000000000000E+000	6.90447e-05	0.0000000E+000	0.000000000000000E+000	-1.53007e-09
2	0	0	1	0	0	0	19.1	1.57199e-05	0.000227909	-0.00669451	-0.000249901	-0.000249901	13	-6.94169e-05	0	0.000000000000000E+000	1.17822e-11	0.000000000000000E+000	3.27154e+06	6.94169e-05	0.000000000000000E+000	6.94169e-05	0.0000000E+000	0.000000000000000E+000	-1.52574e-09
2	0	0	1	0	0	0	19.3	1.57199e-05	0.000323392	-0.0066756	-0.000251237	-0.000251237	13	-6.9788e-05	0	0.000000000000000E+000	1.18597e-11	0.000000000000000E+000	1.46179e+06	6.9788e-05	0.000000000000000E+000	6.9788e-05	0.0000000E+000	0.000000000000000E+000	-2.15883e-09
2	0	0	1	0	0	0	19.5	1.57199e-05	0.000227909	-0.00665604	-0.000252569	-0.000252569	13	-7.0158e-05	0	0.000000000000000E+000	1.19582e-11	0.000000000000000E+000	3.30647e+06	7.0158e-05	0.000000000000000E+000	7.0158e-05	0.0000000E+000	0.000000000000000E+000	-1.51697e-09
2	0	0	1	0	0	0	19.7	1.57199e-05	0.000151523	-0.00663746	-0.000253897	-0.000253897	13	-7.0527e-05	0	0.000000000000000E+000	1.20282e-11	0.000000000000000E+000	0.000000000000000E+000	7.0527e-05	0.000000000000000E+000	7.0527e-05	0.0000000E+000	0.000000000000000E+000	-1.00573e-09
2	0	0	1	0	0	0	19.9	1.57199e-05	0.000266102	-0.00662083	-0.000255222	-0.000255222	13	-7.08951e-05	0	0.000000000000000E+000	1.21261e-11	0.000000000000000E+000	2.22748e+06	7.08951e-05	0.000000000000000E+000	7.08951e-05	0.0000000E+000	0.000000000000000E+000	-1.76182e-09
2	0	0	1	0	0	0	20.1	1.57199e-05	0.000304295	-0.0066042	-0.000256544	-0.000256544	13	-7.12622e-05	0	0.000000000000000E+000	1.22343e-11	0.000000000000000E+000	1.67926e+06	7.12622e-05	0.000000000000000E+000	7.12622e-05	0.0000000E+000	0.000000000000000E+000	-2.00963e-09
2	0	0	1	0	0	0	20.3	1.57199e-05	0.000189716	-0.00658771	-0.000257862	-0.000257862	13	-7.16284e-05	0	0.000000000000000E+000	1.23213e-11	0.000000000000000E+000	6.75155e+06	7.16284e-05	0.000000000000000E+000	7.16284e-05	0.0000000E+000	0.000000000000000E+000	-1.24979e-09
2	0	0	1	0	0	0	20.5	1.57199e-05	0.000189716	-0.00657195	-0.000259178	-0.000259178	13	-7.19938e-05	0	0.000000000000000E+000	1.23767e-11	0.000000000000000E+000	6.78598e+06	7.19938e-05	0.000000000000000E+000	7.19938e-05	0.0000000E+000	0.000000000000000E+000	-1.2468e-09
2	0	0	1	0	0	0	20.7	1.57199e-05	0.000151523	-0.00655715	-0.00026049	-0.00026049	13	-7.23582e-05	0	0.000000000000000E+000	1.24214e-11	0.000000000000000E+000	0.000000000000000E+000	7.23582e-05	0.000000000000000E+000	7.23582e-05	0.0000000E+000	0.000000000000000E+000	-9.93559e-10
2	0	0	1	0	0	0	20.9	1.57199e-05	0.000132426	-0.00654196	-0.000261799	-0.000261799	13	-7.27219e-05	0	0.000000000000000E+000	1.25009e-11	0.000000000000000E+000	1.37092e+07	7.27219e-05	0.000000000000000E+000	7.27219e-05	0.0000000E+000	0.000000000000000E+000	-8.66328e-10
2	0	0	1	0	0	0	21.1	1.57199e-05	0.000189716	-0.0065283	-0.000263105	-0.000263105	13	-7.30848e-05	0	0.000000000000000E+000	1.25662e-11	0.000000000000000E+000	6.88882e+06	7.30848e-05	0.000000000000000E+000	7.30848e-05	0.0000000E+000	0.000000000000000E+000	-1.23852e-09
2	0	0	1	0	0	0	21.3	1.57199e-05	0.000170619	-0.00651405	-0.000264409	-0.000264409	13	-7.34469e-05	0	0.000000000000000E+000	1.2628e-11	0.000000000000000E+000	1.38459e+07	7.34469e-05	0.000000000000000E+000	7.34469e-05	0.0000000E+000	0.000000000000000E+000	-1.11142e-09
2	0	0	1	0	0	0	21.5	1.57199e-05	0.000342488	-0.00650195	-0.00026571	-0.00026571	13	-7.38082e-05	0	0.000000000000000E+000	1.27345e-11	0.000000000000000E+000	1.3914e+06	7.38082e-05	0.000000000000000E+000	7.38082e-05	0.0000000E+000	0.000000000000000E+000	-2.22684e-09
2	0	0	1	0	0	0	21.7	1.57199e-05	0.000247006	-0.00648951	-0.000267008	-0.000267008	13	-7.41689e-05	0	0.000000000000000E+000	1.27995e-11	0.000000000000000E+000	2.7964e+06	7.41689e-05	0.000000000000000E+000	7.41689e-05	0.0000000E+000	0.000000000000000E+000	-1.60295e-09
2	0	0	1	0	0	0	21.9	1.57199e-05	0.00011333	-0.00647729	-0.000268304	-0.000268304	13	-7.45289e-05	0	0.000000000000000E+000	1.28403e-11	0.000000000000000E+000	7.02494e+06	7.45289e-05	0.000000000000000E+000	7.45289e-05	0.0000000E+000	0.000000000000000E+000	-7.3407e-10
2	0	0	1	0	0	0	22.1	1.57199e-05	0.000266102	-0.00646589	-0.000269598	-0.000269598	13	-7.48883e-05	0	0.000000000000000E+000	1.29188e-11	0.000000000000000E+000	2.35294e+06	7.48883e-05	0.000000000000000E+000	7.48883e-05	0.0000000E+000	0.000000000000000E+000	-1.72059e-09
2	0	0	1	0	0	0	22.3	1.57199e-05	9.42333e-05	-0.00645457	-0.000270889	-0.000270889	13	-7.5247e-05	0	0.000000000000000E+000	1.29526e-11	0.000000000000000E+000	4.72842e+06	7.5247e-05	0.000000000000000E+000	7.5247e-05	0.0000000E+000	0.000000000000000E+000	-6.08236e-10
2	0	0	1	0	0	0	22.5	1.57199e-05	0.000189716	-0.00644404	-0.000272179	-0.000272179	13	-7.56052e-05	0	0.000000000000000E+000	1.3e-11	0.000000000000000E+000	7.12639e+06	7.56052e-05	0.000000000000000E+000	7.56052e-05	0.0000000E+000	0.000000000000000E+000	-1.22254e-09
2	0	0	1	0	0	0	22.7	1.57199e-05	0.000208813	-0.00643383	-0.000273466	-0.000273466	13	-7.59628e-05	0	0.000000000000000E+000	1.30781e-11	0.000000000000000E+000	4.7734e+06	7.59628e-05	0.000000000000000E+000	7.59628e-05	0.0000000E+000	0.000000000000000E+000	-1.34346e-09
2	0	0	1	0	0	0	22.9	1.57199e-05	0.00011333	-0.00642414	-0.000274751	-0.000274751	13	-7.63198e-05	0	0.000000000000000E+000	1.31322e-11	0.000000000000000E+000	7.19374e+06	7.63198e-05	0.000000000000000E+000	7.63198e-05	0.0000000E+000	0.000000000000000E+000	-7.28046e-10
2	0	0	1	0	0	0	23.1	1.57199e-05	0.00011333	-0.00641418	-0.000276034	-0.000276034	13	-7.66762e-05	0	0.000000000000000E+000	1.31692e-11	0.000000000000000E+000	7.22734e+06	7.66762e-05	0.000000000000000E+000	7.66762e-05	0.0000000E+000	0.000000000000000E+000	-7.26918e-10
2	0	0	1	0	0	0	23.3	1.57199e-05	0.000151523	-0.00640191	-0.000277315	-0.000277315	13	-7.70321e-05	0	0.000000000000000E+000	1.32333e-11	0.000000000000000E+000	0.000000000000000E+000	7.70321e-05	0.000000000000000E+000	7.70321e-05	0.0000000E+000	0.000000000000000E+000	-9.70037e-10
2	0	0	1	0	0	0	23.5	1.57199e-05	0.000132426	-0.00639305	-0.000278595	-0.000278595	13	-7.73874e-05	0	0.000000000000000E+000	1.32803e-11	0.000000000000000E+000	1.45887e+07	7.73874e-05	0.000000000000000E+000	7.73874e-05	0.0000000E+000	0.000000000000000E+000	-8.46609e-10
2	0	0	1	0	0	0	23.7	1.57199e-05	0.000132426	-0.00638489	-0.000279872	-0.000279872	13	-7.77422e-05	0	0.000000000000000E+000	1.33409e-11	0.000000000000000E+000	1.46556e+07	7.77422e-05	0.000000000000000E+000	7.77422e-05	0.0000000E+000	0.000000000000000E+000	-8.45527e-10
2	0	0	1	0	0	0	23.9	1.57199e-05	0.000189716	-0.00637569	-0.000281148	-0.000281148	13	-7.80965e-05	0	0.000000000000000E+000	1.34081e-11	0.000000000000000E+000	7.36122e+06	7.80965e-05	0.000000000000000E+000	7.80965e-05	0.0000000E+000	0.000000000000000E+000	-1.20957e-09
2	0	0	1	0	0	0	24.1	1.57199e-05	0.000170619	-0.006367	-0.000282421	-0.000282421	13	-7.84504e-05	0	0.000000000000000E+000	1.34617e-11	0.000000000000000E+000	1.47891e+07	7.84504e-05	0.000000000000000E+000	7.84504e-05	0.0000000E+000	0.000000000000000E+000	-1.08633e-09
2	0	0	1	0	0	0	24.3	1.57199e-05	0.000247006	-0.00635862	-0.000283694	-0.000283694	13	-7.88038e-05	0	0.000000000000000E+000	1.35355e-11	0.000000000000000E+000	2.97115e+06	7.88038e-05	0.000000000000000E+000	7.88038e-05	0.0000000E+000	0.000000000000000E+000	-1.57061e-09
2	0	0	1	0	0	0	24.5	1.57199e-05	0.000151523	-0.00635046	-0.000284964	-0.000284964	13	-7.91566e-05	0	0.000000000000000E+000	1.35923e-11	0.000000000000000E+000	0.000000000000000E+000	7.91566e-05	0.000000000000000E+000	7.91566e-05	0.0000000E+000	0.000000000000000E+000	-9.6224e-10
2	0	0	1	0	0	0	24.7	1.57199e-05	0.000304295	-0.00634228	-0.000286233	-0.000286233	13	-7.95091e-05	0	0.000000000000000E+000	1.36929e-11	0.000000000000000E+000	1.87359e+06	7.95091e-05	0.000000000000000E+000	7.95091e-05	0.0000000E+000	0.000000000000000E+000	-1.92993e-09
2	0	0	1	0	0	0	24.9	1.57199e-05	5.60402e-05	-0.00633463	-0.0002875	-0.0002875	13	-7.98612e-05	0	0.000000000000000E+000	1.37395e-11	0.000000000000000E+000	3.01102e+06	7.98612e-05	0.000000000000000E+000	7.98612e-05	0.0000000E+000	0.000000000000000E+000	-3.54994e-10
2	0	0	1	0	0	0	25.1	1.57199e-05	0.000342488	-0.00632635	-0.000288766	-0.000288766	13	-8.02127e-05	0	0.000000000000000E+000	1.3833e-11	0.000000000000000E+000	1.51214e+06	8.02127e-05	0.000000000000000E+000	8.02127e-05	0.0000000E+000	0.000000000000000E+000	-2.1667e-09
2	0	0	1	0	0	0	25.3	1.57199e-05	0.000189716	-0.00631852	-0.00029003	-0.00029003	13	-8.05639e-05	0	0.000000000000000E+000	1.39064e-11	0.000000000000000E+000	7.59378e+06	8.05639e-05	0.000000000000000E+000	8.05639e-05	0.0000000E+000	0.000000000000000E+000	-1.19872e-09
2	0	0	1	0	0	0	25.5	1.57199e-05	0.000170619	-0.00630966	-0.000291292	-0.000291292	13	-8.09145e-05	0	0.000000000000000E+000	1.39662e-11	0.000000000000000E+000	1.52537e+07	8.09145e-05	0.000000000000000E+000	8.09145e-05	0.0000000E+000	0.000000000000000E+000	-1.07655e-09
2	0	0	1	0	0	0	25.7	1.57199e-05	0.000247006	-0.00630163	-0.000292553	-0.000292553	13	-8.12647e-05	0	0.000000000000000E+000	1.4046e-11	0.000000000000000E+000	3.06394e+06	8.12647e-05	0.000000000000000E+000	8.12647e-05	0.0000000E+000	0.000000000000000E+000	-1.55654e-09
2	0	0	1	0	0	0	25.9	1.57199e-05	0.000151523	-0.00629329	-0.000293812	-0.000293812	13	-8.16144e-05	0	0.000000000000000E+000	1.4109e-11	0.000000000000000E+000	0.000000000000000E+000	8.16144e-05	0.000000000000000E+000	8.16144e-05	0.0000000E+000	0.000000000000000E+000	-9.53578e-10
2	0	0	1	0	0	0	26.1	1.57199e-05	0.000208813	-0.00628502	-0.00029507	-0.00029507	13	-8.19638e-05	0	0.000000000000000E+000	1.4182e-11	0.000000000000000E+000	5.15049e+06	8.19638e-05	0.000000000000000E+000	8.19638e-05	0.0000000E+000	0.000000000000000E+000	-1.31239e-09
2	0	0	1	0	0	0	26.3	1.57199e-05	0.000170619	-0.00627744	-0.000296325	-0.000296325	13	-8.23126e-05	0	0.000000000000000E+000	1.42448e-11	0.000000000000000E+000	1.55172e+07	8.23126e-05	0.000000000000000E+000	8.23126e-05	0.0000000E+000	0.000000000000000E+000	-1.07105e-09
2	0	0	1	0	0	0	26.5	1.57199e-05	0.000208813	-0.00626939	-0.00029758	-0.00029758	13	-8.2661e-05	0	0.000000000000000E+000	1.43275e-11	0.000000000000000E+000	5.1943e+06	8.2661e-05	0.000000000000000E+000	8.2661e-05	0.0000000E+000	0.000000000000000E+000	-1.30913e-09
2	0	0	1	0	0	0	26.7	1.57199e-05	0.000266102	-0.00626165	-0.000298832	-0.000298832	13	-8.30089e-05	0	0.000000000000000E+000	1.44135e-11	0.000000000000000E+000	2.60808e+06	8.30089e-05	0.000000000000000E+000	8.30089e-05	0.0000000E+000	0.000000000000000E+000	-1.66624e-09
2	0	0	1	0	0	0	26.9	1.57199e-05	0.000208813	-0.00625309	-0.000300083	-0.000300083	13	-8.33564e-05	0	0.000000000000000E+000	1.44894e-11	0.000000000000000E+000	5.238e+06	8.33564e-05	0.000000000000000E+000	8.33564e-05	0.0000000E+000	0.000000000000000E+000	-1.30572e-09
2	0	0	1	0	0	0	27.1	1.57199e-05	0.000151523	-0.00624542	-0.000301333	-0.000301333	13	-8.37035e-05	0	0.000000000000000E+000	1.45486e-11	0.000000000000000E+000	0.000000000000000E+000	8.37035e-05	0.000000000000000E+000	8.37035e-05	0.0000000E+000	0.000000000000000E+000	-9.46324e-10
2	0	0	1	0	0	0	27.3	1.57199e-05	0.000208813	-0.00623755	-0.00030258	-0.00030258	13	-8.40501e-05	0	0.000000000000000E+000	1.46143e-11	0.000000000000000E+000	5.28159e+06	8.40501e-05	0.000000000000000E+000	8.40501e-05	0.0000000E+000	0.000000000000000E+000	-1.30248e-09
2	0	0	1	0	0	0	27.5	1.57199e-05	0.00011333	-0.00622862	-0.000303826	-0.000303826	13	-8.43962e-05	0	0.000000000000000E+000	1.46965e-11	0.000000000000000E+000	7.95501e+06	8.43962e-05	0.000000000000000E+000	8.43962e-05	0.0000000E+000	0.000000000000000E+000	-7.05888e-10
2	0	0	1	0	0	0	27.7	1.57199e-05	0.000227909	-0.0062209	-0.000305071	-0.000305071	13	-8.4742e-05	0	0.000000000000000E+000	1.47654e-11	0.000000000000000E+000	3.9938e+06	8.4742e-05	0.000000000000000E+000	8.4742e-05	0.0000000E+000	0.000000000000000E+000	-1.4178e-09
2	0	0	1	0	0	0	27.9	1.57199e-05	0.000189716	-0.00621257	-0.000306314	-0.000306314	13	-8.50872e-05	0	0.000000000000000E+000	1.48144e-11	0.000000000000000E+000	8.02014e+06	8.50872e-05	0.000000000000000E+000	8.50872e-05	0.0000000E+000	0.000000000000000E+000	-1.17862e-09
2	0	0	1	0	0	0	28.1	1.57199e-05	0.000170619	-0.00620575	-0.000307555	-0.000307555	13	-8.54321e-05	0	0.000000000000000E+000	1.48865e-11	0.000000000000000E+000	1.61053e+07	8.54321e-05	0.000000000000000E+000	8.54321e-05	0.0000000E+000	0.000000000000000E+000	-1.05882e-09
2	0	0	1	0	0	0	28.3	1.57199e-05	0.00011333	-0.00619666	-0.000308795	-0.000308795	13	-8.57765e-05	0	0.000000000000000E+000	1.49485e-11	0.000000000000000E+000	8.08511e+06	8.57765e-05	0.000000000000000E+000	8.57765e-05	0.0000000E+000	0.000000000000000E+000	-7.02266e-10
2	0	0	1	0	0	0	28.5	1.57199e-05	9.42333e-05	-0.006188	-0.000310033	-0.000310033	13	-8.61203e-05	0	0.000000000000000E+000	1.50072e-11	0.000000000000000E+000	5.41168e+06	8.61203e-05	0.000000000000000E+000	8.61203e-05	0.0000000E+000	0.000000000000000E+000	-5.83116e-10
2	0	0	1	0	0	0	28.7	1.57199e-05	0.000189716	-0.00617892	-0.000311269	-0.000311269	13	-8.64637e-05	0	0.000000000000000E+000	1.50723e-11	0.000000000000000E+000	8.14989e+06	8.64637e-05	0.000000000000000E+000	8.64637e-05	0.0000000E+000	0.000000000000000E+000	-1.17224e-09
2	0	0	1	0	0	0	28.9	1.57199e-05	0.000285199	-0.00617071	-0.000312504	-0.000312504	13	-8.68067e-05	0	0.000000000000000E+000	1.51472e-11	0.000000000000000E+000	2.33778e+06	8.68067e-05	0.000000000000000E+000	8.68067e-05	0.0000000E+000	0.000000000000000E+000	-1.75988e-09
2	0	0	1	0	0	0	29.1	1.57199e-05	0.000132426	-0.00616198	-0.000313737	-0.000313737	13	-8.71491e-05	0	0.000000000000000E+000	1.51828e-11	0.000000000000000E+000	1.6429e+07	8.71491e-05	0.000000000000000E+000	8.71491e-05	0.0000000E+000	0.000000000000000E+000	-8.16009e-10
2	0	0	1	0	0	0	29.3	1.57199e-05	9.42333e-05	-0.00615276	-0.000314968	-0.000314968	13	-8.74911e-05	0	0.000000000000000E+000	1.5228e-11	0.000000000000000E+000	5.49782e+06	8.74911e-05	0.000000000000000E+000	8.74911e-05	0.0000000E+000	0.000000000000000E+000	-5.79795e-10
2	0	0	1	0	0	0	29.5	1.57199e-05	0.000189716	-0.00614349	-0.000316197	-0.000316197	13	-8.78325e-05	0	0.000000000000000E+000	1.52961e-11	0.000000000000000E+000	8.27891e+06	8.78325e-05	0.000000000000000E+000	8.78325e-05	0.0000000E+000	0.000000000000000E+000	-1.16552e-09
2	0	0	1	0	0	0	29.7	1.57199e-05	0.000247006	-0.00613396	-0.000317424	-0.000317424	13	-8.81734e-05	0	0.000000000000000E+000	1.5377e-11	0.000000000000000E+000	3.32442e+06	8.81734e-05	0.000000000000000E+000	8.81734e-05	0.0000000E+000	0.000000000000000E+000	-1.51512e-09
2	0	0	1	0	0	0	29.9	1.57199e-05	0.000247006	-0.00612897	-0.00031865	-0.00031865	13	-8.8514e-05	0	0.000000000000000E+000	1.54449e-11	0.000000000000000E+000	3.33726e+06	8.8514e-05	0.000000000000000E+000	8.8514e-05	0.0000000E+000	0.000000000000000E+000	-1.51389e-09
2	0	0	1	0	0	0	29.9998	1.57199e-05	0.000170619	-0.00612354	-0.000319261	-0.000319261	13	-8.86837e-05	0	0.000000000000000E+000	1.54738e-11	0.000000000000000E+000	1.67183e+07	8.86837e-05	0.000000000000000E+000	8.86837e-05	0.0000000E+000	0.000000000000000E+000	-1.0448e-09