File: Data/2025-02-10 exp 10 CV 2000mvs_C05.mpt
EC-Lab ASCII FILE
Nb header lines : 59

Cyclic Voltammetry

Run on channel : 5 (SN 39658)
User :
CE vs. WE compliance from -10 V to 10 V
Electrode connection : standard
Potential control : Ewe
Ewe ctrl range : min = -2.50 V, max = 2.50 V
Safety Limits :
	Do not start on E overload
Acquisition started on : 02/10/2025 13:00:49.750
Loaded Setting File :  NONE
Saved on :
	File : 2025-02-10 exp 10 CV 2000mvs_C05.mpr
	Directory : C:\Users\thefo\OneDrive\Documents\EC-Lab\Data\CHEM 451\
	Host : 172.24.113.132
Device : VSP (SN 1910)
Address : USB
EC-Lab for windows v11.46 (software)
Internet server v11.40 (firmware)
Command interpretor v11.40 (firmware)
Electrode material : Au/Pd
Initial state :
Electrolyte : NaCl (0.2M)
Comments : Fe(CN)63-/Fe(CN)64- 5.10-3 M
Current amplifier : VSPB-4A
Reference electrode : SCE Saturated Calomel Electrode (0.241 V)
Electrode surface area : 0.001 cm²
Characteristic mass : 0.001 g
Equivalent Weight : 0.000 g/eq.
Density : 0.000 g/cm3
Volume (V) : 0.001 cm³
Cycle Definition : Charge/Discharge alternance
Ei (V)              0.000
vs.                 Eoc
dE/dt               2.000
dE/dt unit          V/s
E1 (V)              -0.200
vs.                 Ref
Step percent        50
N                   10
E range min (V)     -2.500
E range max (V)     2.500
I Range             Auto
I Range min         Unset
I Range max         Unset
I Range init        Unset
Bandwidth           4
E2 (V)              0.500
vs.                 Ref
nc cycles           0
Reverse Scan        1
Ef (V)              0.000
vs.                 Ref

mode	ox/red	error	control changes	counter inc.	time/s	control/V	Ewe/V	<I>/mA	cycle number	(Q-Qo)/C	I Range	P/W
2	1	0	1	0	0.000000000000000E+000	0.305183	0.305448	5.29255e-05	1	0.0000000E+000	14	1.6166e-08
2	1	0	1	0	0.0011	0.302982	0.305014	-0.00165148	1	-1.69899e-09	14	-5.03724e-07
2	0	0	1	0	0.0181	0.268971	0.2709	-0.0365988	1	-1.92517e-07	14	-9.9146e-06
2	0	0	1	0	0.0351	0.23496	0.235381	-0.0673552	1	-4.54531e-07	13	-1.58541e-05
2	0	0	1	0	0.0371	0.230959	0.231372	-0.0718365	1	-5.94178e-07	13	-1.6621e-05
2	0	0	1	0	0.0391	0.226958	0.227365	-0.0765897	1	-7.43071e-07	13	-1.74138e-05
2	0	0	1	0	0.0411	0.222956	0.223351	-0.0814475	1	-9.01588e-07	13	-1.81914e-05
2	0	0	1	0	0.0431	0.218955	0.219368	-0.0863631	1	-1.06989e-06	13	-1.89453e-05
2	0	0	1	0	0.0451	0.214954	0.215387	-0.0914157	1	-1.24816e-06	13	-1.96898e-05
2	0	0	1	0	0.0471	0.210953	0.21137	-0.096511	1	-1.4366e-06	13	-2.03995e-05
2	0	0	1	0	0.0491	0.206951	0.207363	-0.101618	1	-1.63524e-06	13	-2.10718e-05
2	0	0	1	0	0.0511	0.20295	0.203355	-0.106672	1	-1.84402e-06	13	-2.16923e-05
2	0	0	1	0	0.0681	0.16899	0.169273	-0.136084	1	-3.75874e-06	13	-2.30353e-05
2	0	0	1	0	0.0851	0.135028	0.135239	-0.16151	1	-5.73295e-06	12	-2.18425e-05
2	0	0	1	0	0.0871	0.131027	0.13126	-0.16206	1	-6.05661e-06	12	-2.1272e-05
2	0	0	1	0	0.0891	0.127025	0.127284	-0.162447	1	-6.38117e-06	12	-2.06769e-05
2	0	0	1	0	0.0911	0.123024	0.123236	-0.162583	1	-6.70622e-06	12	-2.00362e-05
2	0	0	1	0	0.0931	0.119023	0.119239	-0.162593	1	-7.03139e-06	12	-1.93874e-05
2	0	0	1	0	0.0951	0.115022	0.115239	-0.162287	1	-7.35621e-06	12	-1.87017e-05
2	0	0	1	0	0.0971	0.11102	0.111219	-0.16202	1	-7.6805e-06	12	-1.80197e-05
2	0	0	1	0	0.0991	0.107019	0.107217	-0.161548	1	-8.00402e-06	12	-1.73207e-05
2	0	0	1	0	0.1011	0.103018	0.103246	-0.160916	1	-8.32642e-06	12	-1.66139e-05
2	0	0	1	0	0.1031	0.0990163	0.099219	-0.160283	1	-8.64754e-06	12	-1.59031e-05
2	0	0	1	0	0.1051	0.095015	0.0952576	-0.159581	1	-8.96731e-06	12	-1.52013e-05
2	0	0	1	0	0.1071	0.0910137	0.091242	-0.158764	1	-9.2856e-06	12	-1.4486e-05
2	0	0	1	0	0.1091	0.0870125	0.0872158	-0.158049	1	-9.60235e-06	12	-1.37843e-05
2	0	0	1	0	0.1111	0.0830112	0.0831981	-0.157267	1	-9.91759e-06	12	-1.30843e-05
2	0	0	1	0	0.1131	0.0790099	0.0792345	-0.156427	1	-1.02312e-05	12	-1.23944e-05
2	0	0	1	0	0.1151	0.0750086	0.0752359	-0.155686	1	-1.05432e-05	12	-1.17132e-05
2	0	0	1	0	0.1171	0.0710073	0.0712161	-0.154863	1	-1.08537e-05	12	-1.10287e-05
2	0	0	1	0	0.1191	0.067006	0.0672239	-0.154099	1	-1.11626e-05	12	-1.03591e-05
2	0	0	1	0	0.1211	0.0630047	0.0632104	-0.153262	1	-1.14699e-05	12	-9.68777e-06
2	0	0	1	0	0.1231	0.0590034	0.0591916	-0.152545	1	-1.17756e-05	12	-9.02941e-06
2	0	0	1	0	0.1251	0.0550021	0.0552217	-0.151834	1	-1.20799e-05	12	-8.38453e-06
2	0	0	1	0	0.1271	0.0510008	0.0512146	-0.151087	1	-1.23827e-05	12	-7.73785e-06
2	0	0	1	0	0.1291	0.0469995	0.0472149	-0.150455	1	-1.26842e-05	12	-7.1037e-06
2	0	0	1	0	0.1311	0.0429982	0.0432545	-0.149816	1	-1.29844e-05	12	-6.4802e-06
2	0	0	1	0	0.1331	0.0389969	0.0392241	-0.149147	1	-1.32833e-05	12	-5.85015e-06
2	0	0	1	0	0.1351	0.0349956	0.035199	-0.148555	1	-1.35809e-05	12	-5.229e-06
2	0	0	1	0	0.1371	0.0309943	0.0311866	-0.148006	1	-1.38774e-05	12	-4.61581e-06
2	0	0	1	0	0.1391	0.026993	0.0271837	-0.147434	1	-1.41728e-05	12	-4.0078e-06
2	0	0	1	0	0.1411	0.0229917	0.0231979	-0.14693	1	-1.44671e-05	12	-3.40847e-06
2	0	0	1	0	0.1431	0.0189904	0.0192024	-0.146497	1	-1.47605e-05	12	-2.8131e-06
2	0	0	1	0	0.1451	0.0149891	0.0151943	-0.145994	1	-1.5053e-05	12	-2.21827e-06
2	0	0	1	0	0.1471	0.0109878	0.0111925	-0.1456	1	-1.53445e-05	12	-1.62962e-06
2	0	0	1	0	0.1491	0.00698655	0.00719496	-0.145218	1	-1.56353e-05	12	-1.04484e-06
2	0	0	1	0	0.1511	0.00298525	0.00319212	-0.144796	1	-1.59252e-05	12	-4.62205e-07
2	0	0	1	0	0.1531	-0.00101604	-0.000827705	-0.144433	1	-1.62144e-05	12	1.19548e-07
2	0	0	1	0	0.1551	-0.00501734	-0.00485177	-0.144309	1	-1.65031e-05	12	7.00155e-07
2	0	0	1	0	0.1571	-0.00901864	-0.00887796	-0.14385	1	-1.67912e-05	12	1.27709e-06
2	0	0	1	0	0.1591	-0.0130199	-0.0128787	-0.143554	1	-1.70786e-05	12	1.84879e-06
2	0	0	1	0	0.1611	-0.0170212	-0.0168868	-0.143348	1	-1.73654e-05	12	2.42069e-06
2	0	0	1	0	0.1631	-0.0210225	-0.0209056	-0.143068	1	-1.76518e-05	12	2.99091e-06
2	0	0	1	0	0.1651	-0.0250238	-0.024866	-0.142781	1	-1.79376e-05	12	3.55039e-06
2	0	0	1	0	0.1671	-0.0290251	-0.0289007	-0.142619	1	-1.8223e-05	12	4.1218e-06
2	0	0	1	0	0.1691	-0.0330264	-0.0328558	-0.142452	1	-1.85081e-05	12	4.68039e-06
2	0	0	1	0	0.1711	-0.0370277	-0.0369011	-0.142229	1	-1.87928e-05	12	5.24841e-06
2	0	0	1	0	0.1731	-0.041029	-0.0408954	-0.142104	1	-1.90771e-05	12	5.81141e-06
2	0	0	1	0	0.1751	-0.0450303	-0.0449365	-0.141991	1	-1.93612e-05	12	6.38058e-06
2	0	0	1	0	0.1771	-0.0490316	-0.0488789	-0.141848	1	-1.9645e-05	12	6.93335e-06
2	0	0	1	0	0.1791	-0.0530329	-0.0528764	-0.141772	1	-1.99287e-05	12	7.4964e-06
2	0	0	1	0	0.1811	-0.0570342	-0.0568739	-0.141733	1	-2.02121e-05	12	8.06089e-06
2	0	0	1	0	0.1831	-0.0610355	-0.0609235	-0.141583	1	-2.04954e-05	12	8.62573e-06
2	0	0	1	0	0.1851	-0.0650368	-0.064938	-0.141546	1	-2.07785e-05	12	9.19173e-06
2	0	0	1	0	0.1871	-0.0690381	-0.0688889	-0.141523	1	-2.10616e-05	12	9.74938e-06
2	0	0	1	0	0.1891	-0.0730394	-0.0728885	-0.141471	1	-2.13446e-05	12	1.03116e-05
2	0	0	1	0	0.1911	-0.0770407	-0.0768914	-0.141426	1	-2.16274e-05	12	1.08745e-05
2	0	0	1	0	0.1931	-0.081042	-0.080873	-0.141475	1	-2.19103e-05	12	1.14415e-05
2	0	0	1	0	0.1951	-0.0850433	-0.0849204	-0.141463	1	-2.21933e-05	12	1.20131e-05
2	0	0	1	0	0.1971	-0.0890446	-0.0888882	-0.14145	1	-2.24762e-05	12	1.25733e-05
2	0	0	1	0	0.1991	-0.0930459	-0.0929272	-0.141497	1	-2.27591e-05	12	1.31489e-05
2	0	0	1	0	0.2011	-0.0970472	-0.0969385	-0.141536	1	-2.30422e-05	12	1.37203e-05
2	0	0	1	0	0.2031	-0.101048	-0.100888	-0.141519	1	-2.33252e-05	12	1.42777e-05
2	0	0	1	0	0.2051	-0.10505	-0.104896	-0.141629	1	-2.36084e-05	12	1.48563e-05
2	0	0	1	0	0.2071	-0.109051	-0.108925	-0.141668	1	-2.38917e-05	12	1.54312e-05
2	0	0	1	0	0.2091	-0.113052	-0.11292	-0.14171	1	-2.4175e-05	12	1.60019e-05
2	0	0	1	0	0.2111	-0.117054	-0.116909	-0.141837	1	-2.44586e-05	12	1.65821e-05
2	0	0	1	0	0.2131	-0.121055	-0.120935	-0.141922	1	-2.47424e-05	12	1.71634e-05
2	0	0	1	0	0.2151	-0.125056	-0.124933	-0.142017	1	-2.50263e-05	12	1.77426e-05
2	0	0	1	0	0.2171	-0.129058	-0.128898	-0.142086	1	-2.53104e-05	12	1.83145e-05
2	0	0	1	0	0.2191	-0.133059	-0.132942	-0.142235	1	-2.55948e-05	12	1.8909e-05
2	0	0	1	0	0.2211	-0.13706	-0.136952	-0.142322	1	-2.58793e-05	12	1.94913e-05
2	0	0	1	0	0.2231	-0.141061	-0.140889	-0.142435	1	-2.61641e-05	12	2.00675e-05
2	0	0	1	0	0.2251	-0.145063	-0.144952	-0.142639	1	-2.64492e-05	12	2.06759e-05
2	0	0	1	0	0.2271	-0.149064	-0.14896	-0.142754	1	-2.67346e-05	12	2.12646e-05
2	0	0	1	0	0.2291	-0.153065	-0.152903	-0.142827	1	-2.70201e-05	12	2.18387e-05
2	0	0	1	0	0.2311	-0.157039	-0.156866	-0.142843	1	-2.73058e-05	12	2.24072e-05
2	0	0	1	0	0.2331	-0.160968	-0.160845	-0.143073	1	-2.75917e-05	12	2.30125e-05
2	0	0	1	0	0.2351	-0.164969	-0.164821	-0.143204	1	-2.78781e-05	12	2.36031e-05
2	0	0	1	0	0.2371	-0.16897	-0.168858	-0.143449	1	-2.81647e-05	12	2.42225e-05
2	0	0	1	0	0.2391	-0.172972	-0.172859	-0.143609	1	-2.84518e-05	12	2.48242e-05
2	0	0	1	0	0.2411	-0.176973	-0.176826	-0.143803	1	-2.87393e-05	12	2.5428e-05
2	0	0	1	0	0.2431	-0.180974	-0.180832	-0.144	1	-2.90271e-05	12	2.60398e-05
2	0	0	1	0	0.2451	-0.184976	-0.184875	-0.14424	1	-2.93153e-05	12	2.66663e-05
2	0	0	1	0	0.2471	-0.188977	-0.188855	-0.144398	1	-2.9604e-05	12	2.72704e-05
2	0	0	1	0	0.2491	-0.192978	-0.192824	-0.144617	1	-2.9893e-05	12	2.78857e-05
2	0	0	1	0	0.2511	-0.19698	-0.196865	-0.144845	1	-3.01825e-05	12	2.8515e-05
2	0	0	0	0	0.2522	-0.19918	-0.198968	-0.144839	1	-3.03418e-05	12	2.88184e-05
2	0	0	1	0	0.2524	-0.19958	-0.199426	-0.144998	1	-3.03708e-05	12	2.89165e-05
2	0	0	0	0	0.2526	-0.199981	-0.199827	-0.144998	1	-3.03998e-05	12	2.89746e-05
2	0	0	1	0	0.2528	-0.19958	-0.199789	-0.139096	1	-3.04276e-05	12	2.77898e-05
2	0	0	1	0	0.2539	-0.19738	-0.197364	-0.124954	1	-3.05659e-05	12	2.46613e-05
2	0	0	1	0	0.2559	-0.193378	-0.193316	-0.115902	1	-3.08056e-05	12	2.24056e-05
2	0	0	1	0	0.2579	-0.189377	-0.189331	-0.109748	1	-3.10305e-05	12	2.07787e-05
2	0	0	1	0	0.2599	-0.185376	-0.185329	-0.104696	1	-3.12444e-05	12	1.94031e-05
2	0	0	1	0	0.2619	-0.181375	-0.181301	-0.100332	1	-3.1449e-05	12	1.81902e-05
2	0	0	1	0	0.2639	-0.177373	-0.177271	-0.0965386	1	-3.16455e-05	12	1.71135e-05
2	0	0	1	0	0.2659	-0.173372	-0.173315	-0.0930246	1	-3.18346e-05	12	1.61226e-05
2	0	0	1	0	0.2679	-0.169371	-0.169314	-0.0897454	1	-3.20171e-05	12	1.51952e-05
2	0	0	1	0	0.2699	-0.165369	-0.165264	-0.0867849	1	-3.21933e-05	12	1.43424e-05
2	0	0	1	0	0.2719	-0.161368	-0.16128	-0.084039	1	-3.23639e-05	12	1.35538e-05
2	0	0	1	0	0.2739	-0.157428	-0.157374	-0.0816514	1	-3.25293e-05	12	1.28498e-05
2	0	0	1	0	0.2759	-0.153465	-0.15337	-0.0790334	1	-3.26897e-05	12	1.21213e-05
2	0	0	1	0	0.2779	-0.149464	-0.149406	-0.0767167	1	-3.28453e-05	12	1.1462e-05
2	0	0	1	0	0.2799	-0.145463	-0.145364	-0.0743941	1	-3.29961e-05	12	1.08142e-05
2	0	0	1	0	0.2819	-0.141462	-0.14137	-0.0722681	1	-3.31425e-05	12	1.02165e-05
2	0	0	1	0	0.2839	-0.13746	-0.137372	-0.07022	1	-3.32848e-05	12	9.64628e-06
2	0	0	1	0	0.2859	-0.133459	-0.133387	-0.0681943	1	-3.3423e-05	12	9.09626e-06
2	0	0	1	0	0.2879	-0.129458	-0.129372	-0.0663107	1	-3.35573e-05	12	8.57874e-06
2	0	0	1	0	0.2899	-0.125456	-0.125334	-0.0644801	1	-3.36879e-05	12	8.08155e-06
2	0	0	1	0	0.2919	-0.121455	-0.121375	-0.0627336	1	-3.38149e-05	12	7.61427e-06
2	0	0	1	0	0.2939	-0.117454	-0.117361	-0.0609934	1	-3.39385e-05	12	7.15825e-06
2	0	0	1	0	0.2959	-0.113452	-0.11335	-0.0593845	1	-3.40587e-05	12	6.73122e-06
2	0	0	1	0	0.2979	-0.109451	-0.109396	-0.057754	1	-3.41756e-05	12	6.31805e-06
2	0	0	1	0	0.2999	-0.10545	-0.105394	-0.0561903	1	-3.42894e-05	12	5.92212e-06
2	0	0	1	0	0.3019	-0.101449	-0.101386	-0.0546989	1	-3.44001e-05	12	5.5457e-06
2	0	0	1	0	0.3039	-0.0974473	-0.0973607	-0.0531853	1	-3.45079e-05	12	5.17816e-06
2	0	0	1	0	0.3059	-0.093446	-0.0933526	-0.0517155	1	-3.46126e-05	12	4.82778e-06
2	0	0	1	0	0.3079	-0.0894447	-0.0893285	-0.0503078	1	-3.47145e-05	12	4.49392e-06
2	0	0	1	0	0.3099	-0.0854434	-0.085366	-0.0490088	1	-3.48137e-05	12	4.18369e-06
2	0	0	1	0	0.3119	-0.0814421	-0.0813515	-0.0476071	1	-3.49102e-05	12	3.87291e-06
2	0	0	1	0	0.3139	-0.0774408	-0.0773019	-0.0463173	1	-3.50039e-05	12	3.58042e-06
2	0	0	1	0	0.3159	-0.0734395	-0.0733511	-0.0450847	1	-3.50952e-05	12	3.30701e-06
2	0	0	1	0	0.3179	-0.0694382	-0.0693472	-0.0437928	1	-3.51839e-05	12	3.0369e-06
2	0	0	1	0	0.3199	-0.0654369	-0.0653284	-0.0425644	1	-3.52702e-05	12	2.78066e-06
2	0	0	1	0	0.3219	-0.0614356	-0.0613786	-0.0413476	1	-3.53539e-05	12	2.53786e-06
2	0	0	1	0	0.3239	-0.0574343	-0.0573758	-0.0402057	1	-3.54354e-05	12	2.30683e-06
2	0	0	1	0	0.3259	-0.053433	-0.0533252	-0.0389908	1	-3.55144e-05	12	2.07919e-06
2	0	0	1	0	0.3279	-0.0494317	-0.0493669	-0.0379022	1	-3.55912e-05	12	1.87111e-06
2	0	0	1	0	0.3299	-0.0454304	-0.0453524	-0.0367631	1	-3.56658e-05	12	1.66729e-06
2	0	0	1	0	0.3319	-0.0414291	-0.0413538	-0.0356385	1	-3.57381e-05	12	1.47378e-06
2	0	0	1	0	0.3339	-0.0374278	-0.0373361	-0.0345933	1	-3.58082e-05	12	1.29158e-06
2	0	0	1	0	0.3359	-0.0334266	-0.0333184	-0.0335018	1	-3.58762e-05	12	1.11623e-06
2	0	0	1	0	0.3379	-0.0294253	-0.0293749	-0.0324436	1	-3.5942e-05	12	9.53028e-07
2	0	0	1	0	0.3399	-0.025424	-0.0253264	-0.0313772	1	-3.60057e-05	12	7.94674e-07
2	0	0	1	0	0.3419	-0.0214227	-0.0213883	-0.0304397	1	-3.60675e-05	12	6.51054e-07
2	0	0	1	0	0.3439	-0.0174214	-0.0173377	-0.0294019	1	-3.61272e-05	12	5.09763e-07
2	0	0	1	0	0.3459	-0.0134201	-0.0132861	-0.0284083	1	-3.61849e-05	12	3.77434e-07
2	0	0	1	0	0.3479	-0.00941877	-0.00933203	-0.0274266	1	-3.62406e-05	12	2.55946e-07
2	0	0	1	0	0.3499	-0.00541747	-0.00531539	-0.0263398	1	-3.62943e-05	12	1.40006e-07
2	0	0	1	0	0.3519	-0.00141617	-0.00126693	-0.025368	1	-3.63458e-05	12	3.21394e-08
2	0	0	1	0	0.3539	0.00258512	0.00274547	-0.0244495	1	-3.63955e-05	12	-6.71255e-08
2	0	0	1	0	0.3559	0.00658642	0.00673558	-0.0234817	1	-3.64434e-05	12	-1.58163e-07
2	0	0	1	0	0.3579	0.0105877	0.0107427	-0.0225501	1	-3.64893e-05	12	-2.42249e-07
2	0	0	1	0	0.3599	0.014589	0.0147508	-0.0216754	1	-3.65334e-05	12	-3.19731e-07
2	0	0	1	0	0.3619	0.0185903	0.0187123	-0.0207065	1	-3.65757e-05	12	-3.87466e-07
2	0	0	1	0	0.3639	0.0225916	0.0227438	-0.0197693	1	-3.66161e-05	12	-4.49629e-07
2	0	0	1	0	0.3659	0.0265929	0.0267647	-0.0188597	1	-3.66546e-05	12	-5.04773e-07
2	0	0	1	0	0.3679	0.0305942	0.0307611	-0.0179116	1	-3.66913e-05	12	-5.5098e-07
2	0	0	1	0	0.3699	0.0345955	0.0347438	-0.016979	1	-3.67261e-05	12	-5.89915e-07
2	0	0	1	0	0.3719	0.0385968	0.0387753	-0.0160414	1	-3.6759e-05	12	-6.22012e-07
2	0	0	1	0	0.3739	0.0425981	0.0427612	-0.0151265	1	-3.67901e-05	12	-6.46828e-07
2	0	0	1	0	0.3759	0.0465994	0.046764	-0.0141692	1	-3.68193e-05	12	-6.6261e-07
2	0	0	1	0	0.3779	0.0506007	0.0507393	-0.0132451	1	-3.68466e-05	12	-6.72047e-07
2	0	0	1	0	0.3799	0.054602	0.0547602	-0.0123093	1	-3.68721e-05	12	-6.74062e-07
2	0	0	1	0	0.3819	0.0586033	0.0587896	-0.0113485	1	-3.68957e-05	12	-6.67174e-07
2	0	0	1	0	0.3839	0.0626045	0.0628019	-0.0103185	1	-3.69172e-05	12	-6.48022e-07
2	0	0	1	0	0.3859	0.0666058	0.0667655	-0.0093845	1	-3.69368e-05	12	-6.26561e-07
2	0	0	1	0	0.3879	0.0706071	0.0707684	-0.00834002	1	-3.69545e-05	12	-5.9021e-07
2	0	0	1	0	0.3899	0.0746084	0.07475	-0.0072786	1	-3.697e-05	12	-5.44075e-07
2	0	0	1	0	0.3919	0.0786097	0.0787635	-0.006286	1	-3.69834e-05	12	-4.95107e-07
2	0	0	1	0	0.3939	0.082611	0.0827706	-0.00519881	1	-3.69948e-05	12	-4.30308e-07
2	0	0	1	0	0.3959	0.0866123	0.0867904	-0.00407067	1	-3.7004e-05	12	-3.53295e-07
2	0	0	1	0	0.3979	0.0906136	0.0907826	-0.0029503	1	-3.70109e-05	12	-2.67836e-07
2	0	0	1	0	0.3999	0.0946149	0.0948014	-0.00175474	1	-3.70155e-05	12	-1.66351e-07
2	0	0	1	0	0.4019	0.0986162	0.0987745	-0.000523171	1	-3.70176e-05	12	-5.1676e-08
2	1	0	1	0	0.4039	0.102618	0.10281	0.000725336	1	-3.70173e-05	12	7.4572e-08
2	1	0	1	0	0.4059	0.106619	0.106748	0.00206491	1	-3.70144e-05	12	2.20426e-07
2	1	0	1	0	0.4079	0.11062	0.110799	0.00345461	1	-3.70087e-05	12	3.82768e-07
2	1	0	1	0	0.4099	0.114621	0.114786	0.0049255	1	-3.70002e-05	12	5.65378e-07
2	1	0	1	0	0.4119	0.118623	0.118753	0.00638757	1	-3.69887e-05	12	7.58541e-07
2	1	0	1	0	0.4139	0.122624	0.122768	0.00803848	1	-3.69741e-05	12	9.8687e-07
2	1	0	1	0	0.4159	0.126625	0.126799	0.00976457	1	-3.69561e-05	12	1.23813e-06
2	1	0	1	0	0.4179	0.130627	0.130746	0.0115161	1	-3.69346e-05	12	1.50569e-06
2	1	0	1	0	0.4199	0.134628	0.134799	0.0134113	1	-3.69095e-05	12	1.80783e-06
2	1	0	1	0	0.4219	0.138629	0.138801	0.0154681	1	-3.68804e-05	12	2.14699e-06
2	1	0	1	0	0.4239	0.14263	0.142784	0.0175698	1	-3.68472e-05	12	2.50867e-06
2	1	0	1	0	0.4259	0.146632	0.146789	0.0198349	1	-3.68095e-05	12	2.91153e-06
2	1	0	1	0	0.4279	0.150583	0.150748	0.0219923	1	-3.67675e-05	12	3.31529e-06
2	1	0	1	0	0.4299	0.154534	0.154707	0.0245882	1	-3.67206e-05	12	3.80397e-06
2	1	0	1	0	0.4319	0.158536	0.158732	0.0273217	1	-3.66684e-05	12	4.33683e-06
2	1	0	1	0	0.4339	0.162537	0.162717	0.0302006	1	-3.66107e-05	12	4.91416e-06
2	1	0	1	0	0.4359	0.166538	0.166691	0.0332331	1	-3.65469e-05	12	5.53967e-06
2	1	0	1	0	0.4379	0.17054	0.170663	0.0364058	1	-3.6477e-05	12	6.21313e-06
2	1	0	1	0	0.4399	0.174541	0.174663	0.0398075	1	-3.64004e-05	12	6.95289e-06
2	1	0	1	0	0.4419	0.178542	0.178708	0.0433091	1	-3.6317e-05	12	7.73969e-06
2	1	0	1	0	0.4439	0.182543	0.182656	0.0469286	1	-3.62263e-05	12	8.57179e-06
2	1	0	1	0	0.4459	0.186545	0.186689	0.0507846	1	-3.61283e-05	12	9.4809e-06
2	1	0	1	0	0.4479	0.190546	0.190705	0.0547797	1	-3.60223e-05	12	1.04468e-05
2	1	0	1	0	0.4499	0.194547	0.194696	0.0588909	1	-3.59082e-05	12	1.14658e-05
2	1	0	1	0	0.4519	0.198549	0.198677	0.0631147	1	-3.57858e-05	12	1.25394e-05
2	1	0	1	0	0.4539	0.20255	0.202675	0.0674875	1	-3.56548e-05	12	1.3678e-05
2	1	0	1	0	0.4559	0.206551	0.206679	0.0718405	1	-3.5515e-05	12	1.4848e-05
2	1	0	1	0	0.4579	0.210552	0.210701	0.0763135	1	-3.53664e-05	12	1.60794e-05
2	1	0	1	0	0.4599	0.214554	0.214722	0.0808585	1	-3.52088e-05	12	1.73621e-05
2	1	0	1	0	0.4619	0.218555	0.218729	0.0852889	1	-3.50422e-05	12	1.86552e-05
2	1	0	1	0	0.4639	0.222556	0.222665	0.0897276	1	-3.48668e-05	12	1.99792e-05
2	1	0	1	0	0.4659	0.226558	0.226712	0.0941548	1	-3.46824e-05	12	2.1346e-05
2	1	0	1	0	0.4679	0.230559	0.2307	0.0984806	1	-3.44893e-05	12	2.27195e-05
2	1	0	1	0	0.4699	0.23456	0.234688	0.102632	1	-3.42878e-05	12	2.40864e-05
2	1	0	1	0	0.4719	0.238562	0.238738	0.106657	1	-3.40781e-05	12	2.54631e-05
2	1	0	1	0	0.4739	0.242563	0.242719	0.110508	1	-3.38605e-05	12	2.68223e-05
2	1	0	1	0	0.4759	0.246564	0.24671	0.114012	1	-3.36356e-05	12	2.8128e-05
2	1	0	1	0	0.4779	0.250565	0.25072	0.117373	1	-3.34039e-05	12	2.94278e-05
2	1	0	1	0	0.4799	0.254567	0.254706	0.120474	1	-3.31657e-05	12	3.06855e-05
2	1	0	1	0	0.4819	0.258568	0.25869	0.123259	1	-3.29217e-05	12	3.1886e-05
2	1	0	1	0	0.4839	0.262569	0.262738	0.125789	1	-3.26724e-05	12	3.30495e-05
2	1	0	1	0	0.4859	0.266571	0.266773	0.127998	1	-3.24183e-05	12	3.41463e-05
2	1	0	1	0	0.4879	0.270572	0.270763	0.129833	1	-3.21603e-05	12	3.51539e-05
2	1	0	1	0	0.4899	0.274573	0.274691	0.131425	1	-3.18989e-05	12	3.61011e-05
2	1	0	1	0	0.4919	0.278574	0.278723	0.13268	1	-3.16346e-05	12	3.6981e-05
2	1	0	1	0	0.4939	0.282576	0.282737	0.133641	1	-3.13682e-05	12	3.77853e-05
2	1	0	1	0	0.4959	0.286577	0.286761	0.134279	1	-3.11002e-05	12	3.8506e-05
2	1	0	1	0	0.4979	0.290578	0.290748	0.134716	1	-3.08312e-05	12	3.91683e-05
2	1	0	1	0	0.4999	0.29458	0.294754	0.134918	1	-3.05615e-05	12	3.97675e-05
2	1	0	1	0	0.5019	0.298581	0.298774	0.134816	1	-3.02918e-05	12	4.02794e-05
2	1	0	1	0	0.5039	0.302582	0.302762	0.134554	1	-3.00225e-05	12	4.07376e-05
2	1	0	1	0	0.5059	0.306584	0.30675	0.134173	1	-2.97538e-05	12	4.11574e-05
2	1	0	1	0	0.5079	0.310585	0.310741	0.13347	1	-2.94862e-05	12	4.14746e-05
2	1	0	1	0	0.5099	0.314586	0.314759	0.13282	1	-2.92199e-05	12	4.18063e-05
2	1	0	1	0	0.5119	0.318587	0.318734	0.132001	1	-2.89552e-05	12	4.20732e-05
2	1	0	1	0	0.5139	0.322589	0.322749	0.131017	1	-2.86922e-05	12	4.22856e-05
2	1	0	1	0	0.5159	0.32659	0.326747	0.130065	1	-2.84313e-05	12	4.24983e-05
2	1	0	1	0	0.5179	0.330591	0.330739	0.129031	1	-2.81723e-05	12	4.26755e-05
2	1	0	1	0	0.5199	0.334593	0.33473	0.127914	1	-2.79154e-05	12	4.28165e-05
2	1	0	1	0	0.5219	0.338594	0.338763	0.126815	1	-2.76608e-05	12	4.29603e-05
2	1	0	1	0	0.5239	0.342595	0.342772	0.125752	1	-2.74083e-05	12	4.31041e-05
2	1	0	1	0	0.5259	0.346596	0.346791	0.124582	1	-2.71581e-05	12	4.32039e-05
2	1	0	1	0	0.5279	0.350598	0.350786	0.123471	1	-2.69102e-05	12	4.33119e-05
2	1	0	1	0	0.5299	0.354599	0.354765	0.122405	1	-2.66644e-05	12	4.34249e-05
2	1	0	1	0	0.5319	0.3586	0.358784	0.121261	1	-2.64208e-05	12	4.35066e-05
2	1	0	1	0	0.5339	0.362602	0.362765	0.120203	1	-2.61795e-05	12	4.36054e-05
2	1	0	1	0	0.5359	0.366603	0.366759	0.119217	1	-2.59401e-05	12	4.37241e-05
2	1	0	1	0	0.5379	0.370604	0.370793	0.118198	1	-2.57028e-05	12	4.3827e-05
2	1	0	1	0	0.5399	0.374606	0.374798	0.117203	1	-2.54675e-05	12	4.39274e-05
2	1	0	1	0	0.5419	0.378607	0.378773	0.116277	1	-2.52341e-05	12	4.40428e-05
2	1	0	1	0	0.5439	0.382608	0.382833	0.115339	1	-2.50026e-05	12	4.41557e-05
2	1	0	1	0	0.5459	0.386609	0.386768	0.114432	1	-2.47729e-05	12	4.42588e-05
2	1	0	1	0	0.5479	0.390611	0.390783	0.113619	1	-2.4545e-05	12	4.44005e-05
2	1	0	1	0	0.5499	0.394612	0.394811	0.112834	1	-2.43186e-05	12	4.45483e-05
2	1	0	1	0	0.5519	0.398613	0.398828	0.112031	1	-2.40938e-05	12	4.46812e-05
2	1	0	1	0	0.5539	0.402615	0.402809	0.111353	1	-2.38705e-05	12	4.48539e-05
2	1	0	1	0	0.5559	0.406616	0.406793	0.110643	1	-2.36486e-05	12	4.50088e-05
2	1	0	1	0	0.5579	0.410617	0.410809	0.10993	1	-2.34281e-05	12	4.51604e-05
2	1	0	1	0	0.5599	0.414619	0.414781	0.109276	1	-2.32089e-05	12	4.53256e-05
2	1	0	1	0	0.5619	0.41862	0.418808	0.108697	1	-2.2991e-05	12	4.55233e-05
2	1	0	1	0	0.5639	0.422621	0.422817	0.108085	1	-2.27743e-05	12	4.57002e-05
2	1	0	1	0	0.5659	0.426622	0.426814	0.107495	1	-2.25588e-05	12	4.58802e-05
2	1	0	1	0	0.5679	0.430624	0.430816	0.107007	1	-2.23443e-05	12	4.61004e-05
2	1	0	1	0	0.5699	0.434625	0.434801	0.106499	1	-2.21309e-05	12	4.63058e-05
2	1	0	1	0	0.5719	0.438626	0.438817	0.105978	1	-2.19184e-05	12	4.6505e-05
2	1	0	1	0	0.5739	0.442628	0.442804	0.105548	1	-2.17069e-05	12	4.67369e-05
2	1	0	1	0	0.5759	0.446629	0.446824	0.105126	1	-2.14963e-05	12	4.69727e-05
2	1	0	1	0	0.5779	0.45063	0.450805	0.104672	1	-2.12865e-05	12	4.71867e-05
2	1	0	1	0	0.5799	0.454631	0.454781	0.104271	1	-2.10776e-05	12	4.74204e-05
2	1	0	1	0	0.5819	0.458605	0.458819	0.10374	1	-2.08696e-05	12	4.75979e-05
2	1	0	1	0	0.5839	0.462534	0.462746	0.103436	1	-2.06625e-05	12	4.78647e-05
2	1	0	1	0	0.5859	0.466535	0.466734	0.103193	1	-2.04559e-05	12	4.81635e-05
2	1	0	1	0	0.5879	0.470537	0.470732	0.102893	1	-2.02498e-05	12	4.84348e-05
2	1	0	1	0	0.5899	0.474538	0.474727	0.102591	1	-2.00444e-05	12	4.87026e-05
2	1	0	1	0	0.5919	0.478539	0.47872	0.102297	1	-1.98395e-05	12	4.89715e-05
2	1	0	1	0	0.5939	0.482541	0.482702	0.102064	1	-1.96352e-05	12	4.92667e-05
2	1	0	1	0	0.5959	0.486542	0.486731	0.101855	1	-1.94313e-05	12	4.95763e-05
2	1	0	1	0	0.5979	0.490543	0.490729	0.101552	1	-1.92279e-05	12	4.98345e-05
2	1	0	1	0	0.5999	0.494544	0.494738	0.101383	1	-1.9025e-05	12	5.01581e-05
2	1	0	1	0	0.6017	0.498146	0.498285	0.101243	1	-1.88426e-05	12	5.04478e-05
2	1	0	0	0	0.6026	0.499946	0.500252	0.101133	1	-1.87515e-05	12	5.05918e-05
2	1	0	1	0	0.6028	0.500346	0.500767	0.0981845	1	-1.87319e-05	12	4.91676e-05
2	1	0	0	1	0.6032	0.499946	0.50029	0.0952268	1	-1.86938e-05	12	4.7641e-05
2	1	0	1	1	0.6043	0.497345	0.497626	0.0825758	1	-1.86028e-05	12	4.10919e-05
2	1	0	1	1	0.6063	0.493344	0.493591	0.0762768	1	-1.84446e-05	12	3.76496e-05
2	1	0	1	1	0.6083	0.489343	0.48962	0.0714208	1	-1.82974e-05	12	3.49691e-05
2	1	0	1	1	0.6103	0.485341	0.485631	0.0673819	1	-1.8159e-05	12	3.27228e-05
2	1	0	1	1	0.6123	0.48134	0.481619	0.0638475	1	-1.80281e-05	12	3.07501e-05
2	1	0	1	1	0.6143	0.477339	0.477585	0.0607455	1	-1.79039e-05	12	2.90111e-05
2	1	0	1	1	0.6163	0.473338	0.47359	0.0578884	1	-1.77855e-05	12	2.74153e-05
2	1	0	1	1	0.6183	0.469336	0.469628	0.0552103	1	-1.76727e-05	12	2.59283e-05
2	1	0	1	1	0.6203	0.465335	0.465572	0.052762	1	-1.7565e-05	12	2.45645e-05
2	1	0	1	1	0.6223	0.461334	0.46156	0.0504517	1	-1.7462e-05	12	2.32865e-05
2	1	0	1	1	0.6243	0.457432	0.457673	0.0484941	1	-1.73632e-05	12	2.21944e-05
2	1	0	1	1	0.6263	0.453431	0.453639	0.0462343	1	-1.72687e-05	12	2.09737e-05
2	1	0	1	1	0.6283	0.44943	0.449665	0.0442431	1	-1.71784e-05	12	1.98946e-05
2	1	0	1	1	0.6303	0.445428	0.445664	0.0423204	1	-1.70921e-05	12	1.88607e-05
2	1	0	1	1	0.6323	0.441427	0.441634	0.0404947	1	-1.70095e-05	12	1.78838e-05
2	1	0	1	1	0.6343	0.437426	0.437698	0.0387662	1	-1.69304e-05	12	1.69679e-05
2	1	0	1	1	0.6363	0.433425	0.433658	0.0370365	1	-1.68547e-05	12	1.60612e-05
2	1	0	1	1	0.6383	0.429423	0.429679	0.0354004	1	-1.67825e-05	12	1.52108e-05
2	1	0	1	1	0.6403	0.425422	0.425632	0.0338636	1	-1.67134e-05	12	1.44134e-05
2	1	0	1	1	0.6423	0.421421	0.42163	0.0323118	1	-1.66473e-05	12	1.36236e-05
2	1	0	1	1	0.6443	0.417419	0.417627	0.0307898	1	-1.65844e-05	12	1.28586e-05
2	1	0	1	1	0.6463	0.413418	0.413656	0.0293217	1	-1.65244e-05	12	1.21291e-05
2	1	0	1	1	0.6483	0.409417	0.409649	0.0279313	1	-1.64673e-05	12	1.1442e-05
2	1	0	1	1	0.6503	0.405416	0.405657	0.0265324	1	-1.64129e-05	12	1.07631e-05
2	1	0	1	1	0.6523	0.401414	0.401648	0.0251614	1	-1.63614e-05	12	1.0106e-05
2	1	0	1	1	0.6543	0.397413	0.397671	0.0238497	1	-1.63125e-05	12	9.48435e-06
2	1	0	1	1	0.6563	0.393412	0.39362	0.0225338	1	-1.62662e-05	12	8.86975e-06
2	1	0	1	1	0.6583	0.38941	0.38963	0.0212182	1	-1.62226e-05	12	8.26725e-06
2	1	0	1	1	0.6603	0.385409	0.385644	0.0199394	1	-1.61816e-05	12	7.68949e-06
2	1	0	1	1	0.6623	0.381408	0.381649	0.0186538	1	-1.61431e-05	12	7.11921e-06
2	1	0	1	1	0.6643	0.377406	0.377623	0.0173597	1	-1.61073e-05	12	6.55544e-06
2	1	0	1	1	0.6663	0.373405	0.37365	0.0161236	1	-1.60739e-05	12	6.02458e-06
2	1	0	1	1	0.6683	0.369404	0.369589	0.0148617	1	-1.6043e-05	12	5.49271e-06
2	1	0	1	1	0.6703	0.365403	0.365624	0.0136114	1	-1.60147e-05	12	4.97666e-06
2	1	0	1	1	0.6723	0.361401	0.361636	0.0124003	1	-1.59888e-05	12	4.4844e-06
2	1	0	1	1	0.6743	0.3574	0.357644	0.0111296	1	-1.59654e-05	12	3.98042e-06
2	1	0	1	1	0.6763	0.353399	0.353653	0.00981575	1	-1.59446e-05	12	3.47137e-06
2	1	0	1	1	0.6783	0.349397	0.349614	0.00857113	1	-1.59263e-05	12	2.99659e-06
2	1	0	1	1	0.6803	0.345396	0.345616	0.00727991	1	-1.59106e-05	12	2.51606e-06
2	1	0	1	1	0.6823	0.341395	0.341618	0.0059841	1	-1.58974e-05	12	2.04428e-06
2	1	0	1	1	0.6843	0.337393	0.337661	0.00461452	1	-1.5887e-05	12	1.55814e-06
2	1	0	1	1	0.6863	0.333392	0.33365	0.00331695	1	-1.58791e-05	12	1.1067e-06
2	1	0	1	1	0.6883	0.329391	0.329608	0.00189654	1	-1.58741e-05	12	6.25115e-07
2	1	0	1	1	0.6903	0.32539	0.325615	0.000451773	1	-1.58718e-05	12	1.47104e-07
2	0	0	1	1	0.6923	0.321388	0.321617	-0.00102582	1	-1.58726e-05	12	-3.29922e-07
2	0	0	1	1	0.6943	0.317387	0.317578	-0.00255107	1	-1.58762e-05	12	-8.10164e-07
2	0	0	1	1	0.6963	0.313386	0.313636	-0.00415997	1	-1.58831e-05	12	-1.30472e-06
2	0	0	1	1	0.6983	0.309384	0.309621	-0.00577417	1	-1.58932e-05	12	-1.78781e-06
2	0	0	1	1	0.7003	0.305383	0.305574	-0.00746991	1	-1.59066e-05	12	-2.28261e-06
2	0	0	1	1	0.7023	0.301382	0.301582	-0.00927367	1	-1.59236e-05	12	-2.79677e-06
2	0	0	1	1	0.7043	0.297381	0.297653	-0.011165	1	-1.59442e-05	12	-3.32329e-06
2	0	0	1	1	0.7063	0.293379	0.293619	-0.0131314	1	-1.59686e-05	12	-3.85563e-06
2	0	0	1	1	0.7083	0.289378	0.289643	-0.0152592	1	-1.59973e-05	12	-4.41973e-06
2	0	0	1	1	0.7103	0.285377	0.285615	-0.0174672	1	-1.60302e-05	12	-4.98888e-06
2	0	0	1	1	0.7123	0.281375	0.281625	-0.0198198	1	-1.60677e-05	12	-5.58175e-06
2	0	0	1	1	0.7143	0.277374	0.277623	-0.0223563	1	-1.61101e-05	12	-6.20664e-06
2	0	0	1	1	0.7163	0.273373	0.273633	-0.0250002	1	-1.61577e-05	12	-6.84088e-06
2	0	0	1	1	0.7183	0.269371	0.269599	-0.0276974	1	-1.62107e-05	12	-7.46719e-06
2	0	0	1	1	0.7203	0.26537	0.265583	-0.0307383	1	-1.62694e-05	12	-8.16357e-06
2	0	0	1	1	0.7223	0.261369	0.261576	-0.0338961	1	-1.63344e-05	12	-8.8664e-06
2	0	0	1	1	0.7243	0.257368	0.257611	-0.0371807	1	-1.64058e-05	12	-9.57815e-06
2	0	0	1	1	0.7263	0.253366	0.253638	-0.0406943	1	-1.6484e-05	12	-1.03216e-05
2	0	0	1	1	0.7283	0.249365	0.249598	-0.044438	1	-1.65695e-05	12	-1.10916e-05
2	0	0	1	1	0.7303	0.245364	0.245564	-0.048294	1	-1.66626e-05	12	-1.18593e-05
2	0	0	1	1	0.7323	0.241362	0.241609	-0.0523548	1	-1.67636e-05	12	-1.26494e-05
2	0	0	1	1	0.7343	0.237361	0.237626	-0.0566407	1	-1.6873e-05	12	-1.34593e-05
2	0	0	1	1	0.7363	0.23336	0.233608	-0.0610068	1	-1.69911e-05	12	-1.42517e-05
2	0	0	1	1	0.7383	0.229359	0.229579	-0.0655486	1	-1.71181e-05	12	-1.50486e-05
2	0	0	1	1	0.7403	0.225357	0.225579	-0.0702719	1	-1.72544e-05	12	-1.58518e-05
2	0	0	1	1	0.7423	0.221356	0.221579	-0.0750644	1	-1.74002e-05	12	-1.66327e-05
2	0	0	1	1	0.7443	0.217355	0.217624	-0.0799148	1	-1.75556e-05	12	-1.73914e-05
2	0	0	1	1	0.7463	0.213353	0.213583	-0.0849035	1	-1.77209e-05	12	-1.81339e-05
2	0	0	1	1	0.7483	0.209352	0.209577	-0.0899088	1	-1.78962e-05	12	-1.88428e-05
2	0	0	1	1	0.7503	0.205351	0.205579	-0.0947673	1	-1.80814e-05	12	-1.94822e-05
2	0	0	1	1	0.7523	0.201349	0.201574	-0.0997214	1	-1.82764e-05	12	-2.01013e-05
2	0	0	1	1	0.7543	0.197348	0.197552	-0.104583	1	-1.84812e-05	12	-2.06606e-05
2	0	0	1	1	0.7563	0.193347	0.193579	-0.109222	1	-1.86955e-05	12	-2.11431e-05
2	0	0	1	1	0.7583	0.189346	0.1896	-0.11385	1	-1.8919e-05	12	-2.15859e-05
2	0	0	1	1	0.7603	0.185344	0.185589	-0.118291	1	-1.91516e-05	12	-2.19536e-05
2	0	0	1	1	0.7623	0.181343	0.181596	-0.122424	1	-1.93927e-05	12	-2.22317e-05
2	0	0	1	1	0.7643	0.177342	0.177597	-0.126319	1	-1.96419e-05	12	-2.24338e-05
2	0	0	1	1	0.7663	0.17334	0.173587	-0.130042	1	-1.98986e-05	12	-2.25737e-05
2	0	0	1	1	0.7683	0.169339	0.169539	-0.133313	1	-2.01623e-05	12	-2.26018e-05
2	0	0	1	1	0.7703	0.165338	0.165615	-0.136318	1	-2.04322e-05	12	-2.25762e-05
2	0	0	1	1	0.7723	0.161337	0.161597	-0.139081	1	-2.07079e-05	12	-2.24751e-05
2	0	0	1	1	0.7743	0.157335	0.157552	-0.141428	1	-2.09887e-05	12	-2.22823e-05
2	0	0	1	1	0.7763	0.153334	0.153557	-0.143401	1	-2.12737e-05	12	-2.20203e-05
2	0	0	1	1	0.7783	0.149416	0.149663	-0.144797	1	-2.15621e-05	12	-2.16706e-05
2	0	0	1	1	0.7803	0.145431	0.145635	-0.146354	1	-2.18534e-05	12	-2.13143e-05
2	0	0	1	1	0.7823	0.14143	0.141643	-0.147432	1	-2.21473e-05	12	-2.08827e-05
2	0	0	1	1	0.7843	0.137429	0.137685	-0.14828	1	-2.24431e-05	12	-2.04159e-05
2	0	0	1	1	0.7863	0.133427	0.133673	-0.148859	1	-2.27403e-05	12	-1.98985e-05
2	0	0	1	1	0.7883	0.129426	0.129646	-0.149092	1	-2.30383e-05	12	-1.93292e-05
2	0	0	1	1	0.7903	0.125425	0.125624	-0.149254	1	-2.33367e-05	12	-1.87499e-05
2	0	0	1	1	0.7923	0.121424	0.121659	-0.149197	1	-2.36351e-05	12	-1.8151e-05
2	0	0	1	1	0.7943	0.117422	0.117646	-0.148906	1	-2.39332e-05	12	-1.75182e-05
2	0	0	1	1	0.7963	0.113421	0.113667	-0.148542	1	-2.42306e-05	12	-1.68843e-05
2	0	0	1	1	0.7983	0.10942	0.109625	-0.148093	1	-2.45272e-05	12	-1.62346e-05
2	0	0	1	1	0.8003	0.105418	0.105644	-0.147435	1	-2.48226e-05	12	-1.55756e-05
2	0	0	1	1	0.8023	0.101417	0.101618	-0.146763	1	-2.51168e-05	12	-1.49138e-05
2	0	0	1	1	0.8043	0.0974158	0.0976584	-0.146078	1	-2.54095e-05	12	-1.42658e-05
2	0	0	1	1	0.8063	0.0934145	0.0936238	-0.14525	1	-2.57008e-05	12	-1.35989e-05
2	0	0	1	1	0.8083	0.0894132	0.089674	-0.144509	1	-2.59905e-05	12	-1.29587e-05
2	0	0	1	1	0.8103	0.0854119	0.0856085	-0.143735	1	-2.62786e-05	12	-1.23049e-05
2	0	0	1	1	0.8123	0.0814106	0.0816333	-0.142883	1	-2.65651e-05	12	-1.1664e-05
2	0	0	1	1	0.8143	0.0774093	0.0776538	-0.142081	1	-2.685e-05	12	-1.10331e-05
2	0	0	1	1	0.8163	0.0734081	0.0736594	-0.141303	1	-2.71333e-05	12	-1.04083e-05
2	0	0	1	1	0.8183	0.0694068	0.0696173	-0.140531	1	-2.74151e-05	12	-9.78342e-06
2	0	0	1	1	0.8203	0.0654055	0.0656176	-0.139696	1	-2.76952e-05	12	-9.16649e-06
2	0	0	1	1	0.8223	0.0614042	0.0616678	-0.138975	1	-2.79738e-05	12	-8.57032e-06
2	0	0	1	1	0.8243	0.0574029	0.0576279	-0.138282	1	-2.8251e-05	12	-7.96887e-06
2	0	0	1	1	0.8263	0.0534016	0.053608	-0.137534	1	-2.85268e-05	12	-7.37294e-06
2	0	0	1	1	0.8283	0.0494003	0.0496094	-0.13687	1	-2.88011e-05	12	-6.79006e-06
2	0	0	1	1	0.8303	0.045399	0.045649	-0.136252	1	-2.90741e-05	12	-6.21976e-06
2	0	0	1	1	0.8323	0.0413977	0.0415931	-0.135592	1	-2.93459e-05	12	-5.63969e-06
2	0	0	1	1	0.8343	0.0373964	0.0376762	-0.134984	1	-2.96164e-05	12	-5.08568e-06
2	0	0	1	1	0.8363	0.0333951	0.0336023	-0.134501	1	-2.98859e-05	12	-4.51954e-06
2	0	0	1	1	0.8383	0.0293938	0.0296398	-0.13396	1	-3.01543e-05	12	-3.97053e-06
2	0	0	1	1	0.8403	0.0253925	0.0256327	-0.133363	1	-3.04215e-05	12	-3.41844e-06
2	0	0	1	1	0.8423	0.0213912	0.0216033	-0.133001	1	-3.06878e-05	12	-2.87327e-06
2	0	0	1	1	0.8443	0.0173899	0.0175951	-0.132518	1	-3.09533e-05	12	-2.33168e-06
2	0	0	1	1	0.8463	0.0133886	0.0136093	-0.132023	1	-3.12178e-05	12	-1.79673e-06
2	0	0	1	1	0.8483	0.00938732	0.00960219	-0.131745	1	-3.14815e-05	12	-1.26504e-06
2	0	0	1	1	0.8503	0.00538603	0.00560464	-0.131339	1	-3.17446e-05	12	-7.36106e-07
2	0	0	1	1	0.852	0.00198493	0.00215188	-0.130999	1	-3.19676e-05	12	-2.81894e-07
2	0	0	0	1	0.8528	0.00038441	0.00055255	-0.130791	1	-3.20723e-05	12	-7.22687e-08
2	0	0	1	1	0.853	-1.57199e-05	0.00011333	-0.131007	1	-3.20985e-05	12	-1.4847e-08