File: Data/2025-02-10 exp 12 EIS_C05.mpt
EC-Lab ASCII FILE
Nb header lines : 64

Potentio Electrochemical Impedance Spectroscopy

Run on channel : 5 (SN 39658)
User :
CE vs. WE compliance from -10 V to 10 V
Electrode connection : standard
Potential control : Ewe
Ewe ctrl range : min = -10.00 V, max = 10.00 V
Safety Limits :
	Do not start on E overload
Acquisition started on : 02/10/2025 13:10:54.331
Loaded Setting File :  NONE
Saved on :
	File : 2025-02-10 exp 12 EIS_C05.mpr
	Directory : C:\Users\thefo\OneDrive\Documents\EC-Lab\Data\CHEM 451\
	Host : 172.24.113.132
Device : VSP (SN 1910)
Address : USB
EC-Lab for windows v11.46 (software)
Internet server v11.40 (firmware)
Command interpretor v11.40 (firmware)
Electrode material :
Initial state :
Electrolyte :
Comments :
Current amplifier : VSPB-4A
Electrode surface area : 0.001 cm²
Characteristic mass : 0.001 g
Equivalent Weight : 0.000 g/eq.
Density : 0.000 g/cm3
Volume (V) : 0.001 cm³
Cycle Definition : Charge/Discharge alternance
Mode                Single sine
E (V)               0.0000
vs.                 Eoc
tE (h:m:s)          0:00:0.0000
record              0
dI                  0.000
unit dI             mA
dt (s)              0.000
fi                  200.000
unit fi             kHz
ff                  100.000
unit ff             mHz
Nd                  6
Points              per decade
spacing             Logarithmic
Va (mV)             10.0
pw                  0.10
Na                  2
corr                0
E range min (V)     -10.000
E range max (V)     10.000
I Range             Auto
Bandwidth           4
nc cycles           0
goto Ns'            0
nr cycles           0
inc. cycle          0

freq/Hz	Re(Z)/Ohm	-Im(Z)/Ohm	|Z|/Ohm	Phase(Z)/deg	time/s	<Ewe>/V	<I>/mA	Cs/µF	Cp/µF	cycle number	I Range	|Ewe|/V	|I|/A	Ns	(Q-Qo)/mA.h	Re(Y)/Ohm-1	Im(Y)/Ohm-1	|Y|/Ohm-1	Phase(Y)/deg	Re(C)/nF	Im(C)/nF	|C|/nF	Phase(C)/deg	Re(M)	Im(M)	|M|	Phase(M)/deg	Re(Permittivity)	Im(Permittivity)	|Permittivity|	Phase(Permittivity)/deg	Re(Resistivity)/Ohm.cm	Im(Resistivity)/Ohm.cm	|Resistivity|/Ohm.cm	Phase(Resistivity)/deg	Re(Conductivity)/mS/cm	Im(Conductivity)/mS/cm	|Conductivity|/mS/cm	Phase(Conductivity)/deg	Tan(Delta)	Loss Angle(Delta)/deg	dq/mA.h
199998	43.29	8.64532	44.1448	-11.2938	1.54848	0.328105	-0.000460768	0.0920477	0.00353033	1	11	0.00980907	0.000222202	0	2.76769e-06	0.0222141	0.0044363	0.0226527	11.2938	3.53033	17.6775	18.0266	-78.7062	0.0000000E+000	0.0000000E+000	0.0000000E+000	78.7062	0.0000000E+000	0.0000000E+000	0.0000000E+000	-78.7062	0.0000000E+000	0.0000000E+000	0.0000000E+000	-11.2938	0.0000000E+000	0.0000000E+000	0.0000000E+000	11.2938	5.00733	11.2938	2.76769e-06
135123	41.7869	5.2082	42.1102	-7.10454	1.99449	0.328149	-0.000365633	0.226154	0.00345943	1	11	0.0107102	0.000254337	0	6.15217e-07	0.0235649	0.00293706	0.0237472	7.10454	3.45943	27.756	27.9707	-82.8955	0.0000000E+000	0.0000000E+000	0.0000000E+000	82.8955	0.0000000E+000	0.0000000E+000	0.0000000E+000	-82.8955	0.0000000E+000	0.0000000E+000	0.0000000E+000	-7.10454	0.0000000E+000	0.0000000E+000	0.0000000E+000	7.10454	8.02329	7.10454	-2.15248e-06
91291.2	40.8465	3.97403	41.0393	-5.55693	2.44049	0.328171	-0.000294141	0.438692	0.0041136	1	11	0.0107265	0.000261372	0	-1.74854e-07	0.0242523	0.00235956	0.0243669	5.55693	4.1136	42.281	42.4806	-84.4431	0.0000000E+000	0.0000000E+000	0.0000000E+000	84.4431	0.0000000E+000	0.0000000E+000	0.0000000E+000	-84.4431	0.0000000E+000	0.0000000E+000	0.0000000E+000	-5.55693	0.0000000E+000	0.0000000E+000	0.0000000E+000	5.55693	10.2783	5.55693	-7.90071e-07
61674.2	40.3885	3.73001	40.5604	-5.27649	2.88648	0.328163	-0.000486646	0.691841	0.00585091	1	11	0.0106417	0.000262367	0	2.69838e-06	0.0245501	0.00226729	0.0246546	5.27649	5.8509	63.3535	63.6231	-84.7235	0.0000000E+000	0.0000000E+000	0.0000000E+000	84.7235	0.0000000E+000	0.0000000E+000	0.0000000E+000	-84.7235	0.0000000E+000	0.0000000E+000	0.0000000E+000	-5.27649	0.0000000E+000	0.0000000E+000	0.0000000E+000	5.27649	10.828	5.27649	2.87323e-06
41669.8	40.3044	4.09848	40.5123	-5.80634	3.33249	0.328172	-0.000555345	0.931914	0.00953782	1	11	0.0105908	0.000261422	0	3.06906e-06	0.0245572	0.00249718	0.0246839	5.80634	9.53782	93.7948	94.2785	-84.1937	0.0000000E+000	0.0000000E+000	0.0000000E+000	84.1937	0.0000000E+000	0.0000000E+000	0.0000000E+000	-84.1937	0.0000000E+000	0.0000000E+000	0.0000000E+000	-5.80634	0.0000000E+000	0.0000000E+000	0.0000000E+000	5.80634	9.83399	5.80634	3.70676e-07
28151	40.5774	5.20668	40.9101	-7.31194	3.77847	0.328195	-0.000554414	1.08584	0.0175884	1	11	0.0105629	0.000258197	0	4.37191e-06	0.0242451	0.003111	0.0244438	7.31194	17.5884	137.072	138.196	-82.6881	0.0000000E+000	0.0000000E+000	0.0000000E+000	82.6881	0.0000000E+000	0.0000000E+000	0.0000000E+000	-82.6881	0.0000000E+000	0.0000000E+000	0.0000000E+000	-7.31194	0.0000000E+000	0.0000000E+000	0.0000000E+000	7.31194	7.79333	7.31194	1.30285e-06
19020.9	41.1252	6.63201	41.6565	-9.16088	4.2245	0.328203	-0.00019249	1.26166	0.0319793	1	11	0.0105679	0.000253693	0	5.21359e-06	0.0236997	0.00382191	0.0240059	9.16088	31.9793	198.304	200.866	-80.8391	0.0000000E+000	0.0000000E+000	0.0000000E+000	80.8391	0.0000000E+000	0.0000000E+000	0.0000000E+000	-80.8391	0.0000000E+000	0.0000000E+000	0.0000000E+000	-9.16088	0.0000000E+000	0.0000000E+000	0.0000000E+000	9.16088	6.20101	9.16088	8.41685e-07
12850.7	41.7856	8.76007	42.694	-11.8402	4.6705	0.328221	-0.00044904	1.41379	0.0595205	1	11	0.0105064	0.000246086	0	5.7539e-06	0.0229242	0.00480589	0.0234225	11.8402	59.5205	283.913	290.085	-78.1598	0.0000000E+000	0.0000000E+000	0.0000000E+000	78.1598	0.0000000E+000	0.0000000E+000	0.0000000E+000	-78.1598	0.0000000E+000	0.0000000E+000	0.0000000E+000	-11.8402	0.0000000E+000	0.0000000E+000	0.0000000E+000	11.8402	4.77001	11.8402	5.40311e-07
8683.37	42.7057	11.922	44.3386	-15.598	5.144	0.328233	-0.000129005	1.53739	0.111152	1	11	0.0104443	0.000235558	0	5.69672e-06	0.0217231	0.00606437	0.0225537	15.598	111.152	398.157	413.38	-74.402	0.0000000E+000	0.0000000E+000	0.0000000E+000	74.402	0.0000000E+000	0.0000000E+000	0.0000000E+000	-74.402	0.0000000E+000	0.0000000E+000	0.0000000E+000	-15.598	0.0000000E+000	0.0000000E+000	0.0000000E+000	15.598	3.58209	15.598	-5.71885e-08
5865.09	43.8976	16.2997	46.826	-20.3705	5.78186	0.328211	-0.000365447	1.66482	0.20172	1	11	0.0103721	0.000221502	0	4.0907e-06	0.0200201	0.00743368	0.0213556	20.3705	201.72	543.265	579.507	-69.6295	0.0000000E+000	0.0000000E+000	0.0000000E+000	69.6295	0.0000000E+000	0.0000000E+000	0.0000000E+000	-69.6295	0.0000000E+000	0.0000000E+000	0.0000000E+000	-20.3705	0.0000000E+000	0.0000000E+000	0.0000000E+000	20.3705	2.69316	20.3705	-1.60601e-06
3961.2	45.751	22.5405	51.0022	-26.2284	6.48996	0.328226	-0.000346271	1.7825	0.34816	1	11	0.010183	0.000199658	0	4.06415e-06	0.0175882	0.00866533	0.019607	26.2284	348.16	706.669	787.779	-63.7716	0.0000000E+000	0.0000000E+000	0.0000000E+000	63.7716	0.0000000E+000	0.0000000E+000	0.0000000E+000	-63.7716	0.0000000E+000	0.0000000E+000	0.0000000E+000	-26.2284	0.0000000E+000	0.0000000E+000	0.0000000E+000	26.2284	2.02972	26.2284	-2.65537e-08
2677.43	48.2735	31.2276	57.4934	-32.8984	6.96395	0.328206	-0.000693302	1.90355	0.561571	1	11	0.0107237	0.00018652	0	4.39988e-06	0.014604	0.00944719	0.0173933	32.8984	561.571	868.11	1033.91	-57.1016	0.0000000E+000	0.0000000E+000	0.0000000E+000	57.1016	0.0000000E+000	0.0000000E+000	0.0000000E+000	-57.1016	0.0000000E+000	0.0000000E+000	0.0000000E+000	-32.8984	0.0000000E+000	0.0000000E+000	0.0000000E+000	32.8984	1.54586	32.8984	3.35728e-07
1808.26	52.1564	43.2011	67.7247	-39.6349	7.43796	0.328227	-0.000547528	2.03734	0.829009	1	11	0.0106927	0.000157885	0	4.02294e-06	0.0113714	0.00941892	0.0147657	39.6349	829.009	1000.86	1299.61	-50.3651	0.0000000E+000	0.0000000E+000	0.0000000E+000	50.3651	0.0000000E+000	0.0000000E+000	0.0000000E+000	-50.3651	0.0000000E+000	0.0000000E+000	0.0000000E+000	-39.6349	0.0000000E+000	0.0000000E+000	0.0000000E+000	39.6349	1.20729	39.6349	-3.76939e-07
1221.96	58.2177	59.569	83.2933	-45.6573	7.91142	0.328225	-0.000491118	2.18648	1.11832	1	11	0.0105168	0.000126263	0	3.85385e-06	0.00839142	0.00858619	0.0120058	45.6573	1118.32	1092.95	1563.71	-44.3427	0.0000000E+000	0.0000000E+000	0.0000000E+000	44.3427	0.0000000E+000	0.0000000E+000	0.0000000E+000	-44.3427	0.0000000E+000	0.0000000E+000	0.0000000E+000	-45.6573	0.0000000E+000	0.0000000E+000	0.0000000E+000	45.6573	0.977317	45.6573	-1.69085e-07
825.264	66.6537	81.8736	105.575	-50.8508	8.38468	0.328204	-0.0006799	2.3555	1.41662	1	11	0.0102946	9.75104e-05	0	3.68849e-06	0.00598006	0.00734556	0.00947198	50.8508	1416.62	1153.27	1826.7	-39.1492	0.0000000E+000	0.0000000E+000	0.0000000E+000	39.1492	0.0000000E+000	0.0000000E+000	0.0000000E+000	-39.1492	0.0000000E+000	0.0000000E+000	0.0000000E+000	-50.8508	0.0000000E+000	0.0000000E+000	0.0000000E+000	50.8508	0.814105	50.8508	-1.65359e-07
558.036	79.6124	110.936	136.546	-54.3352	8.86044	0.328217	-0.000479204	2.5709	1.69695	1	11	0.0101613	7.44166e-05	0	3.07364e-06	0.00426992	0.00594993	0.00732351	54.3352	1696.95	1217.81	2088.71	-35.6648	0.0000000E+000	0.0000000E+000	0.0000000E+000	35.6648	0.0000000E+000	0.0000000E+000	0.0000000E+000	-35.6648	0.0000000E+000	0.0000000E+000	0.0000000E+000	-54.3352	0.0000000E+000	0.0000000E+000	0.0000000E+000	54.3352	0.717642	54.3352	-6.14849e-07
377.051	99.4737	148.477	178.719	-56.1795	9.33167	0.328205	-0.000817857	2.8429	1.96218	1	11	0.0101075	5.65554e-05	0	3.20882e-06	0.00311436	0.00464856	0.00559539	56.1795	1962.18	1314.58	2361.84	-33.8205	0.0000000E+000	0.0000000E+000	0.0000000E+000	33.8205	0.0000000E+000	0.0000000E+000	0.0000000E+000	-33.8205	0.0000000E+000	0.0000000E+000	0.0000000E+000	-56.1795	0.0000000E+000	0.0000000E+000	0.0000000E+000	56.1795	0.669961	56.1795	1.35176e-07
254.755	127.83	196.752	234.631	-56.9881	9.80596	0.328192	-0.000641177	3.17525	2.23277	1	11	0.0100545	4.28522e-05	0	3.32509e-06	0.002322	0.00357394	0.00426201	56.9881	2232.77	1450.64	2662.63	-33.0119	0.0000000E+000	0.0000000E+000	0.0000000E+000	33.0119	0.0000000E+000	0.0000000E+000	0.0000000E+000	-33.0119	0.0000000E+000	0.0000000E+000	0.0000000E+000	-56.9881	0.0000000E+000	0.0000000E+000	0.0000000E+000	56.9881	0.649702	56.9881	1.16269e-07
172.037	167.139	256.084	305.801	-56.8686	10.5364	0.328236	8.69639e-05	3.61257	2.53339	1	12	0.0102426	3.34942e-05	0	3.16776e-06	0.00178731	0.00273845	0.0032701	56.8686	2533.39	1653.47	3025.24	-33.1314	0.0000000E+000	0.0000000E+000	0.0000000E+000	33.1314	0.0000000E+000	0.0000000E+000	0.0000000E+000	-33.1314	0.0000000E+000	0.0000000E+000	0.0000000E+000	-56.8686	0.0000000E+000	0.0000000E+000	0.0000000E+000	56.8686	0.652672	56.8686	-1.57325e-07
116.227	222.144	329.051	397.017	-55.9765	11.0066	0.328209	-4.76826e-06	4.16149	2.85862	1	12	0.0101638	2.56003e-05	0	3.16976e-06	0.00140934	0.00208759	0.00251878	55.9765	2858.62	1929.87	3449.07	-34.0235	0.0000000E+000	0.0000000E+000	0.0000000E+000	34.0235	0.0000000E+000	0.0000000E+000	0.0000000E+000	-34.0235	0.0000000E+000	0.0000000E+000	0.0000000E+000	-55.9765	0.0000000E+000	0.0000000E+000	0.0000000E+000	55.9765	0.675105	55.9765	1.99574e-09
78.5176	288.851	413.122	504.088	-55.0392	11.4885	0.328218	-0.00023717	4.90653	3.29548	1	12	0.0100858	2.00081e-05	0	3.25591e-06	0.00113674	0.0016258	0.00198378	55.0392	3295.48	2304.17	4021.12	-34.9608	0.0000000E+000	0.0000000E+000	0.0000000E+000	34.9608	0.0000000E+000	0.0000000E+000	0.0000000E+000	-34.9608	0.0000000E+000	0.0000000E+000	0.0000000E+000	-55.0392	0.0000000E+000	0.0000000E+000	0.0000000E+000	55.0392	0.699189	55.0392	8.61481e-08
53.0478	381.129	536.523	658.115	-54.6112	11.9771	0.328216	-0.000102569	5.59196	3.71652	1	12	0.0100461	1.5265e-05	0	3.4012e-06	0.00087997	0.00123875	0.00151949	54.6112	3716.52	2640.1	4558.8	-35.3888	0.0000000E+000	0.0000000E+000	0.0000000E+000	35.3888	0.0000000E+000	0.0000000E+000	0.0000000E+000	-35.3888	0.0000000E+000	0.0000000E+000	0.0000000E+000	-54.6112	0.0000000E+000	0.0000000E+000	0.0000000E+000	54.6112	0.710369	54.6112	1.45294e-07
35.8372	501.636	651.026	821.872	-52.3846	12.4411	0.32821	-0.000149812	6.82163	4.28032	1	12	0.0100278	1.22012e-05	0	3.40039e-06	0.000742644	0.000963807	0.00121674	52.3846	4280.33	3298.13	5403.59	-37.6154	0.0000000E+000	0.0000000E+000	0.0000000E+000	37.6154	0.0000000E+000	0.0000000E+000	0.0000000E+000	-37.6154	0.0000000E+000	0.0000000E+000	0.0000000E+000	-52.3846	0.0000000E+000	0.0000000E+000	0.0000000E+000	52.3846	0.770532	52.3846	-8.125e-10
24.2323	635.72	808.311	1028.35	-51.8157	12.9281	0.328201	-0.000507805	8.12543	5.0202	1	12	0.0100513	9.77421e-06	0	3.22092e-06	0.00060115	0.000764356	0.00097243	51.8157	5020.19	3948.28	6386.8	-38.1843	0.0000000E+000	0.0000000E+000	0.0000000E+000	38.1843	0.0000000E+000	0.0000000E+000	0.0000000E+000	-38.1843	0.0000000E+000	0.0000000E+000	0.0000000E+000	-51.8157	0.0000000E+000	0.0000000E+000	0.0000000E+000	51.8157	0.786479	51.8157	-1.79472e-07
16.367	758.264	956.891	1220.9	-51.6058	13.367	0.328214	-0.000226113	10.1622	6.2424	1	12	0.0100193	8.2065e-06	0	3.14977e-06	0.000508695	0.000641948	0.000819066	51.6058	6242.4	4946.63	7964.72	-38.3942	0.0000000E+000	0.0000000E+000	0.0000000E+000	38.3942	0.0000000E+000	0.0000000E+000	0.0000000E+000	-38.3942	0.0000000E+000	0.0000000E+000	0.0000000E+000	-51.6058	0.0000000E+000	0.0000000E+000	0.0000000E+000	51.6058	0.792424	51.6058	-7.11482e-08
11.0502	996.531	1172.26	1538.59	-49.6323	14.0477	0.328222	-6.48068e-05	12.2864	7.13224	1	13	0.0100112	6.5067e-06	0	3.24479e-06	0.000420962	0.000495195	0.000649944	49.6323	7132.24	6063.07	9361.07	-40.3677	0.0000000E+000	0.0000000E+000	0.0000000E+000	40.3677	0.0000000E+000	0.0000000E+000	0.0000000E+000	-40.3677	0.0000000E+000	0.0000000E+000	0.0000000E+000	-49.6323	0.0000000E+000	0.0000000E+000	0.0000000E+000	49.6323	0.850094	49.6323	9.50229e-08
7.46893	1230.3	1490.82	1932.92	-50.4688	14.3856	0.328209	-3.2507e-05	14.2934	8.50272	1	13	0.010042	5.19525e-06	0	3.20922e-06	0.000329293	0.000399021	0.000517351	50.4688	8502.72	7016.88	11024.2	-39.5312	0.0000000E+000	0.0000000E+000	0.0000000E+000	39.5312	0.0000000E+000	0.0000000E+000	0.0000000E+000	-39.5312	0.0000000E+000	0.0000000E+000	0.0000000E+000	-50.4688	0.0000000E+000	0.0000000E+000	0.0000000E+000	50.4688	0.825252	50.4688	-3.55768e-08
5.04683	1603.98	1752.23	2375.51	-47.5292	14.8609	0.328211	-1.52653e-05	17.9975	9.79215	1	13	0.0100263	4.2207e-06	0	3.28246e-06	0.00028424	0.000310511	0.000420963	47.5292	9792.15	8963.68	13275.3	-42.4708	0.0000000E+000	0.0000000E+000	0.0000000E+000	42.4708	0.0000000E+000	0.0000000E+000	0.0000000E+000	-42.4708	0.0000000E+000	0.0000000E+000	0.0000000E+000	-47.5292	0.0000000E+000	0.0000000E+000	0.0000000E+000	47.5292	0.915394	47.5292	7.32397e-08
3.4086	1905.58	2245.58	2945.15	-49.6824	15.5292	0.328234	-2.74194e-05	20.7929	12.0882	1	13	0.0100508	3.41267e-06	0	3.2459e-06	0.000219692	0.00025889	0.000339542	49.6824	12088.2	10257.9	15854	-40.3176	0.0000000E+000	0.0000000E+000	0.0000000E+000	40.3176	0.0000000E+000	0.0000000E+000	0.0000000E+000	-40.3176	0.0000000E+000	0.0000000E+000	0.0000000E+000	-49.6824	0.0000000E+000	0.0000000E+000	0.0000000E+000	49.6824	0.84859	49.6824	-3.65553e-08
2.30321	2388.03	2751.75	3643.46	-49.0479	16.49	0.328229	-4.82493e-05	25.1118	14.3241	1	13	0.0100378	2.75502e-06	0	3.18547e-06	0.000179892	0.000207291	0.000274465	49.0479	14324.1	12430.8	18965.8	-40.9521	0.0000000E+000	0.0000000E+000	0.0000000E+000	40.9521	0.0000000E+000	0.0000000E+000	0.0000000E+000	-40.9521	0.0000000E+000	0.0000000E+000	0.0000000E+000	-49.0479	0.0000000E+000	0.0000000E+000	0.0000000E+000	49.0479	0.867821	49.0479	-6.04309e-08
1.55627	2935.13	3363.52	4464.11	-48.8909	18.5895	0.328204	-1.02258e-05	30.4046	17.2607	1	14	0.0100404	2.24915e-06	0	3.20752e-06	0.000147285	0.000168782	0.000224009	48.8909	17260.7	15062.3	22908.6	-41.1091	0.0000000E+000	0.0000000E+000	0.0000000E+000	41.1091	0.0000000E+000	0.0000000E+000	0.0000000E+000	-41.1091	0.0000000E+000	0.0000000E+000	0.0000000E+000	-48.8909	0.0000000E+000	0.0000000E+000	0.0000000E+000	48.8909	0.872635	48.8909	2.2052e-08
1.05233	3633.18	4131.01	5501.38	-48.6687	20.6316	0.328225	-1.87916e-05	36.611	20.6433	1	14	0.0100389	1.82479e-06	0	3.26007e-06	0.000120045	0.000136493	0.000181772	48.6687	20643.3	18155.6	27491.3	-41.3313	0.0000000E+000	0.0000000E+000	0.0000000E+000	41.3313	0.0000000E+000	0.0000000E+000	0.0000000E+000	-41.3313	0.0000000E+000	0.0000000E+000	0.0000000E+000	-48.6687	0.0000000E+000	0.0000000E+000	0.0000000E+000	48.6687	0.879491	48.6687	5.25457e-08
0.710357	4504.57	5119.38	6819.03	-48.6553	23.6341	0.328231	-1.52999e-05	43.765	24.667	1	14	0.0100342	1.4715e-06	0	3.27649e-06	9.68742e-05	0.000110096	0.000146648	48.6553	24667	21704.6	32856.5	-41.3447	0.0000000E+000	0.0000000E+000	0.0000000E+000	41.3447	0.0000000E+000	0.0000000E+000	0.0000000E+000	-41.3447	0.0000000E+000	0.0000000E+000	0.0000000E+000	-48.6553	0.0000000E+000	0.0000000E+000	0.0000000E+000	48.6553	0.879906	48.6553	1.6424e-08
0.480355	5494.91	6347.48	8395.51	-49.1178	28.0527	0.328226	-1.53623e-05	52.1983	29.8377	1	14	0.0100257	1.19418e-06	0	3.23387e-06	7.79591e-05	9.00549e-05	0.000119111	49.1178	29837.7	25830	39464.8	-40.8822	0.0000000E+000	0.0000000E+000	0.0000000E+000	40.8822	0.0000000E+000	0.0000000E+000	0.0000000E+000	-40.8822	0.0000000E+000	0.0000000E+000	0.0000000E+000	-49.1178	0.0000000E+000	0.0000000E+000	0.0000000E+000	49.1178	0.865683	49.1178	-4.26231e-08
0.324439	6694.86	7879.44	10339.6	-49.6467	34.5722	0.32822	-1.36816e-05	62.2574	36.1557	1	14	0.0100309	9.70148e-07	0	3.12337e-06	6.26234e-05	7.37039e-05	9.67158e-05	49.6467	36155.7	30720.1	47444.3	-40.3533	0.0000000E+000	0.0000000E+000	0.0000000E+000	40.3533	0.0000000E+000	0.0000000E+000	0.0000000E+000	-40.3533	0.0000000E+000	0.0000000E+000	0.0000000E+000	-49.6467	0.0000000E+000	0.0000000E+000	0.0000000E+000	49.6467	0.849661	49.6467	-1.105e-07
0.218838	8190.73	9819.11	12786.8	-50.1664	44.2169	0.32823	-1.7934e-05	74.0672	43.6762	1	14	0.0100298	7.84382e-07	0	2.96822e-06	5.00953e-05	6.00546e-05	7.82054e-05	50.1664	43676.2	36433	56876.8	-39.8336	0.0000000E+000	0.0000000E+000	0.0000000E+000	39.8336	0.0000000E+000	0.0000000E+000	0.0000000E+000	-39.8336	0.0000000E+000	0.0000000E+000	0.0000000E+000	-50.1664	0.0000000E+000	0.0000000E+000	0.0000000E+000	50.1664	0.834162	50.1664	-1.55144e-07
0.147897	10052.7	12439.8	15993.9	-51.0579	58.4682	0.328229	-1.86059e-05	86.5065	52.3316	1	14	0.0100295	6.2708e-07	0	2.82825e-06	3.92983e-05	4.86298e-05	6.25237e-05	51.0579	52331.6	42289.8	67283.1	-38.9421	0.0000000E+000	0.0000000E+000	0.0000000E+000	38.9421	0.0000000E+000	0.0000000E+000	0.0000000E+000	-38.9421	0.0000000E+000	0.0000000E+000	0.0000000E+000	-51.0579	0.0000000E+000	0.0000000E+000	0.0000000E+000	51.0579	0.808113	51.0579	-1.39979e-07
0.0999041	12294.8	15942	20132.3	-52.3599	79.5432	0.328224	-2.03913e-05	99.9296	62.6605	1	14	0.0100274	4.98077e-07	0	2.73913e-06	3.03344e-05	3.9333e-05	4.96715e-05	52.3599	62660.5	48325	79130.5	-37.6401	0.0000000E+000	0.0000000E+000	0.0000000E+000	37.6401	0.0000000E+000	0.0000000E+000	0.0000000E+000	-37.6401	0.0000000E+000	0.0000000E+000	0.0000000E+000	-52.3599	0.0000000E+000	0.0000000E+000	0.0000000E+000	52.3599	0.77122	52.3599	-8.91124e-08