File: Data/2025-02-10 exp 8 CV 100mvs_C05.mpt
EC-Lab ASCII FILE
Nb header lines : 59

Cyclic Voltammetry

Run on channel : 5 (SN 39658)
User :
CE vs. WE compliance from -10 V to 10 V
Electrode connection : standard
Potential control : Ewe
Ewe ctrl range : min = -2.50 V, max = 2.50 V
Safety Limits :
	Do not start on E overload
Acquisition started on : 02/10/2025 12:58:40.102
Loaded Setting File :  NONE
Saved on :
	File : 2025-02-10 exp 8 CV 100mvs_C05.mpr
	Directory : C:\Users\thefo\OneDrive\Documents\EC-Lab\Data\CHEM 451\
	Host : 172.24.113.132
Device : VSP (SN 1910)
Address : USB
EC-Lab for windows v11.46 (software)
Internet server v11.40 (firmware)
Command interpretor v11.40 (firmware)
Electrode material : Au/Pd
Initial state :
Electrolyte : NaCl (0.2M)
Comments : Fe(CN)63-/Fe(CN)64- 5.10-3 M
Current amplifier : VSPB-4A
Reference electrode : SCE Saturated Calomel Electrode (0.241 V)
Electrode surface area : 0.001 cm²
Characteristic mass : 0.001 g
Equivalent Weight : 0.000 g/eq.
Density : 0.000 g/cm3
Volume (V) : 0.001 cm³
Cycle Definition : Charge/Discharge alternance
Ei (V)              0.000
vs.                 Eoc
dE/dt               100.000
dE/dt unit          mV/s
E1 (V)              -0.200
vs.                 Ref
Step percent        50
N                   10
E range min (V)     -2.500
E range max (V)     2.500
I Range             Auto
I Range min         Unset
I Range max         Unset
I Range init        Unset
Bandwidth           4
E2 (V)              0.500
vs.                 Ref
nc cycles           0
Reverse Scan        1
Ef (V)              0.000
vs.                 Ref

mode	ox/red	error	control changes	counter inc.	time/s	control/V	Ewe/V	<I>/mA	cycle number	(Q-Qo)/C	I Range	P/W
2	1	0	0	0	0.000000000000000E+000	0.301882	0.302125	5.57845e-05	1	0.0000000E+000	14	1.68539e-08
2	0	0	1	0	0.0257	0.299331	0.299523	-0.00177531	1	-2.97928e-08	14	-5.31747e-07
2	0	0	1	0	0.0557	0.29633	0.296548	-0.00271911	1	-9.84878e-08	14	-8.06345e-07
2	0	0	1	0	0.0857	0.293329	0.293546	-0.00353167	1	-1.92829e-07	14	-1.03671e-06
2	0	0	1	0	0.1157	0.290328	0.290491	-0.00425832	1	-3.09662e-07	14	-1.237e-06
2	0	0	1	0	0.1457	0.287327	0.287506	-0.00492723	1	-4.47474e-07	14	-1.41661e-06
2	0	0	1	0	0.1757	0.284326	0.284505	-0.00558761	1	-6.05563e-07	14	-1.5897e-06
2	0	0	1	0	0.2057	0.281325	0.28148	-0.00626436	1	-7.83594e-07	14	-1.76329e-06
2	0	0	1	0	0.2357	0.278324	0.278488	-0.0069779	1	-9.82351e-07	14	-1.94326e-06
2	0	0	1	0	0.2657	0.275323	0.275497	-0.00770559	1	-1.20249e-06	14	-2.12287e-06
2	0	0	1	0	0.2957	0.272322	0.272514	-0.0084321	1	-1.44431e-06	14	-2.29786e-06
2	0	0	1	0	0.3257	0.269321	0.269534	-0.00917863	1	-1.7084e-06	14	-2.47395e-06
2	0	0	1	0	0.3557	0.26632	0.266527	-0.00998312	1	-1.99612e-06	14	-2.66077e-06
2	0	0	1	0	0.3857	0.26332	0.263515	-0.0108434	1	-2.30868e-06	14	-2.8574e-06
2	0	0	1	0	0.4457	0.257318	0.257559	-0.0125765	1	-2.99824e-06	13	-3.23918e-06
2	0	0	1	0	0.4757	0.254317	0.254495	-0.0135535	1	-3.39105e-06	13	-3.4493e-06
2	0	0	1	0	0.5057	0.251316	0.251479	-0.0145602	1	-3.81368e-06	13	-3.66158e-06
2	0	0	1	0	0.5357	0.248315	0.248492	-0.0156119	1	-4.26704e-06	13	-3.87944e-06
2	0	0	1	0	0.5657	0.245314	0.24545	-0.0166647	1	-4.75213e-06	13	-4.09033e-06
2	0	0	1	0	0.5957	0.242313	0.24255	-0.0177857	1	-5.26954e-06	13	-4.31393e-06
2	0	0	1	0	0.6258	0.23932	0.239515	-0.0189003	1	-5.82281e-06	13	-4.52691e-06
2	0	0	1	0	0.6559	0.236311	0.236505	-0.0200902	1	-6.41068e-06	13	-4.75143e-06
2	0	0	1	0	0.6859	0.23331	0.233439	-0.0212875	1	-7.03229e-06	13	-4.96934e-06
2	0	0	1	0	0.7159	0.230309	0.230505	-0.0224927	1	-7.68936e-06	13	-5.18466e-06
2	0	0	1	0	0.7459	0.227308	0.227483	-0.0237163	1	-8.38302e-06	13	-5.39504e-06
2	0	0	1	0	0.7759	0.224307	0.224451	-0.0249423	1	-9.11365e-06	13	-5.59832e-06
2	0	0	1	0	0.8059	0.221306	0.221464	-0.0261527	1	-9.88081e-06	13	-5.79189e-06
2	0	0	1	0	0.8359	0.218305	0.218485	-0.0273283	1	-1.06836e-05	13	-5.97083e-06
2	0	0	1	0	0.8659	0.215304	0.21545	-0.0285057	1	-1.15218e-05	13	-6.14155e-06
2	0	0	1	0	0.8959	0.212303	0.212477	-0.0296528	1	-1.2395e-05	13	-6.30054e-06
2	0	0	1	0	0.9259	0.209302	0.209472	-0.030735	1	-1.3302e-05	13	-6.43813e-06
2	0	0	1	0	0.9559	0.206301	0.206434	-0.0317492	1	-1.42406e-05	13	-6.55413e-06
2	0	0	1	0	0.9859	0.2033	0.203457	-0.0327556	1	-1.52095e-05	13	-6.66438e-06
2	0	0	1	0	1.0159	0.200299	0.200474	-0.0337022	1	-1.62073e-05	13	-6.75642e-06
2	0	0	1	0	1.0459	0.197298	0.197435	-0.0345595	1	-1.72318e-05	13	-6.82324e-06
2	0	0	1	0	1.0759	0.194297	0.194462	-0.0352964	1	-1.82805e-05	13	-6.8638e-06
2	0	0	1	0	1.1059	0.191296	0.19146	-0.0359913	1	-1.93508e-05	13	-6.89088e-06
2	0	0	1	0	1.1359	0.188295	0.188516	-0.0366153	1	-2.04411e-05	13	-6.90255e-06
2	0	0	1	0	1.1659	0.185294	0.185471	-0.0371741	1	-2.15491e-05	13	-6.89471e-06
2	0	0	1	0	1.1959	0.182293	0.182429	-0.0376408	1	-2.26719e-05	13	-6.86677e-06
2	0	0	1	0	1.2259	0.179292	0.179444	-0.0379847	1	-2.38066e-05	13	-6.8161e-06
2	0	0	1	0	1.2561	0.176291	0.176407	-0.0382628	1	-2.49585e-05	13	-6.74983e-06
2	0	0	1	0	1.2861	0.17329	0.173454	-0.0385096	1	-2.6111e-05	13	-6.67963e-06
2	0	0	1	0	1.3161	0.170289	0.170408	-0.038658	1	-2.72691e-05	13	-6.58762e-06
2	0	0	1	0	1.3461	0.167288	0.167472	-0.0387264	1	-2.84303e-05	13	-6.4856e-06
2	0	0	1	0	1.3761	0.164287	0.164469	-0.0387384	1	-2.9593e-05	13	-6.37126e-06
2	0	0	1	0	1.4061	0.161286	0.161469	-0.0387105	1	-3.07556e-05	13	-6.25056e-06
2	0	0	1	0	1.4361	0.158286	0.158466	-0.0386277	1	-3.19166e-05	13	-6.12118e-06
2	0	0	1	0	1.4661	0.155285	0.155425	-0.0384903	1	-3.30742e-05	13	-5.98237e-06
2	0	0	1	0	1.4961	0.152284	0.152433	-0.0383408	1	-3.4227e-05	13	-5.84438e-06
2	0	0	1	0	1.5261	0.149283	0.149419	-0.0381437	1	-3.53748e-05	13	-5.69937e-06
2	0	0	1	0	1.5561	0.146282	0.146502	-0.0379076	1	-3.65163e-05	13	-5.55355e-06
2	0	0	1	0	1.5861	0.143281	0.14342	-0.0376566	1	-3.76507e-05	13	-5.40071e-06
2	0	0	1	0	1.6161	0.14028	0.140476	-0.0374041	1	-3.87772e-05	13	-5.25439e-06
2	0	0	1	0	1.6461	0.137279	0.137452	-0.0371333	1	-3.98958e-05	13	-5.10406e-06
2	0	0	1	0	1.6761	0.134278	0.134427	-0.0368439	1	-4.10062e-05	13	-4.9528e-06
2	0	0	1	0	1.7061	0.131277	0.131396	-0.0365406	1	-4.21078e-05	13	-4.80128e-06
2	0	0	1	0	1.7361	0.128276	0.128426	-0.0362463	1	-4.32001e-05	13	-4.65498e-06
2	0	0	1	0	1.7661	0.125275	0.125426	-0.0359498	1	-4.42835e-05	13	-4.50904e-06
2	0	0	1	0	1.7961	0.122274	0.122454	-0.0356572	1	-4.53578e-05	13	-4.36637e-06
2	0	0	1	0	1.8261	0.119273	0.119425	-0.0353319	1	-4.64229e-05	13	-4.21952e-06
2	0	0	1	0	1.8562	0.116274	0.116432	-0.0349828	1	-4.7482e-05	13	-4.07312e-06
2	0	0	1	0	1.8863	0.113271	0.113477	-0.0346924	1	-4.85314e-05	13	-3.93678e-06
2	0	0	1	0	1.9163	0.11027	0.11043	-0.0344117	1	-4.95686e-05	13	-3.80007e-06
2	0	0	1	0	1.9463	0.107269	0.107442	-0.0341185	1	-5.05968e-05	13	-3.66576e-06
2	0	0	1	0	1.9763	0.104268	0.104403	-0.0337937	1	-5.16161e-05	13	-3.52815e-06
2	0	0	1	0	2.0063	0.101267	0.101432	-0.0335041	1	-5.26263e-05	13	-3.39839e-06
2	0	0	1	0	2.0363	0.0982661	0.0983852	-0.0332134	1	-5.36278e-05	13	-3.2677e-06
2	0	0	1	0	2.0663	0.0952651	0.0954305	-0.0329361	1	-5.46207e-05	13	-3.14311e-06
2	0	0	1	0	2.0963	0.0922642	0.0924281	-0.0326598	1	-5.56051e-05	13	-3.01868e-06
2	0	0	1	0	2.1263	0.0892632	0.0894257	-0.0323797	1	-5.65811e-05	13	-2.89557e-06
2	0	0	1	0	2.1563	0.0862622	0.0863936	-0.0321106	1	-5.75491e-05	13	-2.77415e-06
2	0	0	1	0	2.1863	0.0832612	0.0834103	-0.0318515	1	-5.85092e-05	13	-2.65674e-06
2	0	0	1	0	2.2163	0.0802603	0.0804684	-0.0316055	1	-5.94615e-05	13	-2.54324e-06
2	0	0	1	0	2.2463	0.0772593	0.0774193	-0.0313542	1	-6.0406e-05	13	-2.42742e-06
2	0	0	1	0	2.2763	0.0742583	0.0744042	-0.0311014	1	-6.13432e-05	13	-2.31408e-06
2	0	0	1	0	2.3063	0.0712574	0.0714304	-0.0308617	1	-6.22733e-05	13	-2.20447e-06
2	0	0	1	0	2.3363	0.0682564	0.0684301	-0.0306265	1	-6.31963e-05	13	-2.09577e-06
2	0	0	1	0	2.3663	0.0652554	0.0653768	-0.0304058	1	-6.41123e-05	13	-1.98784e-06
2	0	0	1	0	2.3963	0.0622544	0.0624158	-0.0301966	1	-6.50218e-05	13	-1.88474e-06
2	0	0	1	0	2.4263	0.0592535	0.0594134	-0.0299824	1	-6.59249e-05	13	-1.78136e-06
2	0	0	1	0	2.4563	0.0562525	0.0563866	-0.029769	1	-6.68219e-05	13	-1.67857e-06
2	0	0	1	0	2.4865	0.0532515	0.0534043	-0.0295502	1	-6.77184e-05	13	-1.57811e-06
2	0	0	1	0	2.5165	0.0502506	0.0504147	-0.0293897	1	-6.86031e-05	13	-1.48167e-06
2	0	0	1	0	2.5465	0.0472496	0.0474038	-0.0292024	1	-6.94823e-05	13	-1.3843e-06
2	0	0	1	0	2.5765	0.0442486	0.0443982	-0.0290179	1	-7.03562e-05	13	-1.28834e-06
2	0	0	1	0	2.6065	0.0412476	0.0414043	-0.0288436	1	-7.12249e-05	13	-1.19425e-06
2	0	0	1	0	2.6365	0.0382467	0.0383828	-0.0286761	1	-7.20883e-05	13	-1.10067e-06
2	0	0	1	0	2.6665	0.0352457	0.0354122	-0.0285297	1	-7.2947e-05	13	-1.0103e-06
2	0	0	1	0	2.6965	0.0322447	0.032379	-0.0283871	1	-7.38011e-05	13	-9.19146e-07
2	0	0	1	0	2.7265	0.0292438	0.0293926	-0.0282359	1	-7.46507e-05	13	-8.29927e-07
2	0	0	1	0	2.7565	0.0262428	0.0263615	-0.0280784	1	-7.54958e-05	13	-7.4019e-07
2	0	0	1	0	2.7865	0.0232418	0.023392	-0.0279482	1	-7.63368e-05	13	-6.53765e-07
2	0	0	1	0	2.8165	0.0202408	0.0203694	-0.02782	1	-7.71739e-05	13	-5.66679e-07
2	0	0	1	0	2.8465	0.0172399	0.0174052	-0.027701	1	-7.80071e-05	13	-4.82143e-07
2	0	0	1	0	2.8765	0.0142389	0.0143975	-0.0275591	1	-7.88365e-05	13	-3.96782e-07
2	0	0	1	0	2.9065	0.0112379	0.0114015	-0.0274436	1	-7.96622e-05	13	-3.12898e-07
2	0	0	1	0	2.9365	0.00823695	0.0083938	-0.0273314	1	-8.04846e-05	13	-2.29414e-07
2	0	0	1	0	2.9665	0.00523598	0.00540519	-0.0272307	1	-8.13038e-05	13	-1.47187e-07
2	0	0	1	0	2.9965	0.00223501	0.00239218	-0.0271221	1	-8.21197e-05	13	-6.4881e-08
2	0	0	1	0	3.0265	-0.000765963	-0.000603851	-0.027017	1	-8.29323e-05	13	1.63142e-08
2	0	0	1	0	3.0565	-0.00376694	-0.00361686	-0.0269426	1	-8.37422e-05	13	9.74478e-08
2	0	0	1	0	3.0866	-0.00677443	-0.00668151	-0.0268386	1	-8.45529e-05	13	1.79322e-07
2	0	0	1	0	3.1167	-0.00976888	-0.00966304	-0.0267645	1	-8.53603e-05	13	2.58627e-07
2	0	0	1	0	3.1467	-0.0127699	-0.0127047	-0.0266716	1	-8.6162e-05	13	3.38855e-07
2	0	0	1	0	3.1767	-0.0157708	-0.015688	-0.0265896	1	-8.69612e-05	13	4.17137e-07
2	0	0	1	0	3.2067	-0.0187718	-0.0186968	-0.0265071	1	-8.77582e-05	13	4.95598e-07
2	0	0	1	0	3.2367	-0.0217728	-0.0216578	-0.0264303	1	-8.85529e-05	13	5.72423e-07
2	0	0	1	0	3.2667	-0.0247737	-0.0247111	-0.0263553	1	-8.9345e-05	13	6.51269e-07
2	0	0	1	0	3.2967	-0.0277747	-0.0276732	-0.0262911	1	-9.01352e-05	13	7.27558e-07
2	0	0	1	0	3.3267	-0.0307757	-0.0307106	-0.0262205	1	-9.09234e-05	13	8.05246e-07
2	0	0	1	0	3.3567	-0.0337767	-0.0336674	-0.0261454	1	-9.17096e-05	13	8.80248e-07
2	0	0	1	0	3.3867	-0.0367776	-0.0366921	-0.0260758	1	-9.24938e-05	13	9.56776e-07
2	0	0	1	0	3.4167	-0.0397786	-0.0397008	-0.0260354	1	-9.32761e-05	13	1.03363e-06
2	0	0	1	0	3.4467	-0.0427796	-0.0426767	-0.0259928	1	-9.40567e-05	13	1.10929e-06
2	0	0	1	0	3.4767	-0.0457806	-0.0457247	-0.0259283	1	-9.48358e-05	13	1.18557e-06
2	0	0	1	0	3.5067	-0.0487815	-0.0486688	-0.0258546	1	-9.56131e-05	13	1.25831e-06
2	0	0	1	0	3.5367	-0.0517825	-0.0517083	-0.0258047	1	-9.63888e-05	13	1.33432e-06
2	0	0	1	0	3.5667	-0.0547835	-0.0546916	-0.0257727	1	-9.7163e-05	13	1.40955e-06
2	0	0	1	0	3.5967	-0.0577844	-0.0577068	-0.025732	1	-9.7936e-05	13	1.48491e-06
2	0	0	1	0	3.6267	-0.0607854	-0.0607187	-0.0256786	1	-9.87076e-05	13	1.55917e-06
2	0	0	1	0	3.6567	-0.0637864	-0.0636882	-0.0256315	1	-9.94776e-05	13	1.63243e-06
2	0	0	1	0	3.6867	-0.0667874	-0.0667278	-0.0255887	1	-0.000100246	13	1.70747e-06
2	0	0	1	0	3.7169	-0.0697883	-0.0697397	-0.0255587	1	-0.000101019	13	1.78245e-06
2	0	0	1	0	3.7469	-0.0727893	-0.0726827	-0.0255237	1	-0.000101786	13	1.85513e-06
2	0	0	1	0	3.7769	-0.0757903	-0.0757328	-0.0254748	1	-0.000102551	13	1.92928e-06
2	0	0	1	0	3.8069	-0.0787913	-0.0787214	-0.0254321	1	-0.000103315	13	2.00205e-06
2	0	0	1	0	3.8369	-0.0817922	-0.0817026	-0.0253981	1	-0.000104079	13	2.07509e-06
2	0	0	1	0	3.8669	-0.0847932	-0.0847644	-0.0253795	1	-0.000104841	13	2.15128e-06
2	0	0	1	0	3.8969	-0.0877942	-0.0877233	-0.0253366	1	-0.000105602	13	2.22261e-06
2	0	0	1	0	3.9269	-0.0907952	-0.090696	-0.0253192	1	-0.000106363	13	2.29635e-06
2	0	0	1	0	3.9569	-0.0937961	-0.0937451	-0.0252944	1	-0.000107122	13	2.37123e-06
2	0	0	1	0	3.9869	-0.0967971	-0.0967221	-0.0252551	1	-0.000107881	13	2.44272e-06
2	0	0	1	0	4.0169	-0.0997981	-0.0997393	-0.0252324	1	-0.000108639	13	2.51666e-06
2	0	0	1	0	4.0469	-0.102799	-0.102656	-0.0252135	1	-0.000109397	13	2.58831e-06
2	0	0	1	0	4.0769	-0.1058	-0.105727	-0.0251917	1	-0.000110153	13	2.66344e-06
2	0	0	1	0	4.1069	-0.108801	-0.108717	-0.0251686	1	-0.000110909	13	2.73625e-06
2	0	0	1	0	4.1369	-0.111802	-0.111679	-0.0251487	1	-0.000111665	13	2.80857e-06
2	0	0	1	0	4.1669	-0.114803	-0.114715	-0.0251327	1	-0.000112419	13	2.8831e-06
2	0	0	1	0	4.1969	-0.117804	-0.117694	-0.0251222	1	-0.000113173	13	2.95674e-06
2	0	0	1	0	4.2269	-0.120805	-0.120749	-0.0251041	1	-0.000113927	13	3.03129e-06
2	0	0	1	0	4.2569	-0.123806	-0.123714	-0.0250725	1	-0.00011468	13	3.10182e-06
2	0	0	1	0	4.2869	-0.126807	-0.126713	-0.0250482	1	-0.000115433	13	3.17394e-06
2	0	0	1	0	4.3169	-0.129808	-0.129709	-0.025048	1	-0.000116185	13	3.24895e-06
2	0	0	1	0	4.3471	-0.132809	-0.132686	-0.0250444	1	-0.000116941	13	3.32304e-06
2	0	0	1	0	4.3771	-0.13581	-0.135725	-0.0250194	1	-0.000117693	13	3.39574e-06
2	0	0	1	0	4.4071	-0.138811	-0.138731	-0.024988	1	-0.000118444	13	3.46661e-06
2	0	0	1	0	4.4371	-0.141812	-0.141697	-0.0249895	1	-0.000119194	13	3.54093e-06
2	0	0	1	0	4.4671	-0.144813	-0.144719	-0.0249919	1	-0.000119944	13	3.61681e-06
2	0	0	1	0	4.4971	-0.147814	-0.147735	-0.0249834	1	-0.000120694	13	3.69094e-06
2	0	0	1	0	4.5271	-0.150815	-0.150777	-0.0249775	1	-0.000121444	13	3.76603e-06
2	0	0	1	0	4.5571	-0.153816	-0.15371	-0.0249579	1	-0.000122194	13	3.83629e-06
2	0	0	1	0	4.5871	-0.156817	-0.156778	-0.0249513	1	-0.000122943	13	3.9118e-06
2	0	0	1	0	4.6171	-0.159818	-0.15972	-0.0249675	1	-0.000123693	13	3.98782e-06
2	0	0	1	0	4.6471	-0.162819	-0.16275	-0.0249612	1	-0.000124442	13	4.06244e-06
2	0	0	1	0	4.6771	-0.165819	-0.16573	-0.0249499	1	-0.000125191	13	4.13494e-06
2	0	0	1	0	4.7071	-0.16882	-0.168696	-0.0249458	1	-0.000125939	13	4.20826e-06
2	0	0	1	0	4.7371	-0.171821	-0.171771	-0.0249368	1	-0.000126688	13	4.28343e-06
2	0	0	1	0	4.7671	-0.174822	-0.17479	-0.0249403	1	-0.000127437	13	4.35931e-06
2	0	0	1	0	4.7971	-0.177823	-0.177748	-0.0249402	1	-0.000128186	13	4.43306e-06
2	0	0	1	0	4.8271	-0.180824	-0.180754	-0.0249402	1	-0.000128935	13	4.50805e-06
2	0	0	1	0	4.8571	-0.183825	-0.183785	-0.0249571	1	-0.000129684	13	4.58675e-06
2	0	0	1	0	4.8871	-0.186826	-0.186741	-0.0249574	1	-0.000130433	13	4.66057e-06
2	0	0	1	0	4.9171	-0.189827	-0.189753	-0.0249506	1	-0.000131182	13	4.73445e-06
2	0	0	1	0	4.9473	-0.192828	-0.192767	-0.0249556	1	-0.000131937	13	4.81062e-06
2	0	0	1	0	4.9773	-0.195829	-0.195734	-0.0249788	1	-0.000132686	13	4.88921e-06
2	0	0	1	0	5.0073	-0.19883	-0.198774	-0.0249743	1	-0.000133436	13	4.96423e-06
2	0	0	1	0	5.0247	-0.19943	-0.199336	-0.0233045	1	-0.000133862	13	4.64543e-06
2	0	0	1	0	5.0547	-0.196429	-0.19629	-0.0213043	1	-0.000134526	13	4.18183e-06
2	0	0	1	0	5.0847	-0.193428	-0.193244	-0.0201722	1	-0.000135147	13	3.89818e-06
2	0	0	1	0	5.1149	-0.190427	-0.190285	-0.0193089	1	-0.000135742	13	3.67418e-06
2	0	0	1	0	5.1449	-0.187426	-0.187296	-0.0185647	1	-0.000136309	13	3.47708e-06
2	0	0	1	0	5.1749	-0.184425	-0.184302	-0.0179138	1	-0.000136855	13	3.30155e-06
2	0	0	1	0	5.2049	-0.181425	-0.181311	-0.0173223	1	-0.000137382	13	3.14074e-06
2	0	0	1	0	5.2349	-0.178424	-0.178256	-0.0168017	1	-0.000137894	13	2.995e-06
2	0	0	1	0	5.2649	-0.175423	-0.175283	-0.0163495	1	-0.00013839	13	2.86579e-06
2	0	0	1	0	5.2949	-0.172422	-0.17227	-0.015892	1	-0.000138873	13	2.73772e-06
2	0	0	1	0	5.3249	-0.169421	-0.169271	-0.0154585	1	-0.000139342	13	2.61667e-06
2	0	0	1	0	5.3549	-0.16642	-0.16623	-0.0150646	1	-0.000139799	13	2.50419e-06
2	0	0	1	0	5.3849	-0.163419	-0.163311	-0.0147059	1	-0.000140245	13	2.40163e-06
2	0	0	1	0	5.4149	-0.160418	-0.160262	-0.0143524	1	-0.00014068	13	2.30014e-06
2	0	0	1	0	5.4449	-0.157417	-0.157256	-0.0140058	1	-0.000141105	13	2.20249e-06
2	0	0	1	0	5.4749	-0.154416	-0.154266	-0.0136792	1	-0.000141519	13	2.11024e-06
2	0	0	1	0	5.5049	-0.151415	-0.151264	-0.0133789	1	-0.000141924	13	2.02375e-06
2	0	0	1	0	5.5349	-0.148414	-0.148254	-0.013078	1	-0.00014232	13	1.93887e-06
2	0	0	1	0	5.5649	-0.145413	-0.145225	-0.0127983	1	-0.000142708	13	1.85864e-06
2	0	0	1	0	5.5949	-0.142412	-0.14224	-0.0125255	1	-0.000143086	13	1.78162e-06
2	0	0	1	0	5.6249	-0.139411	-0.139247	-0.012251	1	-0.000143457	13	1.70591e-06
2	0	0	1	0	5.6549	-0.13641	-0.13622	-0.0119893	1	-0.00014382	13	1.63318e-06
2	0	0	1	0	5.6849	-0.133409	-0.133276	-0.0117455	1	-0.000144176	13	1.5654e-06
2	0	0	1	0	5.715	-0.130412	-0.130266	-0.0115189	1	-0.000144525	13	1.50052e-06
2	0	0	1	0	5.7451	-0.127407	-0.127251	-0.0112703	1	-0.000144867	13	1.43415e-06
2	0	0	1	0	5.7751	-0.124406	-0.124278	-0.0110413	1	-0.000145201	13	1.37219e-06
2	0	0	1	0	5.8051	-0.121405	-0.121205	-0.0108164	1	-0.000145528	13	1.311e-06
2	0	0	1	0	5.8351	-0.118404	-0.118253	-0.0106032	1	-0.000145849	13	1.25386e-06
2	0	0	1	0	5.8651	-0.115403	-0.115223	-0.0104003	1	-0.000146163	13	1.19836e-06
2	0	0	1	0	5.8951	-0.112402	-0.112252	-0.010207	1	-0.000146471	13	1.14576e-06
2	0	0	1	0	5.9251	-0.109401	-0.109191	-0.00998804	1	-0.000146773	13	1.0906e-06
2	0	0	1	0	5.9551	-0.1064	-0.106226	-0.00979795	1	-0.000147069	13	1.04079e-06
2	0	0	1	0	5.9851	-0.103399	-0.10327	-0.00960666	1	-0.000147359	13	9.9208e-07
2	0	0	1	0	6.0151	-0.100398	-0.100222	-0.00943764	1	-0.000147644	13	9.45859e-07
2	0	0	1	0	6.0451	-0.0973973	-0.0972684	-0.00924694	1	-0.000147923	13	8.99436e-07
2	0	0	1	0	6.0751	-0.0943963	-0.0942427	-0.00906393	1	-0.000148197	13	8.54209e-07
2	0	0	1	0	6.1051	-0.0913953	-0.091235	-0.00887765	1	-0.000148465	13	8.09952e-07
2	0	0	1	0	6.1351	-0.0883944	-0.08824	-0.00871249	1	-0.000148729	13	7.6879e-07
2	0	0	1	0	6.1651	-0.0853934	-0.0852461	-0.00854838	1	-0.000148987	13	7.28716e-07
2	0	0	1	0	6.1951	-0.0823924	-0.0822713	-0.00838492	1	-0.00014924	13	6.89838e-07
2	0	0	1	0	6.2251	-0.0793915	-0.0792424	-0.00821075	1	-0.000149488	13	6.50639e-07
2	0	0	1	0	6.2551	-0.0763905	-0.0762145	-0.00805226	1	-0.000149732	13	6.13699e-07
2	0	0	1	0	6.2851	-0.0733895	-0.0732705	-0.00790951	1	-0.000149971	13	5.79533e-07
2	0	0	1	0	6.3151	-0.0703885	-0.0702468	-0.00776329	1	-0.000150205	13	5.45347e-07
2	0	0	1	0	6.3453	-0.0673876	-0.0672285	-0.00761108	1	-0.000150436	13	5.11681e-07
2	0	0	1	0	6.3753	-0.0643866	-0.0642314	-0.0074599	1	-0.000150662	13	4.7916e-07
2	0	0	1	0	6.4053	-0.0613856	-0.0612343	-0.00731942	1	-0.000150883	13	4.482e-07
2	0	0	1	0	6.4353	-0.0583846	-0.0582012	-0.00716978	1	-0.000151099	13	4.1729e-07
2	0	0	1	0	6.4653	-0.0553837	-0.0552677	-0.00703538	1	-0.000151311	13	3.88829e-07
2	0	0	1	0	6.4953	-0.0523827	-0.0522377	-0.00689356	1	-0.000151519	13	3.60104e-07
2	0	0	1	0	6.5253	-0.0493817	-0.0491971	-0.00675317	1	-0.000151723	13	3.32236e-07
2	0	0	1	0	6.5553	-0.0463807	-0.0462319	-0.00661948	1	-0.000151923	13	3.06031e-07
2	0	0	1	0	6.5853	-0.0433798	-0.0432464	-0.00648693	1	-0.000152119	13	2.80537e-07
2	0	0	1	0	6.6153	-0.0403788	-0.0401708	-0.00635724	1	-0.000152311	13	2.55375e-07
2	0	0	1	0	6.6453	-0.0373778	-0.0372151	-0.0062349	1	-0.000152499	13	2.32033e-07
2	0	0	1	0	6.6753	-0.0343769	-0.0342254	-0.00609619	1	-0.000152684	13	2.08645e-07
2	0	0	1	0	6.7053	-0.0313759	-0.0312114	-0.0059711	1	-0.000152864	13	1.86366e-07
2	0	0	1	0	6.7353	-0.0283749	-0.0282419	-0.00584765	1	-0.000153041	13	1.65149e-07
2	0	0	1	0	6.7653	-0.0253739	-0.0252405	-0.00572973	1	-0.000153214	13	1.44621e-07
2	0	0	1	0	6.7953	-0.022373	-0.0222211	-0.00562148	1	-0.000153383	13	1.24916e-07
2	0	0	1	0	6.8253	-0.019372	-0.0192304	-0.00548801	1	-0.000153549	13	1.05537e-07
2	0	0	1	0	6.8553	-0.016371	-0.0161909	-0.00536407	1	-0.000153711	13	8.6849e-08
2	0	0	1	0	6.8853	-0.01337	-0.0132298	-0.00524641	1	-0.00015387	13	6.94093e-08
2	0	0	1	0	6.9153	-0.0103691	-0.010202	-0.00515587	1	-0.000154025	13	5.26001e-08
2	0	0	1	0	6.9454	-0.00736375	-0.00721601	-0.00504102	1	-0.000154177	13	3.6376e-08
2	0	0	1	0	6.9755	-0.00436713	-0.00420885	-0.0048624	1	-0.000154326	13	2.04651e-08
2	0	0	1	0	7.0055	-0.00136616	-0.00113962	-0.00477549	1	-0.00015447	13	5.44222e-09
2	0	0	1	0	7.0355	0.00163481	0.00186915	-0.00467071	1	-0.000154611	13	-8.73027e-09
2	0	0	1	0	7.0655	0.00463579	0.00484397	-0.00457034	1	-0.000154749	13	-2.21386e-08
2	0	0	1	0	7.0955	0.00763676	0.00787713	-0.00445665	1	-0.000154883	13	-3.51056e-08
2	0	0	1	0	7.1255	0.0106377	0.0109061	-0.00433714	1	-0.000155015	13	-4.73011e-08
2	0	0	1	0	7.1855	0.0166397	0.0168536	-0.00410743	1	-0.00015527	14	-6.92248e-08
2	0	0	1	0	7.2155	0.0196406	0.0198337	-0.00400237	1	-0.000155391	14	-7.93817e-08
2	0	0	1	0	7.2455	0.0226416	0.0228594	-0.00389831	1	-0.000155509	14	-8.9113e-08
2	0	0	1	0	7.2755	0.0256426	0.0258374	-0.00376939	1	-0.000155624	14	-9.73914e-08
2	0	0	1	0	7.3055	0.0286436	0.0288759	-0.003659	1	-0.000155736	14	-1.05657e-07
2	0	0	1	0	7.3355	0.0316445	0.0318687	-0.0035529	1	-0.000155844	14	-1.13227e-07
2	0	0	1	0	7.3655	0.0346455	0.0349009	-0.00344232	1	-0.000155948	14	-1.2014e-07
2	0	0	1	0	7.3955	0.0376465	0.0378842	-0.00333516	1	-0.00015605	14	-1.2635e-07
2	0	0	1	0	7.4255	0.0406474	0.0408876	-0.00321997	1	-0.000156148	14	-1.31657e-07
2	0	0	1	0	7.4555	0.0436484	0.0438741	-0.00309703	1	-0.000156243	14	-1.35879e-07
2	0	0	1	0	7.4855	0.0466494	0.0468871	-0.00299323	1	-0.000156334	14	-1.40344e-07
2	0	0	1	0	7.5155	0.0496504	0.0498991	-0.00288838	1	-0.000156422	14	-1.44128e-07
2	0	0	1	0	7.5455	0.0526513	0.0528824	-0.00276868	1	-0.000156507	14	-1.46414e-07
2	0	0	1	0	7.5757	0.0556523	0.0559421	-0.00264014	1	-0.000156589	14	-1.47695e-07
2	0	0	1	0	7.6057	0.0586533	0.0589105	-0.00250603	1	-0.000156666	14	-1.47632e-07
2	0	0	1	0	7.6357	0.0616542	0.0618535	-0.00239295	1	-0.00015674	14	-1.48012e-07
2	0	0	1	0	7.6657	0.0646552	0.0648814	-0.00227989	1	-0.00015681	14	-1.47922e-07
2	0	0	1	0	7.6957	0.0676562	0.0679071	-0.0021529	1	-0.000156876	14	-1.46197e-07
2	0	0	1	0	7.7257	0.0706572	0.0708543	-0.00201482	1	-0.000156939	14	-1.42759e-07
2	0	0	1	0	7.7557	0.0736581	0.0738631	-0.00187064	1	-0.000156997	14	-1.38171e-07
2	0	0	1	0	7.7857	0.0766591	0.0768559	-0.00174129	1	-0.000157051	14	-1.33828e-07
2	0	0	1	0	7.8157	0.0796601	0.0798902	-0.00161706	1	-0.000157101	14	-1.29187e-07
2	0	0	1	0	7.8457	0.082661	0.0828788	-0.00145307	1	-0.000157146	14	-1.20429e-07
2	0	0	1	0	7.8757	0.085662	0.0859035	-0.00127708	1	-0.000157187	14	-1.09705e-07
2	0	0	1	0	7.9057	0.088663	0.0888942	-0.00111502	1	-0.000157224	14	-9.91185e-08
2	0	0	1	0	7.9357	0.091664	0.0919019	-0.000964756	1	-0.000157255	14	-8.86629e-08
2	0	0	1	0	7.9657	0.0946649	0.0949085	-0.000799444	1	-0.000157281	14	-7.58741e-08
2	0	0	1	0	7.9957	0.0976659	0.0978929	-0.000613406	1	-0.000157302	14	-6.00481e-08
2	0	0	1	0	8.0257	0.100667	0.100889	-0.000408865	1	-0.000157317	14	-4.12499e-08
2	0	0	1	0	8.0557	0.103668	0.103887	-0.000193052	1	-0.000157326	14	-2.00557e-08
2	0	0	1	0	8.0857	0.106669	0.10687	6.76749e-06	1	-0.000157329	14	7.23244e-10
2	1	0	1	0	8.1157	0.10967	0.10988	0.000224775	1	-0.000157326	14	2.46984e-08
2	1	0	1	0	8.1457	0.112671	0.112918	0.000469521	1	-0.000157315	14	5.30172e-08
2	1	0	1	0	8.1757	0.115672	0.115909	0.000727675	1	-0.000157297	14	8.43444e-08
2	1	0	1	0	8.2059	0.118673	0.118911	0.000989275	1	-0.000157272	14	1.17635e-07
2	1	0	1	0	8.2359	0.121674	0.121909	0.00127	1	-0.000157238	14	1.54824e-07
2	1	0	1	0	8.2659	0.124675	0.124909	0.00157668	1	-0.000157195	14	1.96942e-07
2	1	0	1	0	8.2959	0.127676	0.127932	0.00189465	1	-0.000157143	14	2.42386e-07
2	1	0	1	0	8.3259	0.130677	0.130879	0.00223869	1	-0.00015708	14	2.92997e-07
2	1	0	1	0	8.3559	0.133678	0.133909	0.00262708	1	-0.000157007	14	3.5179e-07
2	1	0	1	0	8.3859	0.136679	0.136886	0.00302177	1	-0.000156923	14	4.13638e-07
2	1	0	1	0	8.4159	0.139679	0.139898	0.00343084	1	-0.000156826	14	4.79967e-07
2	1	0	1	0	8.4459	0.14268	0.142925	0.00388691	1	-0.000156716	14	5.55536e-07
2	1	0	1	0	8.4759	0.145681	0.145922	0.00437706	1	-0.000156592	14	6.38709e-07
2	1	0	1	0	8.5059	0.148682	0.148903	0.0049091	1	-0.000156453	14	7.30979e-07
2	1	0	1	0	8.5359	0.151683	0.151931	0.00545801	1	-0.000156298	14	8.2924e-07
2	1	0	1	0	8.5659	0.154684	0.154878	0.0060325	1	-0.000156125	14	9.34302e-07
2	1	0	1	0	8.5959	0.157685	0.157924	0.00665217	1	-0.000155935	14	1.05054e-06
2	1	0	1	0	8.6259	0.160686	0.160898	0.00733621	1	-0.000155725	14	1.18038e-06
2	1	0	1	0	8.6559	0.163687	0.163911	0.00805411	1	-0.000155494	14	1.32015e-06
2	1	0	1	0	8.6859	0.166688	0.166906	0.00879566	1	-0.000155241	14	1.46805e-06
2	1	0	1	0	8.7159	0.169689	0.169917	0.00956533	1	-0.000154966	14	1.62531e-06
2	1	0	1	0	8.7459	0.17269	0.172914	0.0104235	1	-0.000154665	14	1.80236e-06
2	1	0	1	0	8.8061	0.178692	0.178967	0.0121685	1	-0.000153998	13	2.17777e-06
2	1	0	1	0	8.8361	0.181693	0.181917	0.0131555	1	-0.000153617	13	2.3932e-06
2	1	0	1	0	8.8661	0.184694	0.184918	0.0141784	1	-0.000153206	13	2.62184e-06
2	1	0	1	0	8.8961	0.187695	0.187952	0.0152318	1	-0.000152764	13	2.86284e-06
2	1	0	1	0	8.9261	0.190696	0.190972	0.0163192	1	-0.00015229	13	3.1165e-06
2	1	0	1	0	8.9561	0.193697	0.193935	0.0174283	1	-0.000151783	13	3.37995e-06
2	1	0	1	0	8.9861	0.196698	0.19694	0.0185341	1	-0.000151243	13	3.65011e-06
2	1	0	1	0	9.0161	0.199699	0.199908	0.0196633	1	-0.000150669	13	3.93085e-06
2	1	0	1	0	9.0461	0.2027	0.202968	0.0208232	1	-0.000150061	13	4.22645e-06
2	1	0	1	0	9.0761	0.205701	0.205974	0.0219634	1	-0.000149418	13	4.52388e-06
2	1	0	1	0	9.1061	0.208702	0.208912	0.0230749	1	-0.000148742	13	4.82062e-06
2	1	0	1	0	9.1361	0.211703	0.211947	0.0241934	1	-0.000148032	13	5.12772e-06
2	1	0	1	0	9.1661	0.214704	0.214936	0.0252689	1	-0.000147289	13	5.43118e-06
2	1	0	1	0	9.1961	0.217705	0.21795	0.026305	1	-0.000146514	13	5.73316e-06
2	1	0	1	0	9.2261	0.220706	0.220914	0.0272791	1	-0.000145709	13	6.02632e-06
2	1	0	1	0	9.2561	0.223707	0.223934	0.0282387	1	-0.000144875	13	6.32362e-06
2	1	0	1	0	9.2861	0.226708	0.22697	0.0291445	1	-0.000144013	13	6.61492e-06
2	1	0	1	0	9.3161	0.229709	0.229938	0.0299256	1	-0.000143126	13	6.88104e-06
2	1	0	1	0	9.3461	0.23271	0.232975	0.0306238	1	-0.000142217	13	7.13458e-06
2	1	0	1	0	9.3761	0.235711	0.23593	0.031279	1	-0.000141287	13	7.37965e-06
2	1	0	1	0	9.4061	0.238712	0.238956	0.0318642	1	-0.000140339	13	7.61414e-06
2	1	0	1	0	9.4363	0.241713	0.242012	0.032331	1	-0.000139369	13	7.8245e-06
2	1	0	1	0	9.4663	0.244713	0.244951	0.0327217	1	-0.000138392	13	8.01521e-06
2	1	0	1	0	9.4963	0.247714	0.24794	0.0330119	1	-0.000137405	13	8.18496e-06
2	1	0	1	0	9.5263	0.250715	0.250914	0.0332645	1	-0.00013641	13	8.34654e-06
2	1	0	1	0	9.5563	0.253716	0.25397	0.0334328	1	-0.000135409	13	8.49093e-06
2	1	0	1	0	9.5863	0.256717	0.256961	0.0335073	1	-0.000134404	13	8.61007e-06
2	1	0	1	0	9.6163	0.259718	0.259933	0.0334924	1	-0.000133399	13	8.7058e-06
2	1	0	1	0	9.6463	0.262719	0.262959	0.0334354	1	-0.000132394	13	8.79215e-06
2	1	0	1	0	9.6763	0.26572	0.265955	0.0333354	1	-0.000131391	13	8.86571e-06
2	1	0	1	0	9.7063	0.268721	0.268981	0.0331745	1	-0.000130393	13	8.9233e-06
2	1	0	1	0	9.7363	0.271722	0.271946	0.0329608	1	-0.0001294	13	8.96356e-06
2	1	0	1	0	9.7663	0.274723	0.274964	0.0327053	1	-0.000128414	13	8.9928e-06
2	1	0	1	0	9.7963	0.277724	0.277973	0.0324402	1	-0.000127436	13	9.01751e-06
2	1	0	1	0	9.8263	0.280725	0.280971	0.0321249	1	-0.000126467	13	9.02618e-06
2	1	0	1	0	9.8563	0.283726	0.283982	0.0317858	1	-0.000125508	13	9.0266e-06
2	1	0	1	0	9.8863	0.286727	0.286932	0.0314427	1	-0.000124559	13	9.02192e-06
2	1	0	1	0	9.9163	0.289728	0.289979	0.031066	1	-0.00012362	13	9.00848e-06
2	1	0	1	0	9.9463	0.292729	0.293019	0.030691	1	-0.000122693	13	8.99304e-06
2	1	0	1	0	9.9763	0.29573	0.295967	0.030325	1	-0.000121777	13	8.97521e-06
2	1	0	1	0	10.0063	0.298731	0.298971	0.0299448	1	-0.000120873	13	8.95261e-06
2	1	0	1	0	10.0364	0.301723	0.302011	0.029546	1	-0.000119977	13	8.92322e-06
2	1	0	1	0	10.0665	0.304733	0.305014	0.0291645	1	-0.000119093	13	8.89558e-06
2	1	0	1	0	10.0965	0.307734	0.307986	0.0287767	1	-0.000118223	13	8.86281e-06
2	1	0	1	0	10.1265	0.310735	0.310977	0.0283994	1	-0.000117365	13	8.83157e-06
2	1	0	1	0	10.1565	0.313736	0.313973	0.0280458	1	-0.000116517	13	8.80562e-06
2	1	0	1	0	10.1865	0.316737	0.316975	0.0276973	1	-0.000115681	13	8.77935e-06
2	1	0	1	0	10.2165	0.319738	0.319963	0.0273302	1	-0.000114855	13	8.74466e-06
2	1	0	1	0	10.2465	0.322739	0.322985	0.0269753	1	-0.000114039	13	8.71262e-06
2	1	0	1	0	10.2765	0.32574	0.325998	0.0266617	1	-0.000113234	13	8.69167e-06
2	1	0	1	0	10.3065	0.328741	0.329019	0.0263482	1	-0.000112438	13	8.66906e-06
2	1	0	1	0	10.3365	0.331742	0.331947	0.0260311	1	-0.000111652	13	8.64097e-06
2	1	0	1	0	10.3665	0.334743	0.334997	0.0257082	1	-0.000110876	13	8.61215e-06
2	1	0	1	0	10.3965	0.337744	0.337981	0.0254078	1	-0.000110108	13	8.58734e-06
2	1	0	1	0	10.4265	0.340745	0.341031	0.025124	1	-0.00010935	13	8.56807e-06
2	1	0	1	0	10.4565	0.343746	0.343992	0.0248561	1	-0.000108599	13	8.5503e-06
2	1	0	1	0	10.4865	0.346747	0.346986	0.0245928	1	-0.000107857	13	8.53336e-06
2	1	0	1	0	10.5165	0.349748	0.349967	0.0243147	1	-0.000107123	13	8.50934e-06
2	1	0	1	0	10.5465	0.352748	0.352998	0.0240533	1	-0.000106397	13	8.49078e-06
2	1	0	1	0	10.5765	0.355749	0.355963	0.0238123	1	-0.000105678	13	8.4763e-06
2	1	0	1	0	10.6065	0.35875	0.358992	0.0235808	1	-0.000104967	13	8.46533e-06
2	1	0	1	0	10.6365	0.361751	0.36202	0.0233416	1	-0.000104262	13	8.45012e-06
2	1	0	1	0	10.6667	0.364752	0.365013	0.0231033	1	-0.000103561	13	8.43303e-06
2	1	0	1	0	10.6967	0.367753	0.368014	0.0228882	1	-0.00010287	13	8.42319e-06
2	1	0	1	0	10.7267	0.370754	0.371026	0.0226832	1	-0.000102186	13	8.41606e-06
2	1	0	1	0	10.7567	0.373755	0.373976	0.0224704	1	-0.000101508	13	8.40339e-06
2	1	0	1	0	10.7867	0.376756	0.376987	0.0222856	1	-0.000100836	13	8.40138e-06
2	1	0	1	0	10.8167	0.379757	0.380021	0.0220888	1	-0.00010017	13	8.39421e-06
2	1	0	1	0	10.8467	0.382758	0.383011	0.021892	1	-9.95091e-05	13	8.38488e-06
2	1	0	1	0	10.8767	0.385759	0.385979	0.0217102	1	-9.88542e-05	13	8.3797e-06
2	1	0	1	0	10.9067	0.38876	0.389038	0.0215367	1	-9.8205e-05	13	8.37858e-06
2	1	0	1	0	10.9367	0.391761	0.391975	0.0213653	1	-9.75609e-05	13	8.37469e-06
2	1	0	1	0	10.9667	0.394762	0.395024	0.0212031	1	-9.69219e-05	13	8.37573e-06
2	1	0	1	0	10.9967	0.397763	0.398006	0.0210325	1	-9.62878e-05	13	8.37104e-06
2	1	0	1	0	11.0267	0.400764	0.400946	0.0208764	1	-9.56587e-05	13	8.37032e-06
2	1	0	1	0	11.0567	0.403765	0.403976	0.0207297	1	-9.50342e-05	13	8.3743e-06
2	1	0	1	0	11.0867	0.406766	0.407011	0.0205792	1	-9.44141e-05	13	8.37597e-06
2	1	0	1	0	11.1167	0.409767	0.409992	0.0204298	1	-9.37983e-05	13	8.37606e-06
2	1	0	1	0	11.1467	0.412768	0.413002	0.0202743	1	-9.31871e-05	13	8.37331e-06
2	1	0	1	0	11.1767	0.415769	0.415984	0.0201412	1	-9.25799e-05	13	8.37842e-06
2	1	0	1	0	11.2067	0.41877	0.419038	0.0200239	1	-9.19768e-05	13	8.39077e-06
2	1	0	1	0	11.2367	0.421771	0.42204	0.0199	1	-9.13775e-05	13	8.39859e-06
2	1	0	1	0	11.2668	0.424772	0.424988	0.0197373	1	-9.07803e-05	13	8.38812e-06
2	1	0	1	0	11.2969	0.427773	0.428006	0.0196235	1	-9.0187e-05	13	8.39897e-06
2	1	0	1	0	11.3269	0.430774	0.431033	0.019511	1	-8.95992e-05	13	8.40987e-06
2	1	0	1	0	11.3569	0.433775	0.434049	0.0194049	1	-8.90146e-05	13	8.42266e-06
2	1	0	1	0	11.3869	0.436776	0.437053	0.0192987	1	-8.84336e-05	13	8.43454e-06
2	1	0	1	0	11.4169	0.439777	0.44007	0.0191742	1	-8.7856e-05	13	8.43797e-06
2	1	0	1	0	11.4469	0.442778	0.443016	0.0190759	1	-8.72817e-05	13	8.45094e-06
2	1	0	1	0	11.4769	0.445779	0.446043	0.0189672	1	-8.67103e-05	13	8.46017e-06
2	1	0	1	0	11.5069	0.44878	0.449038	0.0188809	1	-8.6142e-05	13	8.47822e-06
2	1	0	1	0	11.5369	0.451781	0.452033	0.0187798	1	-8.55768e-05	13	8.48907e-06
2	1	0	1	0	11.5669	0.454782	0.455027	0.0186788	1	-8.50144e-05	13	8.49937e-06
2	1	0	1	0	11.5969	0.457783	0.458032	0.0185832	1	-8.44547e-05	13	8.51171e-06
2	1	0	1	0	11.6269	0.460783	0.461065	0.0184909	1	-8.38978e-05	13	8.52553e-06
2	1	0	1	0	11.6569	0.463784	0.464019	0.0184113	1	-8.33435e-05	13	8.54318e-06
2	1	0	1	0	11.6869	0.466785	0.467021	0.0183358	1	-8.27918e-05	13	8.5632e-06
2	1	0	1	0	11.7169	0.469786	0.470054	0.0182497	1	-8.22425e-05	13	8.57832e-06
2	1	0	1	0	11.7469	0.472787	0.47305	0.018166	1	-8.16955e-05	13	8.59342e-06
2	1	0	1	0	11.7769	0.475788	0.476075	0.0180816	1	-8.11509e-05	13	8.60821e-06
2	1	0	1	0	11.8069	0.478789	0.47907	0.0180248	1	-8.06087e-05	13	8.63513e-06
2	1	0	1	0	11.8369	0.48179	0.482069	0.0179505	1	-8.00685e-05	13	8.65339e-06
2	1	0	1	0	11.8669	0.484791	0.485073	0.0178836	1	-7.95303e-05	13	8.67484e-06
2	1	0	1	0	11.8971	0.487792	0.488069	0.0177984	1	-7.89907e-05	13	8.68683e-06
2	1	0	1	0	11.9271	0.490793	0.491058	0.0177392	1	-7.84569e-05	13	8.71098e-06
2	1	0	1	0	11.9571	0.493794	0.494044	0.017688	1	-7.79248e-05	13	8.73866e-06
2	1	0	1	0	11.9871	0.496795	0.497089	0.0176365	1	-7.73944e-05	13	8.76689e-06
2	1	0	1	0	12.0151	0.499596	0.499841	0.0175663	1	-7.6901e-05	13	8.78038e-06
2	1	0	0	1	12.0198	0.499946	0.500175	0.0169007	1	-7.68186e-05	13	8.45331e-06
2	1	0	1	1	12.0453	0.497395	0.497628	0.0150156	1	-7.64194e-05	13	7.47216e-06
2	1	0	1	1	12.0753	0.494394	0.494558	0.0140144	1	-7.59855e-05	13	6.93095e-06
2	1	0	1	1	12.1053	0.491393	0.491547	0.0132886	1	-7.55772e-05	13	6.53198e-06
2	1	0	1	1	12.1353	0.488392	0.488591	0.0126764	1	-7.51889e-05	13	6.19358e-06
2	1	0	1	1	12.1655	0.485391	0.485612	0.0121163	1	-7.48154e-05	13	5.88383e-06
2	1	0	1	1	12.1955	0.48239	0.482583	0.0116134	1	-7.446e-05	13	5.60444e-06
2	1	0	1	1	12.2255	0.479389	0.479585	0.0111756	1	-7.41187e-05	13	5.35966e-06
2	1	0	1	1	12.2555	0.476389	0.476523	0.0107766	1	-7.37902e-05	13	5.13529e-06
2	1	0	1	1	12.2855	0.473388	0.473614	0.0103908	1	-7.34737e-05	13	4.92124e-06
2	1	0	1	1	12.3155	0.470387	0.470556	0.0100135	1	-7.31685e-05	13	4.71192e-06
2	1	0	1	1	12.3455	0.467386	0.467597	0.00966095	1	-7.28741e-05	13	4.51743e-06
2	1	0	1	1	12.3755	0.464385	0.464567	0.00933102	1	-7.25898e-05	13	4.33488e-06
2	1	0	1	1	12.4055	0.461384	0.461563	0.00903006	1	-7.2315e-05	13	4.16794e-06
2	1	0	1	1	12.4355	0.458383	0.458577	0.00872053	1	-7.20495e-05	13	3.99903e-06
2	1	0	1	1	12.4655	0.455382	0.455541	0.00842143	1	-7.17929e-05	13	3.83631e-06
2	1	0	1	1	12.4955	0.452381	0.452589	0.00814607	1	-7.15448e-05	13	3.68682e-06
2	1	0	1	1	12.5255	0.44938	0.44956	0.00789561	1	-7.13048e-05	13	3.54955e-06
2	1	0	1	1	12.5555	0.446379	0.446589	0.0076383	1	-7.10727e-05	13	3.41118e-06
2	1	0	1	1	12.5855	0.443378	0.443542	0.0073834	1	-7.08483e-05	13	3.27485e-06
2	1	0	1	1	12.6155	0.440377	0.440553	0.00712433	1	-7.06314e-05	13	3.13864e-06
2	1	0	1	1	12.6455	0.437376	0.437569	0.00690147	1	-7.04216e-05	13	3.01987e-06
2	1	0	1	1	12.6755	0.434375	0.434532	0.00666695	1	-7.02188e-05	13	2.897e-06
2	1	0	1	1	12.7055	0.431374	0.431578	0.00644791	1	-7.00228e-05	13	2.78278e-06
2	1	0	1	1	12.7355	0.428373	0.428539	0.00622529	1	-6.98335e-05	13	2.66778e-06
2	1	0	1	1	12.7655	0.425372	0.425536	0.00600621	1	-6.96506e-05	13	2.55586e-06
2	1	0	1	1	12.7957	0.422371	0.422574	0.00579506	1	-6.94726e-05	13	2.44885e-06
2	1	0	1	1	12.8257	0.41937	0.419554	0.00559595	1	-6.93022e-05	13	2.3478e-06
2	1	0	1	1	12.8557	0.416369	0.416529	0.00539394	1	-6.91381e-05	13	2.24673e-06
2	1	0	1	1	12.8857	0.413368	0.413527	0.00520035	1	-6.89798e-05	13	2.15049e-06
2	1	0	1	1	12.9157	0.410367	0.410544	0.00499861	1	-6.88273e-05	13	2.05215e-06
2	1	0	1	1	12.9457	0.407366	0.407541	0.00480218	1	-6.86806e-05	13	1.95709e-06
2	1	0	1	1	12.9757	0.404365	0.404523	0.00462185	1	-6.85398e-05	13	1.86964e-06
2	1	0	1	1	13.0207	0.399864	0.399996	0.00435958	1	-6.83379e-05	13	1.74381e-06
2	1	0	1	1	13.0657	0.395362	0.395548	0.00405854	1	-6.81459e-05	14	1.60535e-06
2	1	0	1	1	13.0957	0.392361	0.392556	0.00386476	1	-6.80268e-05	14	1.51713e-06
2	1	0	1	1	13.1257	0.38936	0.3895	0.00369877	1	-6.79133e-05	14	1.44067e-06
2	1	0	1	1	13.1557	0.386359	0.386508	0.00354216	1	-6.78051e-05	14	1.36907e-06
2	1	0	1	1	13.1857	0.383358	0.383564	0.00334563	1	-6.77022e-05	14	1.28326e-06
2	1	0	1	1	13.2157	0.380357	0.380555	0.00315612	1	-6.76047e-05	14	1.20108e-06
2	1	0	1	1	13.2457	0.377356	0.377513	0.00297848	1	-6.75127e-05	14	1.12442e-06
2	1	0	1	1	13.2757	0.374355	0.374494	0.00280398	1	-6.7426e-05	14	1.05007e-06
2	1	0	1	1	13.3057	0.371354	0.371545	0.00263254	1	-6.73445e-05	14	9.78109e-07
2	1	0	1	1	13.3357	0.368354	0.368543	0.00244268	1	-6.72685e-05	14	9.00233e-07
2	1	0	1	1	13.3657	0.365353	0.365475	0.0022525	1	-6.7198e-05	14	8.2323e-07
2	1	0	1	1	13.3959	0.362352	0.36253	0.00206547	1	-6.71325e-05	14	7.48795e-07
2	1	0	1	1	13.4259	0.359351	0.359545	0.00189403	1	-6.70729e-05	14	6.80989e-07
2	1	0	1	1	13.4559	0.35635	0.356473	0.00171291	1	-6.7019e-05	14	6.10605e-07
2	1	0	1	1	13.4859	0.353349	0.353486	0.00151759	1	-6.69709e-05	14	5.36447e-07
2	1	0	1	1	13.5159	0.350348	0.350525	0.00130566	1	-6.69287e-05	14	4.57667e-07
2	1	0	1	1	13.5459	0.347347	0.347513	0.00111223	1	-6.68924e-05	14	3.86513e-07
2	1	0	1	1	13.5759	0.344346	0.344512	0.000902922	1	-6.68621e-05	14	3.11067e-07
2	1	0	1	1	13.6059	0.341345	0.341521	0.000693748	1	-6.68382e-05	14	2.3693e-07
2	1	0	1	1	13.6359	0.338344	0.338473	0.000479815	1	-6.68208e-05	14	1.62405e-07
2	1	0	1	1	13.6659	0.335343	0.335491	0.000252618	1	-6.68099e-05	14	8.47512e-08
2	1	0	1	1	13.6959	0.332342	0.332467	2.11135e-05	1	-6.68057e-05	14	7.01953e-09
2	0	0	1	1	13.7259	0.329341	0.329516	-0.000211318	1	-6.68086e-05	14	-6.96326e-08
2	0	0	1	1	13.7559	0.32634	0.326477	-0.000454086	1	-6.68189e-05	14	-1.48249e-07
2	0	0	1	1	13.7859	0.323339	0.323525	-0.00071996	1	-6.68368e-05	14	-2.32925e-07
2	0	0	1	1	13.8159	0.320338	0.320502	-0.000997104	1	-6.68624e-05	14	-3.19574e-07
2	0	0	1	1	13.8459	0.317337	0.317543	-0.00128454	1	-6.68962e-05	14	-4.07898e-07
2	0	0	1	1	13.8759	0.314336	0.314497	-0.00156429	1	-6.69388e-05	14	-4.91966e-07
2	0	0	1	1	13.9059	0.311335	0.311525	-0.00185761	1	-6.69904e-05	14	-5.78692e-07
2	0	0	1	1	13.9359	0.308334	0.308487	-0.00217419	1	-6.70512e-05	14	-6.7071e-07
2	0	0	1	1	13.9659	0.305333	0.305484	-0.00253375	1	-6.7122e-05	14	-7.74019e-07
2	0	0	1	1	13.9959	0.302332	0.302488	-0.00289424	1	-6.72033e-05	14	-8.75472e-07
2	0	0	1	1	14.0261	0.299331	0.2995	-0.00325938	1	-6.72959e-05	14	-9.76184e-07
2	0	0	1	1	14.0561	0.29633	0.296528	-0.0036345	1	-6.73997e-05	14	-1.07773e-06
2	0	0	1	1	14.0861	0.293329	0.293502	-0.00408033	1	-6.75158e-05	14	-1.19759e-06
2	0	0	1	1	14.1161	0.290328	0.290534	-0.00455301	1	-6.76452e-05	14	-1.32281e-06
2	0	0	1	1	14.1461	0.287327	0.287513	-0.0050325	1	-6.77889e-05	14	-1.44691e-06
2	0	0	1	1	14.1761	0.284326	0.284547	-0.00553032	1	-6.79473e-05	14	-1.57363e-06
2	0	0	1	1	14.2061	0.281325	0.281523	-0.00606217	1	-6.81212e-05	14	-1.70664e-06
2	0	0	1	1	14.2361	0.278324	0.278531	-0.00665097	1	-6.83121e-05	14	-1.8525e-06
2	0	0	1	1	14.2661	0.275323	0.27551	-0.00729085	1	-6.85213e-05	14	-2.0087e-06
2	0	0	1	1	14.2961	0.272322	0.27246	-0.00794764	1	-6.87495e-05	14	-2.16541e-06
2	0	0	1	1	14.3261	0.269321	0.269508	-0.00862616	1	-6.89977e-05	14	-2.32482e-06
2	0	0	1	1	14.3561	0.26632	0.26655	-0.0093551	1	-6.92675e-05	14	-2.49361e-06
2	0	0	1	1	14.3861	0.26332	0.263528	-0.0101486	1	-6.95604e-05	14	-2.67443e-06
2	0	0	1	1	14.4311	0.258818	0.258953	-0.0113966	1	-7.00442e-05	14	-2.95118e-06
2	0	0	1	1	14.4761	0.254317	0.254499	-0.0127361	1	-7.05756e-05	13	-3.24132e-06
2	0	0	1	1	14.5061	0.251316	0.25146	-0.0137142	1	-7.09732e-05	13	-3.44856e-06
2	0	0	1	1	14.5361	0.248315	0.248465	-0.01473	1	-7.14009e-05	13	-3.65988e-06
2	0	0	1	1	14.5661	0.245314	0.245486	-0.0157718	1	-7.18595e-05	13	-3.87175e-06
2	0	0	1	1	14.5961	0.242313	0.242493	-0.0168777	1	-7.23497e-05	13	-4.09273e-06
2	0	0	1	1	14.6262	0.23932	0.239459	-0.0179666	1	-7.2875e-05	13	-4.30227e-06
2	0	0	1	1	14.6563	0.236311	0.236461	-0.0191299	1	-7.34343e-05	13	-4.52347e-06
2	0	0	1	1	14.6863	0.23331	0.233478	-0.0203145	1	-7.40269e-05	13	-4.74298e-06
2	0	0	1	1	14.7163	0.230309	0.230499	-0.0214928	1	-7.46544e-05	13	-4.95407e-06
2	0	0	1	1	14.7463	0.227308	0.227483	-0.0227127	1	-7.53181e-05	13	-5.16675e-06
2	0	0	1	1	14.7763	0.224307	0.224468	-0.0239316	1	-7.60183e-05	13	-5.37187e-06
2	0	0	1	1	14.8063	0.221306	0.22145	-0.0251047	1	-7.67545e-05	13	-5.55943e-06
2	0	0	1	1	14.8363	0.218305	0.218484	-0.0262585	1	-7.75257e-05	13	-5.73706e-06
2	0	0	1	1	14.8663	0.215304	0.215491	-0.0274213	1	-7.8332e-05	13	-5.90906e-06
2	0	0	1	1	14.8963	0.212303	0.212474	-0.0285676	1	-7.91728e-05	13	-6.06988e-06
2	0	0	1	1	14.9263	0.209302	0.209456	-0.029636	1	-8.00467e-05	13	-6.20744e-06
2	0	0	1	1	14.9563	0.206301	0.206494	-0.0306282	1	-8.09519e-05	13	-6.32454e-06
2	0	0	1	1	14.9863	0.2033	0.203462	-0.0315986	1	-8.18866e-05	13	-6.42911e-06
2	0	0	1	1	15.0163	0.200299	0.200471	-0.0325272	1	-8.28495e-05	13	-6.52076e-06
2	0	0	1	1	15.0463	0.197298	0.197449	-0.0333682	1	-8.38387e-05	13	-6.58853e-06
2	0	0	1	1	15.0763	0.194297	0.194477	-0.0340938	1	-8.48515e-05	13	-6.63046e-06
2	0	0	1	1	15.1063	0.191296	0.191472	-0.0347717	1	-8.58852e-05	13	-6.65782e-06
2	0	0	1	1	15.1363	0.188295	0.188479	-0.0353521	1	-8.69383e-05	13	-6.66314e-06
2	0	0	1	1	15.1663	0.185294	0.185443	-0.0359013	1	-8.80084e-05	13	-6.65766e-06
2	0	0	1	1	15.1963	0.182293	0.182485	-0.0363442	1	-8.90929e-05	13	-6.63228e-06
2	0	0	1	1	15.2263	0.179292	0.179431	-0.0366775	1	-9.01886e-05	13	-6.58108e-06
2	0	0	1	1	15.2565	0.176291	0.176411	-0.0369286	1	-9.13005e-05	13	-6.51463e-06
2	0	0	1	1	15.2865	0.17329	0.173448	-0.037147	1	-9.24127e-05	13	-6.44308e-06
2	0	0	1	1	15.3165	0.170289	0.170415	-0.0372832	1	-9.35298e-05	13	-6.35362e-06
2	0	0	1	1	15.3465	0.167288	0.167483	-0.0373292	1	-9.46494e-05	13	-6.25199e-06
2	0	0	1	1	15.3765	0.164287	0.164493	-0.0373262	1	-9.57699e-05	13	-6.1399e-06
2	0	0	1	1	15.4065	0.161286	0.161433	-0.0372785	1	-9.68898e-05	13	-6.01799e-06
2	0	0	1	1	15.4365	0.158286	0.158417	-0.037172	1	-9.80075e-05	13	-5.88868e-06
2	0	0	1	1	15.4665	0.155285	0.155463	-0.0370137	1	-9.91212e-05	13	-5.75425e-06
2	0	0	1	1	15.4965	0.152284	0.152428	-0.0368452	1	-0.00010023	13	-5.61625e-06
2	0	0	1	1	15.5265	0.149283	0.149404	-0.0366559	1	-0.000101333	13	-5.47653e-06
2	0	0	1	1	15.5565	0.146282	0.146441	-0.0364089	1	-0.000102429	13	-5.33174e-06
2	0	0	1	1	15.5865	0.143281	0.143441	-0.0361231	1	-0.000103518	13	-5.18155e-06
2	0	0	1	1	15.6165	0.14028	0.140452	-0.0358616	1	-0.000104599	13	-5.03683e-06
2	0	0	1	1	15.6465	0.137279	0.137418	-0.035586	1	-0.000105671	13	-4.89017e-06
2	0	0	1	1	15.6765	0.134278	0.13441	-0.0352959	1	-0.000106735	13	-4.74412e-06
2	0	0	1	1	15.7065	0.131277	0.131385	-0.0349793	1	-0.000107789	13	-4.59576e-06
2	0	0	1	1	15.7365	0.128276	0.128411	-0.0346646	1	-0.000108834	13	-4.45133e-06
2	0	0	1	1	15.7665	0.125275	0.125452	-0.0343485	1	-0.00010987	13	-4.30909e-06
2	0	0	1	1	15.7965	0.122274	0.122389	-0.0340504	1	-0.000110897	13	-4.16741e-06
2	0	0	1	1	15.8265	0.119273	0.119422	-0.033737	1	-0.000111914	13	-4.02895e-06
2	0	0	1	1	15.8566	0.116274	0.116462	-0.0333782	1	-0.000112924	13	-3.88728e-06
2	0	0	1	1	15.8867	0.113271	0.113458	-0.033068	1	-0.000113925	13	-3.75181e-06
2	0	0	1	1	15.9167	0.11027	0.110444	-0.0327713	1	-0.000114913	13	-3.61938e-06
2	0	0	1	1	15.9467	0.107269	0.107426	-0.0324718	1	-0.000115892	13	-3.48832e-06
2	0	0	1	1	15.9767	0.104268	0.104467	-0.032148	1	-0.000116862	13	-3.35841e-06
2	0	0	1	1	16.0067	0.101267	0.101408	-0.0318564	1	-0.000117823	13	-3.23048e-06
2	0	0	1	1	16.0367	0.0982661	0.098434	-0.0315518	1	-0.000118775	13	-3.10577e-06
2	0	0	1	1	16.0667	0.0952651	0.0954337	-0.0312766	1	-0.000119718	13	-2.98484e-06
2	0	0	1	1	16.0967	0.0922642	0.0924398	-0.0309913	1	-0.000120653	13	-2.86483e-06
2	0	0	1	1	16.1267	0.0892632	0.089431	-0.0307114	1	-0.000121578	13	-2.74655e-06
2	0	0	1	1	16.1567	0.0862622	0.0864201	-0.0304273	1	-0.000122496	13	-2.62953e-06
2	0	0	1	1	16.1867	0.0832612	0.0834092	-0.030163	1	-0.000123406	13	-2.51587e-06
2	0	0	1	1	16.2167	0.0802603	0.0803899	-0.029911	1	-0.000124307	13	-2.40454e-06
2	0	0	1	1	16.2467	0.0772593	0.0774119	-0.0296519	1	-0.000125201	13	-2.29541e-06
2	0	0	1	1	16.2767	0.0742583	0.0743957	-0.0294125	1	-0.000126087	13	-2.18816e-06
2	0	0	1	1	16.3067	0.0712574	0.0713965	-0.0291557	1	-0.000126966	13	-2.08161e-06
2	0	0	1	1	16.3367	0.0682564	0.0684132	-0.028913	1	-0.000127838	13	-1.97803e-06
2	0	0	1	1	16.3667	0.0652554	0.0654405	-0.0286723	1	-0.000128702	13	-1.87633e-06
2	0	0	1	1	16.3967	0.0622544	0.0624137	-0.0284677	1	-0.00012956	13	-1.77677e-06
2	0	0	1	1	16.4267	0.0592535	0.0593656	-0.0282607	1	-0.000130411	13	-1.67772e-06
2	0	0	1	1	16.4567	0.0562525	0.0564375	-0.0280389	1	-0.000131256	13	-1.58244e-06
2	0	0	1	1	16.4869	0.0532515	0.0533693	-0.0278044	1	-0.0001321	13	-1.4839e-06
2	0	0	1	1	16.5169	0.0502506	0.0504019	-0.0276324	1	-0.000132932	13	-1.39273e-06
2	0	0	1	1	16.5469	0.0472496	0.0473932	-0.0274466	1	-0.000133759	13	-1.30078e-06
2	0	0	1	1	16.5769	0.0442486	0.0444099	-0.0272665	1	-0.00013458	13	-1.2109e-06
2	0	0	1	1	16.6069	0.0412476	0.0413915	-0.0270864	1	-0.000135396	13	-1.12115e-06
2	0	0	1	1	16.6369	0.0382467	0.0384061	-0.0269054	1	-0.000136206	13	-1.03333e-06
2	0	0	1	1	16.6669	0.0352457	0.0354462	-0.0267476	1	-0.000137012	13	-9.48101e-07
2	0	0	1	1	16.6969	0.0322447	0.0323663	-0.02661	1	-0.000137813	13	-8.61269e-07
2	0	0	1	1	16.7269	0.0292438	0.0293491	-0.0264539	1	-0.000138609	13	-7.76396e-07
2	0	0	1	1	16.7569	0.0262428	0.0264071	-0.0262871	1	-0.0001394	13	-6.94168e-07
2	0	0	1	1	16.7869	0.0232418	0.0234016	-0.0261443	1	-0.000140187	13	-6.11818e-07
2	0	0	1	1	16.8169	0.0202408	0.0203673	-0.0260152	1	-0.00014097	13	-5.29861e-07
2	0	0	1	1	16.8469	0.0172399	0.0174074	-0.0258942	1	-0.000141749	13	-4.5075e-07
2	0	0	1	1	16.8769	0.0142389	0.0143859	-0.025753	1	-0.000142524	13	-3.70479e-07
2	0	0	1	1	16.9069	0.0112379	0.0113888	-0.0256308	1	-0.000143296	13	-2.91903e-07
2	0	0	1	1	16.9369	0.00823695	0.00837682	-0.0255218	1	-0.000144064	13	-2.13792e-07
2	0	0	1	1	16.9669	0.00523598	0.00537124	-0.0254054	1	-0.000144828	13	-1.36458e-07
2	0	0	1	1	16.9969	0.00223501	0.0023646	-0.0252871	1	-0.000145589	13	-5.97938e-08
2	0	0	0	1	17.019	-1.57199e-05	0.000227909	-0.0252448	1	-0.000146148	13	-5.75353e-09