File: Data/2025-02-10 exp 7 CV 50mvs_C05.mpt
EC-Lab ASCII FILE
Nb header lines : 59

Cyclic Voltammetry

Run on channel : 5 (SN 39658)
User :
CE vs. WE compliance from -10 V to 10 V
Electrode connection : standard
Potential control : Ewe
Ewe ctrl range : min = -2.50 V, max = 2.50 V
Safety Limits :
	Do not start on E overload
Acquisition started on : 02/10/2025 12:57:10.264
Loaded Setting File :  NONE
Saved on :
	File : 2025-02-10 exp 7 CV 50mvs_C05.mpr
	Directory : C:\Users\thefo\OneDrive\Documents\EC-Lab\Data\CHEM 451\
	Host : 172.24.113.132
Device : VSP (SN 1910)
Address : USB
EC-Lab for windows v11.46 (software)
Internet server v11.40 (firmware)
Command interpretor v11.40 (firmware)
Electrode material : Au/Pd
Initial state :
Electrolyte : NaCl (0.2M)
Comments : Fe(CN)63-/Fe(CN)64- 5.10-3 M
Current amplifier : VSPB-4A
Reference electrode : SCE Saturated Calomel Electrode (0.241 V)
Electrode surface area : 0.001 cm²
Characteristic mass : 0.001 g
Equivalent Weight : 0.000 g/eq.
Density : 0.000 g/cm3
Volume (V) : 0.001 cm³
Cycle Definition : Charge/Discharge alternance
Ei (V)              0.000
vs.                 Eoc
dE/dt               50.000
dE/dt unit          mV/s
E1 (V)              -0.200
vs.                 Ref
Step percent        50
N                   10
E range min (V)     -2.500
E range max (V)     2.500
I Range             Auto
I Range min         Unset
I Range max         Unset
I Range init        Unset
Bandwidth           4
E2 (V)              0.500
vs.                 Ref
nc cycles           0
Reverse Scan        1
Ef (V)              0.000
vs.                 Ref

mode	ox/red	error	control changes	counter inc.	time/s	control/V	Ewe/V	<I>/mA	cycle number	(Q-Qo)/C	I Range	P/W
2	0	0	1	0	0.000000000000000E+000	0.29408	0.294296	-0.000315118	1	0.0000000E+000	14	-9.27377e-08
2	0	0	0	0	0.0512	0.291529	0.291698	-0.00146757	1	-5.19497e-08	14	-4.28088e-07
2	0	0	0	0	0.1112	0.288528	0.2887	-0.00225685	1	-1.6514e-07	14	-6.51554e-07
2	0	0	0	0	0.1712	0.285527	0.285745	-0.00290966	1	-3.20624e-07	14	-8.31422e-07
2	0	0	0	0	0.2312	0.282526	0.282728	-0.00349577	1	-5.13015e-07	14	-9.88354e-07
2	0	0	0	0	0.2912	0.279525	0.279724	-0.00407653	1	-7.40763e-07	14	-1.1403e-06
2	0	0	0	0	0.3512	0.276524	0.27671	-0.00466191	1	-1.00339e-06	14	-1.29e-06
2	0	0	0	0	0.4112	0.273523	0.273675	-0.0052464	1	-1.30104e-06	14	-1.43581e-06
2	0	0	0	0	0.4712	0.270522	0.270682	-0.00582806	1	-1.63388e-06	14	-1.57755e-06
2	0	0	0	0	0.5312	0.267521	0.267657	-0.00645361	1	-2.00273e-06	14	-1.72735e-06
2	0	0	0	0	0.5912	0.26452	0.264729	-0.00709976	1	-2.4095e-06	14	-1.87951e-06
2	0	0	1	0	0.6514	0.261519	0.261728	-0.00775651	1	-2.85682e-06	14	-2.0301e-06
2	0	0	1	0	0.7114	0.258518	0.258684	-0.00843769	1	-3.34329e-06	14	-2.18269e-06
2	0	0	1	0	0.7714	0.255517	0.255732	-0.00915751	1	-3.8713e-06	14	-2.34187e-06
2	0	0	1	0	0.8314	0.252516	0.252684	-0.00990797	1	-4.44363e-06	14	-2.50359e-06
2	0	0	1	0	0.8914	0.249515	0.249679	-0.0106905	1	-5.06215e-06	14	-2.66918e-06
2	0	0	1	0	0.9814	0.245014	0.245188	-0.0117666	1	-6.07184e-06	13	-2.88501e-06
2	0	0	1	0	1.0414	0.242013	0.242218	-0.0126273	1	-6.8106e-06	13	-3.05856e-06
2	0	0	1	0	1.1014	0.239012	0.239211	-0.0135169	1	-7.60115e-06	13	-3.2334e-06
2	0	0	1	0	1.1614	0.236011	0.236184	-0.0143908	1	-8.44446e-06	13	-3.39886e-06
2	0	0	1	0	1.2214	0.23301	0.233228	-0.0152737	1	-9.34122e-06	13	-3.56225e-06
2	0	0	0	0	1.2816	0.230009	0.230238	-0.0161656	1	-1.02934e-05	13	-3.72193e-06
2	0	0	0	0	1.3416	0.227008	0.227194	-0.0170832	1	-1.12971e-05	13	-3.88121e-06
2	0	0	0	0	1.4016	0.224007	0.224203	-0.0179936	1	-1.23557e-05	13	-4.03421e-06
2	0	0	0	0	1.4616	0.221006	0.221185	-0.0188758	1	-1.34678e-05	13	-4.17505e-06
2	0	0	0	0	1.5216	0.218005	0.218182	-0.0197276	1	-1.46318e-05	13	-4.3042e-06
2	0	0	0	0	1.5816	0.215004	0.215177	-0.0205877	1	-1.58474e-05	13	-4.43001e-06
2	0	0	0	0	1.6416	0.212003	0.212174	-0.0213992	1	-1.71134e-05	13	-4.54036e-06
2	0	0	0	0	1.7016	0.209002	0.209214	-0.0221696	1	-1.84271e-05	13	-4.6382e-06
2	0	0	0	0	1.7616	0.206001	0.20621	-0.0228881	1	-1.97854e-05	13	-4.71973e-06
2	0	0	0	0	1.8216	0.203	0.203165	-0.0235715	1	-2.11859e-05	13	-4.78889e-06
2	0	0	1	0	1.8818	0.199999	0.200171	-0.0241984	1	-2.26304e-05	13	-4.84382e-06
2	0	0	1	0	1.9418	0.196998	0.197158	-0.0247747	1	-2.41063e-05	13	-4.88453e-06
2	0	0	1	0	2.0018	0.193997	0.194186	-0.025264	1	-2.56143e-05	13	-4.90592e-06
2	0	0	1	0	2.0618	0.190996	0.19121	-0.0257249	1	-2.71504e-05	13	-4.91886e-06
2	0	0	1	0	2.1218	0.187995	0.188185	-0.0261212	1	-2.87122e-05	13	-4.91561e-06
2	0	0	1	0	2.1818	0.184994	0.185161	-0.0264602	1	-3.0296e-05	13	-4.89939e-06
2	0	0	1	0	2.2418	0.181993	0.182209	-0.0267157	1	-3.18974e-05	13	-4.86784e-06
2	0	0	1	0	2.3018	0.178992	0.179164	-0.0269094	1	-3.35118e-05	13	-4.82118e-06
2	0	0	1	0	2.3618	0.175991	0.176201	-0.0270587	1	-3.51371e-05	13	-4.76778e-06
2	0	0	1	0	2.4218	0.17299	0.173134	-0.0271692	1	-3.67703e-05	13	-4.70392e-06
2	0	0	1	0	2.4819	0.169992	0.170164	-0.0271923	1	-3.84099e-05	13	-4.62717e-06
2	0	0	0	0	2.542	0.166988	0.167175	-0.0271594	1	-4.00494e-05	13	-4.54038e-06
2	0	0	0	0	2.602	0.163987	0.164168	-0.0271441	1	-4.1685e-05	13	-4.4562e-06
2	0	0	0	0	2.662	0.160986	0.161109	-0.0270574	1	-4.33172e-05	13	-4.35918e-06
2	0	0	0	0	2.722	0.157985	0.158159	-0.0269413	1	-4.49436e-05	13	-4.26102e-06
2	0	0	0	0	2.782	0.154984	0.155181	-0.0267692	1	-4.65617e-05	13	-4.15408e-06
2	0	0	0	0	2.842	0.151983	0.152148	-0.0266323	1	-4.81701e-05	13	-4.05206e-06
2	0	0	0	0	2.902	0.148983	0.149147	-0.0264383	1	-4.97681e-05	13	-3.94319e-06
2	0	0	0	0	2.962	0.145982	0.146185	-0.0262226	1	-5.13542e-05	13	-3.83334e-06
2	0	0	0	0	3.022	0.142981	0.143198	-0.0259807	1	-5.29271e-05	13	-3.72039e-06
2	0	0	0	0	3.082	0.13998	0.14018	-0.0257675	1	-5.44856e-05	13	-3.61209e-06
2	0	0	1	0	3.1422	0.136979	0.137139	-0.0255075	1	-5.60345e-05	13	-3.49809e-06
2	0	0	1	0	3.2022	0.133978	0.134154	-0.0252427	1	-5.75635e-05	13	-3.38641e-06
2	0	0	1	0	3.2622	0.130977	0.131156	-0.024977	1	-5.90767e-05	13	-3.27588e-06
2	0	0	1	0	3.3222	0.127976	0.128167	-0.0247115	1	-6.05733e-05	13	-3.16721e-06
2	0	0	1	0	3.3822	0.124975	0.125148	-0.0244333	1	-6.20538e-05	13	-3.05778e-06
2	0	0	1	0	3.4422	0.121974	0.122141	-0.0241568	1	-6.35182e-05	13	-2.95055e-06
2	0	0	1	0	3.5022	0.118973	0.119145	-0.0238965	1	-6.4966e-05	13	-2.84716e-06
2	0	0	1	0	3.5622	0.115972	0.116095	-0.0236074	1	-6.63971e-05	13	-2.74071e-06
2	0	0	1	0	3.6222	0.112971	0.113182	-0.0233408	1	-6.7812e-05	13	-2.64176e-06
2	0	0	1	0	3.6822	0.10997	0.110143	-0.0230678	1	-6.92109e-05	13	-2.54077e-06
2	0	0	0	0	3.7424	0.106969	0.107153	-0.0228057	1	-7.05985e-05	13	-2.44369e-06
2	0	0	0	0	3.8024	0.103968	0.10416	-0.0225565	1	-7.19659e-05	13	-2.34948e-06
2	0	0	0	0	3.8624	0.100967	0.101132	-0.0223041	1	-7.33181e-05	13	-2.25565e-06
2	0	0	0	0	3.9224	0.097966	0.0981507	-0.0220613	1	-7.46559e-05	13	-2.16533e-06
2	0	0	0	0	3.9824	0.094965	0.0951727	-0.0218345	1	-7.59793e-05	13	-2.07804e-06
2	0	0	0	0	4.0424	0.0919641	0.0921629	-0.0216045	1	-7.7289e-05	13	-1.99114e-06
2	0	0	0	0	4.1024	0.0889631	0.0891371	-0.0213905	1	-7.85853e-05	13	-1.90669e-06
2	0	0	0	0	4.1624	0.0859621	0.0861358	-0.0211822	1	-7.98689e-05	13	-1.82454e-06
2	0	0	0	0	4.2224	0.0829611	0.0831461	-0.0209874	1	-8.11404e-05	13	-1.74502e-06
2	0	0	0	0	4.2824	0.0799602	0.0801618	-0.0207951	1	-8.24e-05	13	-1.66697e-06
2	0	0	1	0	4.3426	0.0769592	0.0771403	-0.0205851	1	-8.3652e-05	13	-1.58794e-06
2	0	0	1	0	4.4026	0.0739582	0.0741506	-0.0204212	1	-8.48891e-05	13	-1.51424e-06
2	0	0	1	0	4.4626	0.0709573	0.07111	-0.0202503	1	-8.6116e-05	13	-1.44e-06
2	0	0	1	0	4.5226	0.0679563	0.0681309	-0.0200894	1	-8.73329e-05	13	-1.36871e-06
2	0	0	1	0	4.5826	0.0649553	0.0651826	-0.019919	1	-8.85399e-05	13	-1.29837e-06
2	0	0	1	0	4.6426	0.0619543	0.0621548	-0.0197848	1	-8.97378e-05	13	-1.22972e-06
2	0	0	1	0	4.7026	0.0589534	0.059129	-0.0196404	1	-9.09271e-05	13	-1.16132e-06
2	0	0	1	0	4.7626	0.0559524	0.0561118	-0.0195037	1	-9.2108e-05	13	-1.09439e-06
2	0	0	1	0	4.8226	0.0529514	0.0531211	-0.0193578	1	-9.32806e-05	13	-1.02831e-06
2	0	0	1	0	4.8826	0.0499505	0.0501685	-0.0192529	1	-9.44453e-05	13	-9.65888e-07
2	0	0	1	0	4.9427	0.0469473	0.0471211	-0.0191158	1	-9.56047e-05	13	-9.00759e-07
2	0	0	0	0	5.0028	0.0439485	0.0440905	-0.0189978	1	-9.6757e-05	13	-8.37622e-07
2	0	0	0	0	5.0628	0.0409475	0.0411136	-0.0188848	1	-9.79005e-05	13	-7.76423e-07
2	0	0	0	0	5.1228	0.0379466	0.0381579	-0.0187893	1	-9.90372e-05	13	-7.16961e-07
2	0	0	0	0	5.1828	0.0349456	0.0351406	-0.0186837	1	-0.000100168	13	-6.56557e-07
2	0	0	0	0	5.2428	0.0319446	0.0320968	-0.018588	1	-0.000101293	13	-5.96616e-07
2	0	0	0	0	5.3028	0.0289437	0.0291231	-0.0184874	1	-0.000102412	13	-5.38411e-07
2	0	0	0	0	5.3628	0.0259427	0.0261058	-0.0184113	1	-0.000103525	13	-4.80641e-07
2	0	0	0	0	5.4228	0.0229417	0.0231162	-0.018307	1	-0.000104633	13	-4.23188e-07
2	0	0	0	0	5.4828	0.0199407	0.020101	-0.0182255	1	-0.000105736	13	-3.66352e-07
2	0	0	0	0	5.5428	0.0169398	0.0171347	-0.0181486	1	-0.000106834	13	-3.10972e-07
2	0	0	1	0	5.603	0.0139388	0.0141068	-0.0180775	1	-0.00010793	13	-2.55017e-07
2	0	0	1	0	5.663	0.0109378	0.0111787	-0.0179986	1	-0.000109019	13	-2.01202e-07
2	0	0	1	0	5.723	0.00793685	0.00811265	-0.0179339	1	-0.000110103	13	-1.45491e-07
2	0	0	1	0	5.783	0.00493588	0.00510177	-0.0178557	1	-0.000111183	13	-9.10956e-08
2	0	0	1	0	5.843	0.00193491	0.00214393	-0.0177892	1	-0.000112259	13	-3.81388e-08
2	0	0	1	0	5.903	-0.00106606	-0.000863777	-0.0177253	1	-0.000113331	13	1.53107e-08
2	0	0	1	0	5.963	-0.00406703	-0.00394044	-0.0177046	1	-0.000114399	13	6.97641e-08
2	0	0	1	0	6.023	-0.00706801	-0.00697361	-0.0176194	1	-0.000115465	13	1.22871e-07
2	0	0	1	0	6.083	-0.010069	-0.0100004	-0.0175498	1	-0.000116527	13	1.75505e-07
2	0	0	1	0	6.143	-0.01307	-0.0129519	-0.0174982	1	-0.000117585	13	2.26635e-07
2	0	0	0	0	6.2032	-0.0160709	-0.0159564	-0.01746	1	-0.000118644	13	2.786e-07
2	0	0	0	0	6.2632	-0.0190719	-0.0189906	-0.0173925	1	-0.000119696	13	3.30295e-07
2	0	0	0	0	6.3232	-0.0220729	-0.022045	-0.0173554	1	-0.000120744	13	3.826e-07
2	0	0	0	0	6.3832	-0.0250738	-0.0249456	-0.0173117	1	-0.00012179	13	4.31851e-07
2	0	0	0	0	6.4432	-0.0280748	-0.027983	-0.0172593	1	-0.000122834	13	4.82966e-07
2	0	0	0	0	6.5032	-0.0310758	-0.0310013	-0.0172094	1	-0.000123874	13	5.33515e-07
2	0	0	0	0	6.5632	-0.0340768	-0.033992	-0.0171727	1	-0.000124912	13	5.83735e-07
2	0	0	0	0	6.6232	-0.0370777	-0.0369923	-0.0171384	1	-0.000125948	13	6.33991e-07
2	0	0	0	0	6.6832	-0.0400787	-0.0399533	-0.0170851	1	-0.000126981	13	6.82606e-07
2	0	0	0	0	6.7432	-0.0430797	-0.0429409	-0.0170602	1	-0.000128012	13	7.32581e-07
2	0	0	1	0	6.8033	-0.0460774	-0.045989	-0.0170149	1	-0.000129042	13	7.82496e-07
2	0	0	1	0	6.8634	-0.0490816	-0.0489807	-0.0169906	1	-0.000130071	13	8.32212e-07
2	0	0	1	0	6.9234	-0.0520826	-0.0519916	-0.0169446	1	-0.000131095	13	8.80977e-07
2	0	0	1	0	6.9834	-0.0550836	-0.0549844	-0.0169215	1	-0.000132118	13	9.30417e-07
2	0	0	1	0	7.0434	-0.0580845	-0.0580017	-0.0168947	1	-0.000133138	13	9.7992e-07
2	0	0	1	0	7.1034	-0.0610855	-0.0610041	-0.0168703	1	-0.000134157	13	1.02916e-06
2	0	0	1	0	7.1634	-0.0640865	-0.0640054	-0.0168301	1	-0.000135174	13	1.07722e-06
2	0	0	1	0	7.2234	-0.0670875	-0.0669813	-0.0168198	1	-0.00013619	13	1.12661e-06
2	0	0	1	0	7.2834	-0.0700884	-0.0699954	-0.0167846	1	-0.000137204	13	1.17484e-06
2	0	0	1	0	7.3434	-0.0730894	-0.0729564	-0.0167619	1	-0.000138217	13	1.22289e-06
2	0	0	1	0	7.4034	-0.0760904	-0.075979	-0.0167347	1	-0.000139227	13	1.27148e-06
2	0	0	0	0	7.4636	-0.0790914	-0.0789665	-0.0167189	1	-0.00014024	13	1.32023e-06
2	0	0	0	0	7.5236	-0.0820923	-0.0820188	-0.0166887	1	-0.000141249	13	1.36879e-06
2	0	0	0	0	7.5836	-0.0850933	-0.0849947	-0.0166687	1	-0.000142255	13	1.41675e-06
2	0	0	0	0	7.6436	-0.0880943	-0.0879705	-0.0166467	1	-0.000143261	13	1.46442e-06
2	0	0	0	0	7.7036	-0.0910952	-0.0909878	-0.0166257	1	-0.000144265	13	1.51273e-06
2	0	0	0	0	7.7636	-0.0940962	-0.0939637	-0.0166028	1	-0.000145269	13	1.56006e-06
2	0	0	0	0	7.8236	-0.0970972	-0.0970106	-0.0166001	1	-0.000146271	13	1.61039e-06
2	0	0	0	0	7.8836	-0.100098	-0.100019	-0.0165793	1	-0.000147272	13	1.65825e-06
2	0	0	0	0	7.9436	-0.103099	-0.102968	-0.0165487	1	-0.000148272	13	1.70398e-06
2	0	0	0	0	8.0036	-0.1061	-0.106016	-0.0165356	1	-0.000149271	13	1.75303e-06
2	0	0	1	0	8.0638	-0.109101	-0.109029	-0.0165285	1	-0.000150273	13	1.80208e-06
2	0	0	1	0	8.1238	-0.112102	-0.112012	-0.016514	1	-0.00015127	13	1.84977e-06
2	0	0	1	0	8.1838	-0.115103	-0.11496	-0.016499	1	-0.000152266	13	1.89673e-06
2	0	0	1	0	8.2438	-0.118104	-0.117987	-0.0164898	1	-0.000153262	13	1.94558e-06
2	0	0	1	0	8.3038	-0.121105	-0.121002	-0.016477	1	-0.000154257	13	1.99376e-06
2	0	0	1	0	8.3638	-0.124106	-0.123969	-0.0164591	1	-0.000155251	13	2.04041e-06
2	0	0	1	0	8.4238	-0.127107	-0.126963	-0.0164389	1	-0.000156244	13	2.08713e-06
2	0	0	1	0	8.4838	-0.130108	-0.129985	-0.0164389	1	-0.000157237	13	2.13682e-06
2	0	0	1	0	8.5438	-0.133109	-0.133	-0.0164277	1	-0.00015823	13	2.18489e-06
2	0	0	1	0	8.6038	-0.13611	-0.13603	-0.0164066	1	-0.000159221	13	2.23179e-06
2	0	0	0	0	8.664	-0.139111	-0.138965	-0.0164032	1	-0.000160215	13	2.27947e-06
2	0	0	0	0	8.724	-0.142112	-0.142011	-0.0164002	1	-0.000161206	13	2.32901e-06
2	0	0	0	0	8.784	-0.145113	-0.145	-0.016405	1	-0.000162196	13	2.37873e-06
2	0	0	0	0	8.844	-0.148114	-0.14804	-0.0163801	1	-0.000163186	13	2.4249e-06
2	0	0	0	0	8.904	-0.151115	-0.150954	-0.0163865	1	-0.000164175	13	2.47361e-06
2	0	0	0	0	8.964	-0.154116	-0.153986	-0.0163774	1	-0.000165163	13	2.5219e-06
2	0	0	0	0	9.024	-0.157117	-0.157012	-0.0163677	1	-0.000166152	13	2.56992e-06
2	0	0	0	0	9.084	-0.160118	-0.160004	-0.0163683	1	-0.00016714	13	2.61899e-06
2	0	0	0	0	9.144	-0.163119	-0.163023	-0.0163696	1	-0.000168128	13	2.66862e-06
2	0	0	0	0	9.204	-0.16612	-0.165974	-0.016367	1	-0.000169115	13	2.7165e-06
2	0	0	1	0	9.2641	-0.169122	-0.169051	-0.0163489	1	-0.000170104	13	2.7638e-06
2	0	0	1	0	9.3242	-0.172122	-0.172021	-0.0163613	1	-0.000171093	13	2.81449e-06
2	0	0	1	0	9.3842	-0.175122	-0.175038	-0.0163585	1	-0.00017208	13	2.86337e-06
2	0	0	1	0	9.4442	-0.178123	-0.178029	-0.0163471	1	-0.000173067	13	2.91025e-06
2	0	0	1	0	9.5042	-0.181124	-0.181069	-0.0163513	1	-0.000174054	13	2.96071e-06
2	0	0	1	0	9.5642	-0.184125	-0.184005	-0.0163633	1	-0.000175042	13	3.01093e-06
2	0	0	1	0	9.6242	-0.187126	-0.187032	-0.0163554	1	-0.000176029	13	3.05898e-06
2	0	0	1	0	9.6842	-0.190127	-0.190038	-0.0163504	1	-0.000177017	13	3.10721e-06
2	0	0	1	0	9.7442	-0.193128	-0.193005	-0.016371	1	-0.000178004	13	3.15969e-06
2	0	0	1	0	9.8042	-0.196129	-0.196045	-0.0163687	1	-0.000178992	13	3.20901e-06
2	0	0	1	0	9.8642	-0.19913	-0.199013	-0.0163735	1	-0.00017998	13	3.25853e-06
2	0	0	0	0	9.8928	-0.19943	-0.199355	-0.0154606	1	-0.00018044	13	3.08216e-06
2	0	0	0	0	9.9528	-0.196429	-0.196306	-0.0141172	1	-0.000181315	13	2.77129e-06
2	0	0	0	0	10.0128	-0.193428	-0.193265	-0.0133468	1	-0.000182132	13	2.57946e-06
2	0	0	0	0	10.0728	-0.190427	-0.190309	-0.0127838	1	-0.000182909	13	2.43286e-06
2	0	0	0	0	10.1328	-0.187426	-0.187286	-0.012297	1	-0.000183655	13	2.30306e-06
2	0	0	0	0	10.1928	-0.184425	-0.184308	-0.0118827	1	-0.000184374	13	2.19008e-06
2	0	0	0	0	10.2528	-0.181425	-0.1813	-0.0114823	1	-0.000185069	13	2.08174e-06
2	0	0	0	0	10.3128	-0.178424	-0.178249	-0.0111538	1	-0.000185742	13	1.98816e-06
2	0	0	0	0	10.3728	-0.175423	-0.175301	-0.010842	1	-0.000186396	13	1.90061e-06
2	0	0	0	0	10.4328	-0.172422	-0.172245	-0.0105495	1	-0.000187032	13	1.81709e-06
2	0	0	1	0	10.4929	-0.16942	-0.169276	-0.0102757	1	-0.000187651	13	1.73943e-06
2	0	0	1	0	10.553	-0.16642	-0.166235	-0.0100224	1	-0.000188255	13	1.66607e-06
2	0	0	1	0	10.613	-0.163419	-0.163307	-0.00978494	1	-0.000188843	13	1.59795e-06
2	0	0	1	0	10.673	-0.160418	-0.160242	-0.00955361	1	-0.000189417	13	1.53089e-06
2	0	0	1	0	10.733	-0.157417	-0.157259	-0.00932304	1	-0.000189977	13	1.46613e-06
2	0	0	1	0	10.793	-0.154416	-0.154224	-0.00912021	1	-0.000190524	13	1.40655e-06
2	0	0	1	0	10.853	-0.151415	-0.151276	-0.00892893	1	-0.00019106	13	1.35073e-06
2	0	0	1	0	10.913	-0.148414	-0.148326	-0.00874507	1	-0.000191584	13	1.29712e-06
2	0	0	1	0	10.973	-0.145413	-0.145245	-0.00856448	1	-0.000192096	13	1.24395e-06
2	0	0	1	0	11.033	-0.142412	-0.1422	-0.00838244	1	-0.000192598	13	1.19199e-06
2	0	0	1	0	11.093	-0.139411	-0.139232	-0.00820572	1	-0.00019309	13	1.1425e-06
2	0	0	0	0	11.1532	-0.13641	-0.136257	-0.00805061	1	-0.000193574	13	1.09695e-06
2	0	0	0	0	11.2132	-0.133409	-0.133254	-0.00789314	1	-0.000194046	13	1.05179e-06
2	0	0	0	0	11.2732	-0.130408	-0.130263	-0.00773676	1	-0.000194509	13	1.00781e-06
2	0	0	0	0	11.3332	-0.127407	-0.127215	-0.00758851	1	-0.000194963	13	9.65372e-07
2	0	0	0	0	11.3932	-0.124406	-0.124253	-0.00746617	1	-0.000195408	13	9.27693e-07
2	0	0	0	0	11.4532	-0.121405	-0.121238	-0.00730959	1	-0.000195845	13	8.86199e-07
2	0	0	0	0	11.5132	-0.118404	-0.118226	-0.00718311	1	-0.000196273	13	8.49229e-07
2	0	0	0	0	11.5732	-0.115403	-0.115219	-0.00704639	1	-0.000196694	13	8.11879e-07
2	0	0	0	0	11.6332	-0.112402	-0.112236	-0.00694002	1	-0.000197107	13	7.78919e-07
2	0	0	0	0	11.6932	-0.109401	-0.10924	-0.00679225	1	-0.000197513	13	7.41985e-07
2	0	0	1	0	11.7534	-0.1064	-0.106238	-0.00669309	1	-0.000197913	13	7.11063e-07
2	0	0	1	0	11.8134	-0.103399	-0.103255	-0.00656755	1	-0.000198304	13	6.78133e-07
2	0	0	1	0	11.8734	-0.100398	-0.100254	-0.00645633	1	-0.000198689	13	6.47272e-07
2	0	0	1	0	11.9334	-0.0973973	-0.0972355	-0.00632907	1	-0.000199066	13	6.1541e-07
2	0	0	1	0	11.9934	-0.0943963	-0.0942385	-0.00623801	1	-0.000199437	13	5.8786e-07
2	0	0	1	0	12.0534	-0.0913953	-0.0912201	-0.00611939	1	-0.000199802	13	5.58211e-07
2	0	0	1	0	12.1134	-0.0883944	-0.0882283	-0.00601936	1	-0.00020016	13	5.31078e-07
2	0	0	1	0	12.1734	-0.0853934	-0.0852206	-0.00591229	1	-0.000200512	13	5.03849e-07
2	0	0	1	0	12.2334	-0.0823924	-0.082266	-0.00581602	1	-0.000200858	13	4.7846e-07
2	0	0	1	0	12.2934	-0.0793915	-0.0792318	-0.00570779	1	-0.000201198	13	4.52238e-07
2	0	0	1	0	12.3535	-0.0763938	-0.0762171	-0.0056327	1	-0.000201532	13	4.29308e-07
2	0	0	0	0	12.4136	-0.0733895	-0.073246	-0.00554379	1	-0.000201862	13	4.0606e-07
2	0	0	0	0	12.4736	-0.0703885	-0.0702702	-0.00544754	1	-0.000202185	13	3.828e-07
2	0	0	0	0	12.5336	-0.0673876	-0.0672625	-0.0053472	1	-0.000202502	13	3.59666e-07
2	0	0	0	0	12.5936	-0.0643866	-0.0642113	-0.00526569	1	-0.000202815	13	3.38117e-07
2	0	0	0	0	12.6536	-0.0613856	-0.0612417	-0.00518982	1	-0.000203122	13	3.17834e-07
2	0	0	0	0	12.7136	-0.0583846	-0.0582446	-0.00508722	1	-0.000203424	13	2.96303e-07
2	0	0	0	0	12.7736	-0.0553837	-0.0552083	-0.00500919	1	-0.000203721	13	2.76549e-07
2	0	0	0	0	12.8336	-0.0523827	-0.0522324	-0.00492378	1	-0.000204012	13	2.57181e-07
2	0	0	0	0	12.8936	-0.0493817	-0.0492279	-0.00484052	1	-0.000204299	13	2.38289e-07
2	0	0	0	0	12.9536	-0.0463807	-0.0462202	-0.00476622	1	-0.000204582	13	2.20296e-07
2	0	0	1	0	13.0138	-0.0433798	-0.0432273	-0.00469625	1	-0.00020486	13	2.03007e-07
2	0	0	1	0	13.0738	-0.0403788	-0.0402355	-0.00460182	1	-0.000205133	13	1.85157e-07
2	0	0	1	0	13.1338	-0.0373778	-0.03723	-0.00452351	1	-0.000205401	13	1.6841e-07
2	0	0	1	0	13.2238	-0.0328764	-0.0327348	-0.00432334	1	-0.000205796	14	1.41524e-07
2	0	0	1	0	13.2838	-0.0298754	-0.0297197	-0.00424193	1	-0.000206053	14	1.26069e-07
2	0	0	1	0	13.3438	-0.0268744	-0.0267099	-0.00417001	1	-0.000206305	14	1.1138e-07
2	0	0	1	0	13.4038	-0.0238735	-0.023734	-0.00410037	1	-0.000206553	14	9.73182e-08
2	0	0	1	0	13.4638	-0.0208725	-0.020721	-0.00403225	1	-0.000206797	14	8.35523e-08
2	0	0	1	0	13.5238	-0.0178715	-0.0176953	-0.00395858	1	-0.000207036	14	7.00482e-08
2	0	0	1	0	13.5839	-0.0148716	-0.0147025	-0.00389437	1	-0.000207272	14	5.72572e-08
2	0	0	0	0	13.644	-0.0118696	-0.0116958	-0.00381659	1	-0.000207503	14	4.46379e-08
2	0	0	0	0	13.704	-0.00886859	-0.00871458	-0.00375315	1	-0.000207731	14	3.27072e-08
2	0	0	0	0	13.764	-0.00586762	-0.00568353	-0.0036855	1	-0.000207954	14	2.09467e-08
2	0	0	0	0	13.824	-0.00286664	-0.0025814	-0.00359964	1	-0.000208172	14	9.29213e-09
2	0	0	0	0	13.884	0.000137822	0.000396595	-0.00354789	1	-0.000208386	14	-1.40708e-09
2	0	0	0	0	13.944	0.0031353	0.00332685	-0.00348704	1	-0.000208596	14	-1.16009e-08
2	0	0	0	0	14.004	0.00613627	0.00637593	-0.00341889	1	-0.000208803	14	-2.17986e-08
2	0	0	0	0	14.064	0.00913724	0.00936666	-0.00335178	1	-0.000209006	14	-3.1395e-08
2	0	0	0	0	14.124	0.0121382	0.0123563	-0.00328787	1	-0.000209205	14	-4.0626e-08
2	0	0	0	0	14.184	0.0151392	0.0153821	-0.00323014	1	-0.0002094	14	-4.96862e-08
2	0	0	1	0	14.2442	0.0181402	0.0184004	-0.00316238	1	-0.000209593	14	-5.81889e-08
2	0	0	1	0	14.3042	0.0211411	0.021354	-0.0030935	1	-0.00020978	14	-6.60585e-08
2	0	0	1	0	14.3642	0.0241421	0.0243988	-0.00303298	1	-0.000209964	14	-7.40012e-08
2	0	0	1	0	14.4242	0.0271431	0.0273821	-0.00296855	1	-0.000210144	14	-8.12851e-08
2	0	0	1	0	14.4842	0.030144	0.0303771	-0.00290413	1	-0.00021032	14	-8.8219e-08
2	0	0	1	0	14.5442	0.033145	0.033406	-0.00283403	1	-0.000210492	14	-9.46736e-08
2	0	0	1	0	14.6042	0.036146	0.0364339	-0.00276644	1	-0.00021066	14	-1.00792e-07
2	0	0	1	0	14.6642	0.039147	0.039379	-0.00270161	1	-0.000210824	14	-1.06387e-07
2	0	0	1	0	14.7242	0.0421479	0.0424238	-0.00263689	1	-0.000210984	14	-1.11867e-07
2	0	0	1	0	14.7842	0.0451489	0.0454347	-0.00257026	1	-0.00021114	14	-1.16779e-07
2	0	0	0	0	14.8444	0.0481499	0.0483947	-0.00250393	1	-0.000211293	14	-1.21177e-07
2	0	0	0	0	14.9044	0.0511508	0.0514215	-0.00243158	1	-0.00021144	14	-1.25035e-07
2	0	0	0	0	14.9644	0.0541518	0.0543719	-0.0023688	1	-0.000211584	14	-1.28796e-07
2	0	0	0	0	15.0244	0.0571528	0.0573966	-0.00228768	1	-0.000211723	14	-1.31305e-07
2	0	0	0	0	15.0844	0.0601538	0.0604223	-0.00220731	1	-0.000211858	14	-1.33371e-07
2	0	0	0	0	15.1444	0.0631547	0.0633876	-0.00213367	1	-0.000211988	14	-1.35248e-07
2	0	0	0	0	15.2044	0.0661557	0.0663709	-0.00206519	1	-0.000212114	14	-1.37069e-07
2	0	0	0	0	15.2644	0.0691567	0.0694093	-0.00198037	1	-0.000212235	14	-1.37456e-07
2	0	0	0	0	15.3244	0.0721576	0.0723884	-0.0018956	1	-0.000212351	14	-1.37219e-07
2	0	0	0	0	15.3844	0.0751586	0.0753876	-0.00180917	1	-0.000212462	14	-1.36389e-07
2	0	0	1	0	15.4446	0.0781596	0.0784516	-0.00172331	1	-0.000212568	14	-1.35196e-07
2	0	0	1	0	15.5046	0.0811606	0.0814147	-0.00162704	1	-0.000212668	14	-1.32465e-07
2	0	0	1	0	15.5646	0.0841615	0.0844298	-0.00152901	1	-0.000212763	14	-1.29094e-07
2	0	0	1	0	15.6246	0.0871625	0.0874301	-0.00142365	1	-0.000212852	14	-1.2447e-07
2	0	0	1	0	15.6846	0.0901635	0.090441	-0.00132068	1	-0.000212934	14	-1.19444e-07
2	0	0	1	0	15.7446	0.0931645	0.0933988	-0.00121602	1	-0.00021301	14	-1.13575e-07
2	0	0	1	0	15.8046	0.0961654	0.0964023	-0.00110349	1	-0.000213079	14	-1.06379e-07
2	0	0	1	0	15.8646	0.0991664	0.0993633	-0.000976837	1	-0.000213141	14	-9.70618e-08
2	0	0	1	0	15.9246	0.102167	0.102403	-0.000847947	1	-0.000213196	14	-8.68322e-08
2	0	0	1	0	15.9846	0.105168	0.105386	-0.000719425	1	-0.000213242	14	-7.58175e-08
2	0	0	1	0	16.0447	0.108172	0.108394	-0.000570024	1	-0.000213281	14	-6.17873e-08
2	0	0	0	0	16.1048	0.11117	0.111406	-0.000404384	1	-0.00021331	14	-4.50507e-08
2	0	0	0	0	16.1648	0.114171	0.114461	-0.000243638	1	-0.000213329	14	-2.78872e-08
2	0	0	0	0	16.2248	0.117172	0.117407	-6.93796e-05	1	-0.000213338	14	-8.14568e-09
2	1	0	0	0	16.2848	0.120173	0.120427	0.000117054	1	-0.000213337	14	1.40965e-08
2	1	0	0	0	16.3448	0.123174	0.123463	0.000322884	1	-0.000213323	14	3.98643e-08
2	1	0	0	0	16.4048	0.126175	0.12637	0.000541825	1	-0.000213297	14	6.84704e-08
2	1	0	0	0	16.4648	0.129176	0.129412	0.000775726	1	-0.000213257	14	1.00388e-07
2	1	0	0	0	16.5248	0.132177	0.132406	0.00102272	1	-0.000213204	14	1.35414e-07
2	1	0	0	0	16.5848	0.135178	0.13543	0.00129079	1	-0.000213134	14	1.74812e-07
2	1	0	0	0	16.6448	0.138179	0.138419	0.00158316	1	-0.000213048	14	2.1914e-07
2	1	0	1	0	16.705	0.14118	0.14147	0.00188532	1	-0.000212943	14	2.66717e-07
2	1	0	1	0	16.765	0.144181	0.144431	0.00220963	1	-0.00021282	14	3.19139e-07
2	1	0	1	0	16.825	0.147182	0.147413	0.00257412	1	-0.000212676	14	3.7946e-07
2	1	0	1	0	16.885	0.150183	0.150449	0.00296206	1	-0.00021251	14	4.45638e-07
2	1	0	1	0	16.945	0.153184	0.153431	0.00337636	1	-0.000212319	14	5.18038e-07
2	1	0	1	0	17.005	0.156185	0.156383	0.00380585	1	-0.000212103	14	5.95172e-07
2	1	0	1	0	17.065	0.159186	0.159388	0.00428831	1	-0.00021186	14	6.83504e-07
2	1	0	1	0	17.125	0.162187	0.162408	0.00480377	1	-0.000211588	14	7.80173e-07
2	1	0	1	0	17.185	0.165188	0.1654	0.00533705	1	-0.000211283	14	8.82749e-07
2	1	0	1	0	17.245	0.168189	0.168424	0.00591006	1	-0.000210945	14	9.95395e-07
2	1	0	0	0	17.3052	0.17119	0.171456	0.00650257	1	-0.000210572	14	1.1149e-06
2	1	0	0	0	17.3652	0.174191	0.174469	0.00715791	1	-0.000210161	14	1.24883e-06
2	1	0	0	0	17.4252	0.177192	0.177428	0.00784609	1	-0.000209711	14	1.39211e-06
2	1	0	0	0	17.4852	0.180193	0.180446	0.00855489	1	-0.000209219	14	1.5437e-06
2	1	0	0	0	17.5452	0.183194	0.18344	0.00928375	1	-0.000208684	14	1.70301e-06
2	1	0	0	0	17.6052	0.186195	0.186451	0.0100528	1	-0.000208104	14	1.87436e-06
2	1	0	0	0	17.6652	0.189196	0.189398	0.0108526	1	-0.000207476	14	2.05546e-06
2	1	0	0	0	17.7552	0.193697	0.193918	0.0119627	1	-0.000206451	13	2.31977e-06
2	1	0	0	0	17.8152	0.196698	0.196922	0.0128148	1	-0.000205702	13	2.52351e-06
2	1	0	0	0	17.8752	0.199699	0.199914	0.0136787	1	-0.000204902	13	2.73457e-06
2	1	0	1	0	17.9354	0.2027	0.202973	0.0145455	1	-0.000204047	13	2.95234e-06
2	1	0	1	0	17.9954	0.205701	0.205953	0.0153902	1	-0.000203143	13	3.16966e-06
2	1	0	1	0	18.0554	0.208702	0.20893	0.0162298	1	-0.000202189	13	3.39089e-06
2	1	0	1	0	18.1154	0.211703	0.211916	0.0170477	1	-0.000201185	13	3.61269e-06
2	1	0	1	0	18.1754	0.214704	0.214943	0.0178534	1	-0.000200131	13	3.83747e-06
2	1	0	1	0	18.2354	0.217705	0.217941	0.0186059	1	-0.000199031	13	4.05499e-06
2	1	0	1	0	18.2954	0.220706	0.220887	0.0193076	1	-0.000197887	13	4.2648e-06
2	1	0	1	0	18.3554	0.223707	0.223946	0.0199861	1	-0.000196702	13	4.4758e-06
2	1	0	1	0	18.4154	0.226708	0.226907	0.0206178	1	-0.000195478	13	4.67832e-06
2	1	0	1	0	18.4754	0.229709	0.22991	0.0211635	1	-0.000194218	13	4.86571e-06
2	1	0	0	0	18.5356	0.23271	0.232951	0.0216372	1	-0.000192923	13	5.0404e-06
2	1	0	0	0	18.5956	0.235711	0.235997	0.0220485	1	-0.000191606	13	5.20339e-06
2	1	0	0	0	18.6556	0.238712	0.23892	0.0224239	1	-0.000190266	13	5.35752e-06
2	1	0	0	0	18.7156	0.241713	0.241948	0.0227131	1	-0.000188905	13	5.49537e-06
2	1	0	0	0	18.7756	0.244713	0.244947	0.0229326	1	-0.00018753	13	5.61728e-06
2	1	0	0	0	18.8356	0.247714	0.247925	0.023065	1	-0.000186144	13	5.71838e-06
2	1	0	0	0	18.8956	0.250715	0.250948	0.0231811	1	-0.000184751	13	5.81726e-06
2	1	0	0	0	18.9556	0.253716	0.253995	0.0232049	1	-0.000183354	13	5.89394e-06
2	1	0	0	0	19.0156	0.256717	0.256925	0.0231799	1	-0.000181956	13	5.95548e-06
2	1	0	0	0	19.0756	0.259718	0.259961	0.0230894	1	-0.000180562	13	6.00233e-06
2	1	0	1	0	19.1357	0.262719	0.262972	0.0229782	1	-0.000179172	13	6.04262e-06
2	1	0	1	0	19.1958	0.26572	0.265956	0.0228176	1	-0.00017779	13	6.06848e-06
2	1	0	1	0	19.2558	0.268721	0.268935	0.0226303	1	-0.00017642	13	6.0861e-06
2	1	0	1	0	19.3158	0.271722	0.271962	0.0224022	1	-0.000175063	13	6.09256e-06
2	1	0	1	0	19.3758	0.274723	0.274989	0.0221719	1	-0.00017372	13	6.09703e-06
2	1	0	1	0	19.4358	0.277724	0.277955	0.0219058	1	-0.000172391	13	6.08884e-06
2	1	0	1	0	19.4958	0.280725	0.280961	0.0216355	1	-0.000171079	13	6.07872e-06
2	1	0	1	0	19.5558	0.283726	0.283987	0.0213391	1	-0.000169784	13	6.06e-06
2	1	0	1	0	19.6158	0.286727	0.286972	0.0210297	1	-0.000168507	13	6.03494e-06
2	1	0	1	0	19.6758	0.289728	0.289985	0.0207368	1	-0.000167247	13	6.01337e-06
2	1	0	1	0	19.7358	0.292729	0.292971	0.0204463	1	-0.000166005	13	5.99019e-06
2	1	0	0	0	19.796	0.29573	0.295963	0.0201221	1	-0.000164778	13	5.9554e-06
2	1	0	0	0	19.856	0.298731	0.298972	0.0198354	1	-0.000163573	13	5.93022e-06
2	1	0	0	0	19.916	0.301732	0.301996	0.0195368	1	-0.000162386	13	5.90001e-06
2	1	0	0	0	19.976	0.304733	0.304952	0.0192494	1	-0.000161216	13	5.87016e-06
2	1	0	0	0	20.036	0.307734	0.307974	0.0189482	1	-0.000160064	13	5.83555e-06
2	1	0	0	0	20.096	0.310735	0.310967	0.0186876	1	-0.000158929	13	5.81123e-06
2	1	0	0	0	20.156	0.313736	0.313979	0.0183986	1	-0.00015781	13	5.77676e-06
2	1	0	0	0	20.216	0.316737	0.31699	0.0181391	1	-0.000156708	13	5.7499e-06
2	1	0	0	0	20.276	0.319738	0.319992	0.0178793	1	-0.00015562	13	5.72124e-06
2	1	0	0	0	20.336	0.322739	0.32299	0.0176285	1	-0.000154548	13	5.69384e-06
2	1	0	1	0	20.3962	0.32574	0.325974	0.0173831	1	-0.000153488	13	5.66646e-06
2	1	0	1	0	20.4562	0.328741	0.328949	0.0171662	1	-0.000152445	13	5.6468e-06
2	1	0	1	0	20.5162	0.331742	0.331962	0.0169297	1	-0.000151415	13	5.62001e-06
2	1	0	1	0	20.5762	0.334743	0.334997	0.0167235	1	-0.000150399	13	5.6023e-06
2	1	0	1	0	20.6362	0.337744	0.337945	0.0164925	1	-0.000149396	13	5.57355e-06
2	1	0	1	0	20.6962	0.340745	0.340951	0.0163134	1	-0.000148406	13	5.56207e-06
2	1	0	1	0	20.7562	0.343746	0.343936	0.0161069	1	-0.000147426	13	5.53973e-06
2	1	0	1	0	20.8162	0.346747	0.346973	0.0159162	1	-0.000146459	13	5.52248e-06
2	1	0	1	0	20.8762	0.349748	0.349981	0.0157357	1	-0.000145503	13	5.50721e-06
2	1	0	1	0	20.9362	0.352748	0.353001	0.0155584	1	-0.000144558	13	5.49215e-06
2	1	0	0	0	20.9964	0.355749	0.355995	0.0153764	1	-0.00014362	13	5.47392e-06
2	1	0	0	0	21.0564	0.35875	0.358958	0.0152047	1	-0.000142695	13	5.45785e-06
2	1	0	0	0	21.1164	0.361751	0.361966	0.0150571	1	-0.000141781	13	5.45017e-06
2	1	0	0	0	21.1764	0.364752	0.364997	0.0148922	1	-0.000140875	13	5.43561e-06
2	1	0	0	0	21.2364	0.367753	0.368006	0.0147382	1	-0.000139979	13	5.42375e-06
2	1	0	0	0	21.2964	0.370754	0.370954	0.014613	1	-0.000139092	13	5.42074e-06
2	1	0	0	0	21.3564	0.373755	0.373976	0.0144519	1	-0.000138214	13	5.40465e-06
2	1	0	0	0	21.4164	0.376756	0.377048	0.014305	1	-0.000137345	13	5.39367e-06
2	1	0	0	0	21.4764	0.379757	0.379998	0.0141933	1	-0.000136483	13	5.39343e-06
2	1	0	0	0	21.5364	0.382758	0.383	0.0140505	1	-0.00013563	13	5.38136e-06
2	1	0	1	0	21.5965	0.385764	0.386035	0.0139114	1	-0.000134783	13	5.37028e-06
2	1	0	1	0	21.6566	0.38876	0.388967	0.0137907	1	-0.000133943	13	5.3641e-06
2	1	0	1	0	21.7166	0.391761	0.39202	0.0136694	1	-0.000133113	13	5.35867e-06
2	1	0	1	0	21.7766	0.394762	0.394993	0.0135564	1	-0.000132289	13	5.35466e-06
2	1	0	1	0	21.8366	0.397763	0.398021	0.0134346	1	-0.000131473	13	5.34725e-06
2	1	0	1	0	21.8966	0.400764	0.400953	0.0133244	1	-0.000130663	13	5.34247e-06
2	1	0	1	0	21.9566	0.403765	0.404057	0.0132191	1	-0.00012986	13	5.34126e-06
2	1	0	1	0	22.0166	0.406766	0.407024	0.0131002	1	-0.000129064	13	5.33212e-06
2	1	0	1	0	22.0766	0.409767	0.410025	0.0130099	1	-0.000128274	13	5.3344e-06
2	1	0	1	0	22.1366	0.412768	0.412924	0.0129083	1	-0.000127489	13	5.33015e-06
2	1	0	1	0	22.1966	0.415769	0.415988	0.0128165	1	-0.000126711	13	5.3315e-06
2	1	0	0	0	22.2568	0.41877	0.419005	0.0127073	1	-0.000125937	13	5.32443e-06
2	1	0	0	0	22.3168	0.421771	0.422021	0.0126192	1	-0.00012517	13	5.32554e-06
2	1	0	0	0	22.3768	0.424772	0.425029	0.0125292	1	-0.000124409	13	5.32528e-06
2	1	0	0	0	22.4368	0.427773	0.428025	0.0124391	1	-0.000123653	13	5.32425e-06
2	1	0	0	0	22.4968	0.430774	0.431021	0.012356	1	-0.000122902	13	5.32572e-06
2	1	0	0	0	22.5568	0.433775	0.43399	0.0122828	1	-0.000122156	13	5.33059e-06
2	1	0	0	0	22.6168	0.436776	0.437074	0.0121928	1	-0.000121416	13	5.32914e-06
2	1	0	0	0	22.6768	0.439777	0.440025	0.0121131	1	-0.00012068	13	5.33008e-06
2	1	0	0	0	22.7368	0.442778	0.442997	0.0120345	1	-0.000119949	13	5.33123e-06
2	1	0	0	0	22.7968	0.445779	0.446003	0.0119667	1	-0.000119222	13	5.33718e-06
2	1	0	1	0	22.857	0.44878	0.449058	0.0118842	1	-0.000118497	13	5.33668e-06
2	1	0	1	0	22.917	0.451781	0.452071	0.011809	1	-0.00011778	13	5.33848e-06
2	1	0	1	0	22.977	0.454782	0.455007	0.0117486	1	-0.000117066	13	5.34568e-06
2	1	0	1	0	23.037	0.457783	0.458043	0.0116726	1	-0.000116356	13	5.34655e-06
2	1	0	1	0	23.097	0.460783	0.461087	0.0116171	1	-0.00011565	13	5.35648e-06
2	1	0	1	0	23.157	0.463784	0.463996	0.0115452	1	-0.000114948	13	5.35695e-06
2	1	0	1	0	23.217	0.466785	0.467077	0.0114955	1	-0.00011425	13	5.36928e-06
2	1	0	1	0	23.277	0.469786	0.470054	0.0114277	1	-0.000113556	13	5.37161e-06
2	1	0	1	0	23.337	0.472787	0.473029	0.0113795	1	-0.000112865	13	5.38285e-06
2	1	0	1	0	23.397	0.475788	0.476018	0.011323	1	-0.000112177	13	5.38996e-06
2	1	0	1	0	23.4571	0.478787	0.479011	0.0112494	1	-0.000111492	13	5.38859e-06
2	1	0	0	0	23.5172	0.48179	0.48203	0.0112121	1	-0.00011081	13	5.40459e-06
2	1	0	0	0	23.5772	0.484791	0.485071	0.0111694	1	-0.000110131	13	5.41797e-06
2	1	0	0	0	23.6372	0.487792	0.488054	0.0111183	1	-0.000109456	13	5.42633e-06
2	1	0	0	0	23.6972	0.490793	0.491036	0.0110714	1	-0.000108784	13	5.43645e-06
2	1	0	0	0	23.7572	0.493794	0.494028	0.0110293	1	-0.000108115	13	5.4488e-06
2	1	0	0	0	23.8172	0.496795	0.497066	0.0109874	1	-0.000107448	13	5.46144e-06
2	1	0	0	0	23.8732	0.499596	0.499885	0.0109434	1	-0.000106828	13	5.47046e-06
2	1	0	0	1	23.8916	0.499496	0.499693	0.0102893	1	-0.000106633	13	5.14149e-06
2	1	0	0	1	23.9516	0.496495	0.496717	0.00923337	1	-0.000106059	13	4.58637e-06
2	1	0	0	1	24.0116	0.493494	0.493661	0.00864206	1	-0.000105531	13	4.26625e-06
2	1	0	0	1	24.0716	0.490493	0.490677	0.00817333	1	-0.000105034	13	4.01046e-06
2	1	0	0	1	24.1316	0.487492	0.487675	0.00778756	1	-0.000104562	13	3.7978e-06
2	1	0	0	1	24.1916	0.484491	0.484727	0.0074369	1	-0.000104113	13	3.60487e-06
2	1	0	0	1	24.2516	0.48149	0.481694	0.00711173	1	-0.000103684	13	3.42568e-06
2	1	0	1	1	24.3117	0.478491	0.478658	0.00682756	1	-0.000103272	13	3.26807e-06
2	1	0	1	1	24.3718	0.475488	0.475672	0.0065579	1	-0.000102877	13	3.11941e-06
2	1	0	1	1	24.4318	0.472487	0.472705	0.00631929	1	-0.000102498	13	2.98716e-06
2	1	0	1	1	24.4918	0.469486	0.469665	0.00605586	1	-0.000102134	13	2.84423e-06
2	1	0	1	1	24.5518	0.466485	0.4667	0.00585676	1	-0.000101784	13	2.73335e-06
2	1	0	1	1	24.6118	0.463484	0.463684	0.00563502	1	-0.000101446	13	2.61287e-06
2	1	0	1	1	24.6718	0.460483	0.460709	0.00542889	1	-0.000101121	13	2.50114e-06
2	1	0	1	1	24.7318	0.457482	0.45771	0.00524016	1	-0.000100808	13	2.39847e-06
2	1	0	1	1	24.7918	0.454481	0.454648	0.0050647	1	-0.000100506	13	2.30266e-06
2	1	0	1	1	24.8518	0.45148	0.451692	0.00488362	1	-0.000100215	13	2.20589e-06
2	1	0	1	1	24.9118	0.448479	0.448664	0.00470373	1	-9.99341e-05	13	2.1104e-06
2	1	0	0	1	24.972	0.445479	0.445686	0.00455254	1	-9.96623e-05	13	2.029e-06
2	1	0	0	1	25.062	0.440977	0.44112	0.00422983	1	-9.92719e-05	14	1.86586e-06
2	1	0	0	1	25.122	0.437976	0.43811	0.00406069	1	-9.90238e-05	14	1.77903e-06
2	1	0	0	1	25.182	0.434975	0.435142	0.00391292	1	-9.87849e-05	14	1.70268e-06
2	1	0	0	1	25.242	0.431974	0.43221	0.00377278	1	-9.85545e-05	14	1.63063e-06
2	1	0	0	1	25.302	0.428973	0.429146	0.00363215	1	-9.83328e-05	14	1.55872e-06
2	1	0	0	1	25.362	0.425972	0.426132	0.00349485	1	-9.81191e-05	14	1.48927e-06
2	1	0	0	1	25.422	0.422971	0.423154	0.00336651	1	-9.79132e-05	14	1.42455e-06
2	1	0	0	1	25.482	0.41997	0.420145	0.00323931	1	-9.77152e-05	14	1.36098e-06
2	1	0	1	1	25.5421	0.416969	0.417133	0.0031178	1	-9.75244e-05	14	1.30054e-06
2	1	0	1	1	25.6022	0.413968	0.41416	0.00299455	1	-9.73411e-05	14	1.24022e-06
2	1	0	1	1	25.6622	0.410967	0.411147	0.00287649	1	-9.71652e-05	14	1.18266e-06
2	1	0	1	1	25.7222	0.407966	0.408179	0.00275919	1	-9.69964e-05	14	1.12624e-06
2	1	0	1	1	25.7822	0.404965	0.405144	0.00263778	1	-9.68349e-05	14	1.06868e-06
2	1	0	1	1	25.8422	0.401964	0.402152	0.00252559	1	-9.66802e-05	14	1.01567e-06
2	1	0	1	1	25.9022	0.398963	0.399128	0.00241895	1	-9.65324e-05	14	9.65469e-07
2	1	0	1	1	25.9622	0.395962	0.396149	0.00229996	1	-9.63912e-05	14	9.11127e-07
2	1	0	1	1	26.0222	0.392962	0.393157	0.00218412	1	-9.62568e-05	14	8.58703e-07
2	1	0	1	1	26.0822	0.389961	0.390136	0.00207568	1	-9.61293e-05	14	8.09796e-07
2	1	0	1	1	26.1422	0.38696	0.387074	0.00196508	1	-9.60083e-05	14	7.6063e-07
2	1	0	0	1	26.2024	0.383959	0.38412	0.00186027	1	-9.58932e-05	14	7.14566e-07
2	1	0	0	1	26.2624	0.380958	0.381183	0.00174466	1	-9.57853e-05	14	6.65032e-07
2	1	0	0	1	26.3224	0.377957	0.378094	0.00163178	1	-9.56842e-05	14	6.16968e-07
2	1	0	0	1	26.3824	0.374956	0.375143	0.00152163	1	-9.55898e-05	14	5.70827e-07
2	1	0	0	1	26.4424	0.371955	0.372144	0.00141077	1	-9.55017e-05	14	5.25008e-07
2	1	0	0	1	26.5024	0.368954	0.369125	0.00129818	1	-9.54206e-05	14	4.79189e-07
2	1	0	0	1	26.5624	0.365953	0.366092	0.00118706	1	-9.53464e-05	14	4.34573e-07
2	1	0	0	1	26.6224	0.362952	0.363126	0.00107125	1	-9.5279e-05	14	3.88999e-07
2	1	0	0	1	26.6824	0.359951	0.36011	0.000958136	1	-9.52185e-05	14	3.45034e-07
2	1	0	0	1	26.7424	0.35695	0.357086	0.00083196	1	-9.51651e-05	14	2.97081e-07
2	1	0	1	1	26.8026	0.353949	0.354109	0.000708776	1	-9.51188e-05	14	2.50984e-07
2	1	0	1	1	26.8626	0.350948	0.351108	0.000582115	1	-9.50803e-05	14	2.04385e-07
2	1	0	1	1	26.9226	0.347947	0.348131	0.000459651	1	-9.50492e-05	14	1.60019e-07
2	1	0	1	1	26.9826	0.344946	0.345123	0.000321297	1	-9.5026e-05	14	1.10887e-07
2	1	0	1	1	27.0426	0.341945	0.342138	0.000185124	1	-9.50109e-05	14	6.33379e-08
2	1	0	1	1	27.1026	0.338944	0.339136	4.4046e-05	1	-9.50044e-05	14	1.49376e-08
2	0	0	1	1	27.1626	0.335943	0.336084	-0.000105422	1	-9.50065e-05	14	-3.54306e-08
2	0	0	1	1	27.2226	0.332942	0.333145	-0.000252861	1	-9.50171e-05	14	-8.42395e-08
2	0	0	1	1	27.2826	0.329941	0.330083	-0.000415153	1	-9.50374e-05	14	-1.37035e-07
2	0	0	1	1	27.3426	0.32694	0.327076	-0.000583338	1	-9.50675e-05	14	-1.90796e-07
2	0	0	0	1	27.4028	0.323939	0.324096	-0.00074823	1	-9.51078e-05	14	-2.42498e-07
2	0	0	0	1	27.4628	0.320938	0.321114	-0.000927819	1	-9.51582e-05	14	-2.97936e-07
2	0	0	0	1	27.5228	0.317937	0.318124	-0.00111728	1	-9.52198e-05	14	-3.55435e-07
2	0	0	0	1	27.5828	0.314936	0.315117	-0.0013219	1	-9.52935e-05	14	-4.16553e-07
2	0	0	0	1	27.6428	0.311935	0.312116	-0.00152964	1	-9.53793e-05	14	-4.77424e-07
2	0	0	0	1	27.7028	0.308934	0.30913	-0.00174181	1	-9.5478e-05	14	-5.38447e-07
2	0	0	0	1	27.7628	0.305933	0.30607	-0.00198844	1	-9.55903e-05	14	-6.08601e-07
2	0	0	0	1	27.8228	0.302932	0.303073	-0.00223312	1	-9.57172e-05	14	-6.76801e-07
2	0	0	0	1	27.8828	0.299931	0.300115	-0.00250029	1	-9.58595e-05	14	-7.50372e-07
2	0	0	0	1	27.9428	0.29693	0.297068	-0.00277603	1	-9.60182e-05	14	-8.2467e-07
2	0	0	1	1	28.0029	0.293926	0.294124	-0.0030787	1	-9.61944e-05	14	-9.05519e-07
2	0	0	1	1	28.063	0.290928	0.291094	-0.00339766	1	-9.63891e-05	14	-9.89038e-07
2	0	0	1	1	28.123	0.287928	0.288136	-0.00374268	1	-9.66037e-05	14	-1.0784e-06
2	0	0	1	1	28.183	0.284927	0.285088	-0.00410813	1	-9.68396e-05	14	-1.17118e-06
2	0	0	1	1	28.243	0.281926	0.282094	-0.00449867	1	-9.70975e-05	14	-1.26905e-06
2	0	0	1	1	28.303	0.278925	0.279116	-0.00491728	1	-9.73799e-05	14	-1.37249e-06
2	0	0	1	1	28.363	0.275924	0.276126	-0.00536634	1	-9.76886e-05	14	-1.48179e-06
2	0	0	1	1	28.423	0.272923	0.273063	-0.00583868	1	-9.80248e-05	14	-1.59433e-06
2	0	0	1	1	28.483	0.269922	0.27012	-0.00633038	1	-9.83902e-05	14	-1.70996e-06
2	0	0	1	1	28.543	0.266921	0.267098	-0.00687648	1	-9.87868e-05	14	-1.83669e-06
2	0	0	1	1	28.603	0.26392	0.264154	-0.0074595	1	-9.92172e-05	14	-1.97045e-06
2	0	0	0	1	28.6632	0.260919	0.261103	-0.00805959	1	-9.96844e-05	14	-2.10438e-06
2	0	0	0	1	28.7232	0.257918	0.258109	-0.00868874	1	-0.000100187	14	-2.24264e-06
2	0	0	0	1	28.7832	0.254917	0.255096	-0.00937595	1	-0.00010073	14	-2.39176e-06
2	0	0	0	1	28.8432	0.251916	0.252037	-0.0100937	1	-0.000101314	14	-2.54399e-06
2	0	0	0	1	28.9032	0.248915	0.249134	-0.0108391	1	-0.000101942	14	-2.70038e-06
2	0	0	0	1	28.9932	0.244413	0.244613	-0.0118915	1	-0.000102963	13	-2.90881e-06
2	0	0	0	1	29.0532	0.241412	0.241631	-0.0127252	1	-0.000103708	13	-3.07481e-06
2	0	0	0	1	29.1132	0.238411	0.238605	-0.0135798	1	-0.000104503	13	-3.24019e-06
2	0	0	0	1	29.1732	0.235411	0.235634	-0.0144437	1	-0.00010535	13	-3.40343e-06
2	0	0	0	1	29.2332	0.23241	0.232608	-0.0153008	1	-0.000106249	13	-3.5591e-06
2	0	0	1	1	29.2934	0.229409	0.229596	-0.0161939	1	-0.000107203	13	-3.71806e-06
2	0	0	1	1	29.3534	0.226408	0.226581	-0.0170742	1	-0.000108207	13	-3.86869e-06
2	0	0	1	1	29.4134	0.223407	0.223556	-0.0179702	1	-0.000109265	13	-4.01733e-06
2	0	0	1	1	29.4734	0.220406	0.220603	-0.0188309	1	-0.000110376	13	-4.15415e-06
2	0	0	1	1	29.5334	0.217405	0.21762	-0.0196684	1	-0.000111536	13	-4.28023e-06
2	0	0	1	1	29.5934	0.214404	0.214582	-0.0204972	1	-0.000112748	13	-4.39834e-06
2	0	0	1	1	29.6534	0.211403	0.211553	-0.0213114	1	-0.000114008	13	-4.5085e-06
2	0	0	1	1	29.7134	0.208402	0.208582	-0.0220562	1	-0.000115315	13	-4.60052e-06
2	0	0	1	1	29.7734	0.205401	0.205585	-0.0227431	1	-0.000116665	13	-4.67564e-06
2	0	0	1	1	29.8334	0.2024	0.202651	-0.0233997	1	-0.000118055	13	-4.74198e-06
2	0	0	0	1	29.8936	0.199399	0.199586	-0.0240055	1	-0.000119488	13	-4.79117e-06
2	0	0	0	1	29.9536	0.196398	0.196547	-0.0245495	1	-0.000120951	13	-4.82513e-06
2	0	0	0	1	30.0136	0.193397	0.193615	-0.0249994	1	-0.000122444	13	-4.84027e-06
2	0	0	0	1	30.0736	0.190396	0.190565	-0.0254352	1	-0.000123964	13	-4.84706e-06
2	0	0	0	1	30.1336	0.187395	0.187601	-0.0258129	1	-0.000125508	13	-4.84252e-06
2	0	0	0	1	30.1936	0.184394	0.18456	-0.026102	1	-0.000127072	13	-4.81739e-06
2	0	0	0	1	30.2536	0.181393	0.181552	-0.0263256	1	-0.000128651	13	-4.77945e-06
2	0	0	0	1	30.3136	0.178392	0.178591	-0.0265107	1	-0.000130242	13	-4.73457e-06
2	0	0	0	1	30.3736	0.175391	0.175555	-0.0266329	1	-0.000131843	13	-4.67554e-06
2	0	0	0	1	30.4336	0.17239	0.172584	-0.0267033	1	-0.00013345	13	-4.60856e-06
2	0	0	1	1	30.4938	0.169389	0.169516	-0.0267096	1	-0.000135064	13	-4.52769e-06
2	0	0	1	1	30.5538	0.166388	0.166576	-0.0266835	1	-0.000136671	13	-4.44483e-06
2	0	0	1	1	30.6138	0.163387	0.163565	-0.0266226	1	-0.000138276	13	-4.35452e-06
2	0	0	1	1	30.6738	0.160386	0.160555	-0.02651	1	-0.000139875	13	-4.25632e-06
2	0	0	1	1	30.7338	0.157385	0.157547	-0.0263896	1	-0.000141468	13	-4.15762e-06
2	0	0	1	1	30.7938	0.154384	0.154586	-0.02621	1	-0.000143052	13	-4.0517e-06
2	0	0	1	1	30.8538	0.151383	0.151593	-0.0260242	1	-0.000144625	13	-3.9451e-06
2	0	0	1	1	30.9138	0.148382	0.148574	-0.0258121	1	-0.000146187	13	-3.83501e-06
2	0	0	1	1	30.9738	0.145381	0.145546	-0.0256026	1	-0.000147736	13	-3.72635e-06
2	0	0	1	1	31.0338	0.14238	0.142573	-0.0253437	1	-0.00014927	13	-3.61334e-06
2	0	0	1	1	31.0939	0.139379	0.139542	-0.0251032	1	-0.000150793	13	-3.50296e-06
2	0	0	0	1	31.154	0.136378	0.13651	-0.0248505	1	-0.000152301	13	-3.39235e-06
2	0	0	0	1	31.214	0.133377	0.13356	-0.0245932	1	-0.00015379	13	-3.28467e-06
2	0	0	0	1	31.274	0.130376	0.130548	-0.0243162	1	-0.000155264	13	-3.17443e-06
2	0	0	0	1	31.334	0.127376	0.127571	-0.0240321	1	-0.000156721	13	-3.0658e-06
2	0	0	0	1	31.394	0.124375	0.124547	-0.0237637	1	-0.000158161	13	-2.95971e-06
2	0	0	0	1	31.454	0.121374	0.121518	-0.0234867	1	-0.000159586	13	-2.85407e-06
2	0	0	0	1	31.514	0.118373	0.118514	-0.0231987	1	-0.000160993	13	-2.74937e-06
2	0	0	0	1	31.574	0.115372	0.115523	-0.0229367	1	-0.000162383	13	-2.64972e-06
2	0	0	0	1	31.634	0.112371	0.112573	-0.0226498	1	-0.000163757	13	-2.54975e-06
2	0	0	0	1	31.694	0.10937	0.109512	-0.022389	1	-0.000165114	13	-2.45186e-06
2	0	0	1	1	31.7542	0.106369	0.106526	-0.022104	1	-0.00016646	13	-2.35464e-06
2	0	0	1	1	31.8142	0.103368	0.103573	-0.0218439	1	-0.000167785	13	-2.26244e-06
2	0	0	1	1	31.8742	0.100367	0.100563	-0.0215997	1	-0.000169095	13	-2.17213e-06
2	0	0	1	1	31.9342	0.0973658	0.0975576	-0.0213484	1	-0.000170389	13	-2.0827e-06
2	0	0	1	1	31.9942	0.0943648	0.0945361	-0.0211034	1	-0.000171669	13	-1.99503e-06
2	0	0	1	1	32.0542	0.0913639	0.0915836	-0.0208701	1	-0.000172935	13	-1.91136e-06
2	0	0	1	1	32.1142	0.0883629	0.0885197	-0.0206493	1	-0.000174187	13	-1.82787e-06
2	0	0	1	1	32.1742	0.0853619	0.0855321	-0.0204337	1	-0.000175426	13	-1.74774e-06
2	0	0	1	1	32.2342	0.082361	0.0825191	-0.0202243	1	-0.000176653	13	-1.66889e-06
2	0	0	1	1	32.2942	0.07936	0.0795326	-0.0200324	1	-0.000177867	13	-1.59323e-06
2	0	0	0	1	32.3544	0.076359	0.0765652	-0.0198329	1	-0.000179074	13	-1.51851e-06
2	0	0	0	1	32.4144	0.073358	0.073566	-0.0196511	1	-0.000180265	13	-1.44565e-06
2	0	0	0	1	32.4744	0.0703571	0.070571	-0.0194745	1	-0.000181445	13	-1.37433e-06
2	0	0	0	1	32.5344	0.0673561	0.067539	-0.0193032	1	-0.000182615	13	-1.30372e-06
2	0	0	0	1	32.5944	0.0643551	0.0645769	-0.0191433	1	-0.000183775	13	-1.23621e-06
2	0	0	0	1	32.6544	0.0613541	0.0615267	-0.0189899	1	-0.000184925	13	-1.16838e-06
2	0	0	0	1	32.7144	0.0583532	0.0584851	-0.0188403	1	-0.000186067	13	-1.10187e-06
2	0	0	0	1	32.7744	0.0553522	0.0555347	-0.0186995	1	-0.000187199	13	-1.03847e-06
2	0	0	0	1	32.8344	0.0523512	0.0525121	-0.0185451	1	-0.000188323	13	-9.73842e-07
2	0	0	0	1	32.8944	0.0493503	0.0494949	-0.0184202	1	-0.000189439	13	-9.11704e-07
2	0	0	1	1	32.9545	0.0463537	0.046519	-0.0183031	1	-0.000190549	13	-8.51442e-07
2	0	0	1	1	33.0146	0.0433483	0.0435431	-0.0181644	1	-0.000191651	13	-7.90933e-07
2	0	0	1	1	33.0746	0.0403474	0.0405746	-0.018041	1	-0.000192745	13	-7.32007e-07
2	0	0	1	1	33.1346	0.0373464	0.0375203	-0.0179439	1	-0.000193831	13	-6.73261e-07
2	0	0	1	1	33.1946	0.0343454	0.0344786	-0.0178345	1	-0.000194911	13	-6.14909e-07
2	0	0	1	1	33.2546	0.0313444	0.0315218	-0.0177301	1	-0.000195984	13	-5.58885e-07
2	0	0	1	1	33.3146	0.0283435	0.0285226	-0.0176228	1	-0.000197051	13	-5.02649e-07
2	0	0	1	1	33.3746	0.0253425	0.0255043	-0.017527	1	-0.000198112	13	-4.47015e-07
2	0	0	1	1	33.4346	0.0223415	0.0225178	-0.0174482	1	-0.000199168	13	-3.92895e-07
2	0	0	1	1	33.4946	0.0193405	0.0195112	-0.0173514	1	-0.000200218	13	-3.38546e-07
2	0	0	1	1	33.5547	0.0163352	0.0165004	-0.0172681	1	-0.000201264	13	-2.8493e-07
2	0	0	0	1	33.6148	0.0133386	0.0135096	-0.0171842	1	-0.000202305	13	-2.3215e-07
2	0	0	0	1	33.6748	0.0103376	0.0104997	-0.0171021	1	-0.00020334	13	-1.79567e-07
2	0	0	0	1	33.7348	0.00733666	0.00750687	-0.0170171	1	-0.00020437	13	-1.27745e-07
2	0	0	0	1	33.7948	0.00433569	0.00451084	-0.0169404	1	-0.000205395	13	-7.64154e-08
2	0	0	0	1	33.8548	0.00133472	0.00149571	-0.0168635	1	-0.000206416	13	-2.52228e-08
2	0	0	0	1	33.8806	-1.57199e-05	0.000304295	-0.0169985	1	-0.000206854	13	-5.17256e-09