File: Data/2025-02-10 exp 6 CV 20mvs_C05.mpt
EC-Lab ASCII FILE
Nb header lines : 59

Cyclic Voltammetry

Run on channel : 5 (SN 39658)
User :
CE vs. WE compliance from -10 V to 10 V
Electrode connection : standard
Potential control : Ewe
Ewe ctrl range : min = -2.50 V, max = 2.50 V
Safety Limits :
	Do not start on E overload
Acquisition started on : 02/10/2025 12:54:38.763
Loaded Setting File :  NONE
Saved on :
	File : 2025-02-10 exp 6 CV 20mvs_C05.mpr
	Directory : C:\Users\thefo\OneDrive\Documents\EC-Lab\Data\CHEM 451\
	Host : 172.24.113.132
Device : VSP (SN 1910)
Address : USB
EC-Lab for windows v11.46 (software)
Internet server v11.40 (firmware)
Command interpretor v11.40 (firmware)
Electrode material : Au/Pd
Initial state :
Electrolyte : NaCl (0.2M)
Comments : Fe(CN)63-/Fe(CN)64- 5.10-3 M
Current amplifier : VSPB-4A
Reference electrode : SCE Saturated Calomel Electrode (0.241 V)
Electrode surface area : 0.001 cm²
Characteristic mass : 0.001 g
Equivalent Weight : 0.000 g/eq.
Density : 0.000 g/cm3
Volume (V) : 0.001 cm³
Cycle Definition : Charge/Discharge alternance
Ei (V)              0.000
vs.                 Eoc
dE/dt               20.000
dE/dt unit          mV/s
E1 (V)              -0.200
vs.                 Ref
Step percent        50
N                   10
E range min (V)     -2.500
E range max (V)     2.500
I Range             Auto
I Range min         Unset
I Range max         Unset
I Range init        Unset
Bandwidth           4
E2 (V)              0.500
vs.                 Ref
nc cycles           0
Reverse Scan        1
Ef (V)              0.000
vs.                 Ref

mode	ox/red	error	control changes	counter inc.	time/s	control/V	Ewe/V	<I>/mA	cycle number	(Q-Qo)/C	I Range	P/W
2	1	0	0	0	0.000000000000000E+000	0.213353	0.213536	0.000150511	1	0.0000000E+000	14	3.21396e-08
2	0	0	1	0	0.1277	0.210803	0.210966	-0.0026821	1	-2.08884e-07	14	-5.65831e-07
2	0	0	1	0	0.2777	0.207802	0.207961	-0.00434469	1	-7.46203e-07	14	-9.03526e-07
2	0	0	1	0	0.4277	0.204801	0.204997	-0.00557303	1	-1.49458e-06	14	-1.14245e-06
2	0	0	1	0	0.5777	0.2018	0.20196	-0.00658565	1	-2.41045e-06	14	-1.33004e-06
2	0	0	1	0	0.7279	0.198799	0.198986	-0.00743617	1	-3.46633e-06	14	-1.47969e-06
2	0	0	1	0	0.8779	0.195798	0.195966	-0.00816245	1	-4.63874e-06	14	-1.59957e-06
2	0	0	1	0	1.0279	0.192797	0.192998	-0.00877524	1	-5.91092e-06	14	-1.6936e-06
2	0	0	1	0	1.1779	0.189796	0.189955	-0.009315	1	-7.27025e-06	14	-1.76943e-06
2	0	0	1	0	1.3281	0.186795	0.186962	-0.00977738	1	-8.70684e-06	14	-1.828e-06
2	0	0	1	0	1.4781	0.183794	0.183924	-0.0101678	1	-1.02055e-05	14	-1.87011e-06
2	0	0	1	0	1.6281	0.180793	0.180964	-0.0104774	1	-1.17567e-05	14	-1.89604e-06
2	0	0	1	0	1.7781	0.177792	0.177909	-0.010751	1	-1.3351e-05	14	-1.9127e-06
2	0	0	1	0	1.9433	0.174491	0.174657	-0.0108587	1	-1.51478e-05	14	-1.89654e-06
2	0	0	1	0	2.1083	0.17119	0.17139	-0.011029	1	-1.6973e-05	13	-1.89026e-06
2	0	0	1	0	2.2583	0.168189	0.168376	-0.0111169	1	-1.86531e-05	13	-1.87183e-06
2	0	0	1	0	2.4083	0.165188	0.165378	-0.0111882	1	-2.03448e-05	13	-1.85028e-06
2	0	0	1	0	2.5585	0.162187	0.162394	-0.0112167	1	-2.20457e-05	13	-1.82152e-06
2	0	0	1	0	2.7085	0.159186	0.159323	-0.0112097	1	-2.37461e-05	13	-1.78597e-06
2	0	0	1	0	2.8585	0.156185	0.156381	-0.0111784	1	-2.54429e-05	13	-1.74809e-06
2	0	0	1	0	3.0085	0.153184	0.153418	-0.0111146	1	-2.71317e-05	13	-1.70518e-06
2	0	0	1	0	3.1587	0.150183	0.150383	-0.0110452	1	-2.8813e-05	13	-1.66101e-06
2	0	0	1	0	3.3087	0.147182	0.147397	-0.0109553	1	-3.04801e-05	13	-1.61479e-06
2	0	0	1	0	3.4587	0.144181	0.14439	-0.0108612	1	-3.21331e-05	13	-1.56824e-06
2	0	0	1	0	3.6087	0.14118	0.141375	-0.0107573	1	-3.37697e-05	13	-1.52081e-06
2	0	0	1	0	3.7589	0.138179	0.138379	-0.0106461	1	-3.53922e-05	13	-1.4732e-06
2	0	0	1	0	3.9089	0.135178	0.135388	-0.0105329	1	-3.69962e-05	13	-1.42603e-06
2	0	0	1	0	4.0589	0.132177	0.132401	-0.0104174	1	-3.85831e-05	13	-1.37927e-06
2	0	0	1	0	4.2089	0.129176	0.129414	-0.010296	1	-4.01523e-05	13	-1.33245e-06
2	0	0	1	0	4.3591	0.126175	0.126329	-0.0101964	1	-4.17067e-05	13	-1.2881e-06
2	0	0	1	0	4.5091	0.123174	0.123408	-0.0100886	1	-4.32426e-05	13	-1.24501e-06
2	0	0	1	0	4.6591	0.120173	0.120356	-0.00998017	1	-4.47626e-05	13	-1.20117e-06
2	0	0	1	0	4.8091	0.117172	0.117355	-0.00987615	1	-4.62665e-05	13	-1.15902e-06
2	0	0	1	0	4.9592	0.114172	0.114389	-0.00977444	1	-4.77557e-05	13	-1.11809e-06
2	0	0	1	0	5.1093	0.11117	0.111362	-0.00967587	1	-4.92302e-05	13	-1.07753e-06
2	0	0	1	0	5.2593	0.108169	0.10839	-0.00958731	1	-5.06898e-05	13	-1.03917e-06
2	0	0	1	0	5.4093	0.105168	0.105355	-0.00950023	1	-5.21354e-05	13	-1.0009e-06
2	0	0	1	0	5.5594	0.102166	0.102369	-0.0094016	1	-5.35682e-05	13	-9.62434e-07
2	0	0	1	0	5.7095	0.0991664	0.0993729	-0.00932618	1	-5.49885e-05	13	-9.2677e-07
2	0	0	1	0	5.8595	0.0961654	0.0963546	-0.00924756	1	-5.63957e-05	13	-8.91045e-07
2	0	0	1	0	6.0095	0.0931645	0.0933554	-0.00916953	1	-5.77914e-05	13	-8.56025e-07
2	0	0	1	0	6.1595	0.0901635	0.0903869	-0.00910048	1	-5.91756e-05	13	-8.22564e-07
2	0	0	1	0	6.3097	0.0871625	0.0873611	-0.00903237	1	-6.05511e-05	13	-7.89078e-07
2	0	0	1	0	6.4597	0.0841615	0.0843789	-0.00896666	1	-6.19149e-05	13	-7.56597e-07
2	0	0	1	0	6.6097	0.0811606	0.0813617	-0.0089014	1	-6.3269e-05	13	-7.24233e-07
2	0	0	1	0	6.7597	0.0781596	0.0784059	-0.00883886	1	-6.46136e-05	13	-6.93019e-07
2	0	0	1	0	6.9099	0.0751586	0.0753547	-0.00878476	1	-6.59511e-05	13	-6.61973e-07
2	0	0	1	0	7.0599	0.0721576	0.0723523	-0.00874472	1	-6.72792e-05	13	-6.32701e-07
2	0	0	1	0	7.2099	0.0691567	0.0693966	-0.00867841	1	-6.85994e-05	13	-6.02252e-07
2	0	0	1	0	7.3599	0.0661557	0.0663974	-0.00863045	1	-6.99116e-05	13	-5.73039e-07
2	0	0	1	0	7.5101	0.0631547	0.0633876	-0.00858436	1	-7.12177e-05	13	-5.44142e-07
2	0	0	1	0	7.6601	0.0601538	0.0603502	-0.00853595	1	-7.25154e-05	13	-5.15146e-07
2	0	0	1	0	7.8101	0.0571528	0.0573754	-0.00849663	1	-7.38067e-05	13	-4.87497e-07
2	0	0	1	0	7.9601	0.0541518	0.0543676	-0.00845193	1	-7.50916e-05	13	-4.59511e-07
2	0	0	1	0	8.1103	0.0511508	0.0513472	-0.00841444	1	-7.63717e-05	13	-4.32058e-07
2	0	0	1	0	8.2603	0.0481499	0.0483607	-0.00837673	1	-7.76448e-05	13	-4.05105e-07
2	0	0	1	0	8.4103	0.0451489	0.0453753	-0.00834021	1	-7.89127e-05	13	-3.78439e-07
2	0	0	1	0	8.5603	0.0421479	0.0423496	-0.00830338	1	-8.01754e-05	13	-3.51644e-07
2	0	0	1	0	8.7105	0.039147	0.0393747	-0.00827319	1	-8.14344e-05	13	-3.25755e-07
2	0	0	1	0	8.8605	0.036146	0.0363596	-0.0082431	1	-8.26872e-05	13	-2.99716e-07
2	0	0	1	0	9.0105	0.033145	0.0333328	-0.00821649	1	-8.39357e-05	13	-2.73879e-07
2	0	0	1	0	9.1605	0.030144	0.0303304	-0.0081855	1	-8.51802e-05	13	-2.4827e-07
2	0	0	1	0	9.3107	0.0271431	0.0273216	-0.0081603	1	-8.6422e-05	13	-2.22953e-07
2	0	0	1	0	9.4607	0.0241421	0.0243818	-0.00813842	1	-8.76584e-05	13	-1.9843e-07
2	0	0	1	0	9.6107	0.0211411	0.0213158	-0.00811726	1	-8.88915e-05	13	-1.73026e-07
2	0	0	1	0	9.7607	0.0181402	0.0183516	-0.00808999	1	-9.01213e-05	13	-1.48464e-07
2	0	0	1	0	9.9108	0.015141	0.0153584	-0.00807008	1	-9.13485e-05	13	-1.23943e-07
2	0	0	1	0	10.0609	0.0121382	0.0123478	-0.00804805	1	-9.25724e-05	13	-9.93761e-08
2	0	0	1	0	10.2109	0.00913724	0.00932529	-0.00803841	1	-9.3793e-05	13	-7.49604e-08
2	0	0	1	0	10.3609	0.00613627	0.0062953	-0.00801358	1	-9.50111e-05	13	-5.04479e-08
2	0	0	1	0	10.511	0.00313574	0.00334407	-0.00799207	1	-9.62273e-05	13	-2.6726e-08
2	0	0	1	0	10.6611	0.000134329	0.000322331	-0.00798013	1	-9.74406e-05	13	-2.57224e-09
2	0	0	1	0	10.8111	-0.00286664	-0.00263445	-0.00797014	1	-9.8651e-05	13	2.09969e-08
2	0	0	1	0	10.9611	-0.00586762	-0.00575567	-0.00795551	1	-9.98613e-05	13	4.57893e-08
2	0	0	1	0	11.1112	-0.00886948	-0.00876141	-0.00794817	1	-0.00010107	13	6.96371e-08
2	0	0	1	0	11.2613	-0.0118696	-0.011718	-0.00792602	1	-0.000102276	13	9.28775e-08
2	0	0	1	0	11.4113	-0.0148705	-0.0147045	-0.00791841	1	-0.000103479	13	1.16436e-07
2	0	0	1	0	11.5613	-0.0178715	-0.0177483	-0.00791559	1	-0.000104681	13	1.40488e-07
2	0	0	1	0	11.7113	-0.0208725	-0.020738	-0.00789494	1	-0.000105882	13	1.63725e-07
2	0	0	1	0	11.8615	-0.0238735	-0.0237436	-0.00788631	1	-0.000107082	13	1.87249e-07
2	0	0	1	0	12.0115	-0.0268744	-0.0267449	-0.00787691	1	-0.000108279	13	2.10667e-07
2	0	0	1	0	12.1615	-0.0298754	-0.0297653	-0.00787181	1	-0.000109476	13	2.34307e-07
2	0	0	1	0	12.3115	-0.0328764	-0.032773	-0.00786527	1	-0.000110672	13	2.57769e-07
2	0	0	1	0	12.4617	-0.0358773	-0.035785	-0.00785617	1	-0.000111868	13	2.81133e-07
2	0	0	1	0	12.6117	-0.0388783	-0.0387152	-0.00784501	1	-0.000113061	13	3.03721e-07
2	0	0	1	0	12.7617	-0.0418793	-0.0417357	-0.00784567	1	-0.000114253	13	3.27444e-07
2	0	0	1	0	12.9117	-0.0448803	-0.0447487	-0.00784513	1	-0.000115445	13	3.51059e-07
2	0	0	1	0	13.0619	-0.0478812	-0.0477755	-0.00784429	1	-0.000116638	13	3.74765e-07
2	0	0	1	0	13.2119	-0.0508822	-0.0507408	-0.00783227	1	-0.000117829	13	3.97415e-07
2	0	0	1	0	13.3619	-0.0538832	-0.0537612	-0.00783063	1	-0.000119019	13	4.20984e-07
2	0	0	1	0	13.5119	-0.0568842	-0.0567763	-0.00782331	1	-0.000120209	13	4.44179e-07
2	0	0	1	0	13.6621	-0.0598851	-0.0597639	-0.0078199	1	-0.0001214	13	4.67347e-07
2	0	0	1	0	13.8121	-0.0628861	-0.0627567	-0.00782013	1	-0.000122588	13	4.90766e-07
2	0	0	1	0	13.9621	-0.0658871	-0.065739	-0.00781086	1	-0.000123777	13	5.13478e-07
2	0	0	1	0	14.1121	-0.068888	-0.0688072	-0.00781229	1	-0.000124965	13	5.37542e-07
2	0	0	1	0	14.2623	-0.071889	-0.0717544	-0.0078114	1	-0.000126155	13	5.60502e-07
2	0	0	1	0	14.4123	-0.07489	-0.0747579	-0.00780327	1	-0.000127342	13	5.83355e-07
2	0	0	1	0	14.5623	-0.077891	-0.0777136	-0.0078131	1	-0.00012853	13	6.07184e-07
2	0	0	1	0	14.7123	-0.0808919	-0.0807669	-0.00780913	1	-0.000129717	13	6.30719e-07
2	0	0	1	0	14.8625	-0.0838929	-0.0837852	-0.00780729	1	-0.000130906	13	6.54135e-07
2	0	0	1	0	15.0125	-0.0868939	-0.086742	-0.00781189	1	-0.000132093	13	6.77618e-07
2	0	0	1	0	15.1625	-0.0898949	-0.0897433	-0.00780583	1	-0.00013328	13	7.00521e-07
2	0	0	1	0	15.3125	-0.0928958	-0.092803	-0.00780599	1	-0.000134468	13	7.2442e-07
2	0	0	1	0	15.4626	-0.095895	-0.0957744	-0.00781334	1	-0.000135657	13	7.48318e-07
2	0	0	1	0	15.6127	-0.0988978	-0.0987919	-0.00781418	1	-0.000136846	13	7.71978e-07
2	0	0	1	0	15.7627	-0.101899	-0.101776	-0.00781649	1	-0.000138033	13	7.95533e-07
2	0	0	1	0	15.9127	-0.1049	-0.104787	-0.00781192	1	-0.000139222	13	8.18589e-07
2	0	0	1	0	16.0628	-0.107901	-0.107775	-0.00781658	1	-0.000140411	13	8.42429e-07
2	0	0	1	0	16.2129	-0.110902	-0.110779	-0.00781677	1	-0.000141601	13	8.65936e-07
2	0	0	1	0	16.3629	-0.113903	-0.113726	-0.00782089	1	-0.000142789	13	8.89443e-07
2	0	0	1	0	16.5129	-0.116904	-0.116793	-0.00782246	1	-0.000143979	13	9.13604e-07
2	0	0	1	0	16.663	-0.119906	-0.119747	-0.00782891	1	-0.00014517	13	9.37484e-07
2	0	0	1	0	16.8131	-0.122906	-0.122777	-0.00783437	1	-0.000146361	13	9.61882e-07
2	0	0	1	0	16.9631	-0.125907	-0.125762	-0.00782745	1	-0.000147552	13	9.84392e-07
2	0	0	1	0	17.1131	-0.128908	-0.128777	-0.00783445	1	-0.000148743	13	1.00889e-06
2	0	0	1	0	17.2631	-0.131908	-0.131788	-0.00784211	1	-0.000149934	13	1.03349e-06
2	0	0	1	0	17.4133	-0.134909	-0.134792	-0.0078463	1	-0.000151128	13	1.05762e-06
2	0	0	1	0	17.5633	-0.13791	-0.137815	-0.00784318	1	-0.000152322	13	1.08091e-06
2	0	0	1	0	17.7133	-0.140911	-0.140803	-0.0078509	1	-0.000153515	13	1.10543e-06
2	0	0	1	0	17.8633	-0.143912	-0.143814	-0.00785701	1	-0.000154709	13	1.12995e-06
2	0	0	1	0	18.0135	-0.146913	-0.14678	-0.00786575	1	-0.000155906	13	1.15454e-06
2	0	0	1	0	18.1635	-0.149914	-0.149805	-0.00785888	1	-0.000157102	13	1.1773e-06
2	0	0	1	0	18.3135	-0.152915	-0.152808	-0.00786605	1	-0.000158298	13	1.20199e-06
2	0	0	1	0	18.4635	-0.155916	-0.155788	-0.00787642	1	-0.000159495	13	1.22705e-06
2	0	0	1	0	18.6137	-0.158917	-0.158811	-0.0078795	1	-0.000160695	13	1.25135e-06
2	0	0	1	0	18.7637	-0.161918	-0.161786	-0.00788829	1	-0.000161894	13	1.27622e-06
2	0	0	1	0	18.9137	-0.164919	-0.164795	-0.00788905	1	-0.000163094	13	1.30007e-06
2	0	0	1	0	19.0637	-0.16792	-0.167762	-0.0078982	1	-0.000164296	13	1.32502e-06
2	0	0	1	0	19.2139	-0.170921	-0.170825	-0.00791027	1	-0.000165499	13	1.35127e-06
2	0	0	1	0	19.3639	-0.173922	-0.173811	-0.00791551	1	-0.000166703	13	1.3758e-06
2	0	0	1	0	19.5139	-0.176923	-0.176832	-0.00792126	1	-0.000167908	13	1.40073e-06
2	0	0	1	0	19.6639	-0.179924	-0.179814	-0.00793871	1	-0.000169113	13	1.42749e-06
2	0	0	1	0	19.8141	-0.182925	-0.1828	-0.00794408	1	-0.000170322	13	1.45218e-06
2	0	0	1	0	19.9641	-0.185926	-0.185806	-0.00795082	1	-0.000171531	13	1.47731e-06
2	0	0	1	0	20.1141	-0.188927	-0.188855	-0.00796475	1	-0.000172742	13	1.50419e-06
2	0	0	1	0	20.2641	-0.191928	-0.191809	-0.00796848	1	-0.000173954	13	1.52843e-06
2	0	0	1	0	20.4143	-0.194929	-0.194825	-0.00797902	1	-0.000175169	13	1.55451e-06
2	0	0	1	0	20.5643	-0.19793	-0.19784	-0.00800053	1	-0.000176384	13	1.58283e-06
2	0	0	0	0	20.6672	-0.199981	-0.199904	-0.00799521	1	-0.000177219	13	1.59827e-06
2	0	0	1	0	20.7947	-0.19743	-0.197301	-0.00700677	1	-0.000178141	13	1.38245e-06
2	0	0	1	0	20.9448	-0.194429	-0.194297	-0.00653342	1	-0.000179137	13	1.26942e-06
2	0	0	1	0	21.0949	-0.191428	-0.191288	-0.00618002	1	-0.000180073	13	1.18216e-06
2	0	0	1	0	21.2449	-0.188427	-0.188339	-0.0059009	1	-0.000180962	13	1.11137e-06
2	0	0	1	0	21.3949	-0.185426	-0.185342	-0.00566163	1	-0.000181812	13	1.04934e-06
2	0	0	1	0	21.545	-0.182423	-0.182279	-0.00544751	1	-0.000182629	13	9.92967e-07
2	0	0	1	0	21.6951	-0.179424	-0.179302	-0.0052681	1	-0.000183416	13	9.44581e-07
2	0	0	1	0	21.8451	-0.176423	-0.176281	-0.0050953	1	-0.000184176	13	8.98206e-07
2	0	0	1	0	21.9951	-0.173422	-0.173289	-0.00494435	1	-0.000184912	13	8.568e-07
2	0	0	1	0	22.1451	-0.170421	-0.170307	-0.00479433	1	-0.000185626	13	8.1651e-07
2	0	0	1	0	22.2953	-0.16742	-0.167308	-0.00466682	1	-0.000186319	13	7.80797e-07
2	0	0	1	0	22.4753	-0.163819	-0.163602	-0.0044144	1	-0.000187126	14	7.22206e-07
2	0	0	1	0	22.6253	-0.160818	-0.160659	-0.00429327	1	-0.000187778	14	6.89754e-07
2	0	0	1	0	22.7753	-0.157817	-0.157637	-0.00418158	1	-0.000188412	14	6.59171e-07
2	0	0	1	0	22.9255	-0.154816	-0.154663	-0.00408401	1	-0.000189032	14	6.31646e-07
2	0	0	1	0	23.0755	-0.151815	-0.15166	-0.00398863	1	-0.000189636	14	6.04914e-07
2	0	0	1	0	23.2255	-0.148814	-0.148684	-0.00389711	1	-0.000190227	14	5.79436e-07
2	0	0	1	0	23.3755	-0.145813	-0.145605	-0.00381117	1	-0.000190804	14	5.54925e-07
2	0	0	1	0	23.5257	-0.142812	-0.142644	-0.00372701	1	-0.000191368	14	5.31635e-07
2	0	0	1	0	23.6757	-0.139811	-0.139636	-0.00364554	1	-0.00019192	14	5.09049e-07
2	0	0	1	0	23.8257	-0.13681	-0.136648	-0.00357252	1	-0.000192461	14	4.88176e-07
2	0	0	1	0	23.9757	-0.133809	-0.133662	-0.00349848	1	-0.00019299	14	4.67614e-07
2	0	0	1	0	24.1259	-0.130808	-0.130605	-0.0034281	1	-0.00019351	14	4.47726e-07
2	0	0	1	0	24.2759	-0.127807	-0.127618	-0.00336168	1	-0.000194018	14	4.29012e-07
2	0	0	1	0	24.4259	-0.124806	-0.124607	-0.00330091	1	-0.000194517	14	4.11318e-07
2	0	0	1	0	24.5759	-0.121805	-0.121673	-0.00323549	1	-0.000195006	14	3.93671e-07
2	0	0	1	0	24.7261	-0.118804	-0.11868	-0.00317667	1	-0.000195486	14	3.77007e-07
2	0	0	1	0	24.8761	-0.115803	-0.115631	-0.00311717	1	-0.000195957	14	3.60441e-07
2	0	0	1	0	25.0261	-0.112802	-0.112628	-0.00306299	1	-0.000196419	14	3.4498e-07
2	0	0	1	0	25.1761	-0.109801	-0.109623	-0.00300447	1	-0.000196873	14	3.29358e-07
2	0	0	1	0	25.3263	-0.1068	-0.10661	-0.00295516	1	-0.00019732	14	3.15049e-07
2	0	0	1	0	25.4763	-0.103799	-0.103651	-0.00290338	1	-0.000197758	14	3.00938e-07
2	0	0	1	0	25.6263	-0.100798	-0.100618	-0.00285202	1	-0.000198189	14	2.86964e-07
2	0	0	1	0	25.7763	-0.0977974	-0.097627	-0.00280449	1	-0.000198612	14	2.73794e-07
2	0	0	1	0	25.9265	-0.0947964	-0.0946087	-0.00275925	1	-0.000199029	14	2.61049e-07
2	0	0	1	0	26.0765	-0.0917955	-0.0916265	-0.00270679	1	-0.000199438	14	2.48014e-07
2	0	0	1	0	26.2265	-0.0887945	-0.0886039	-0.00266383	1	-0.00019984	14	2.36025e-07
2	0	0	1	0	26.3765	-0.0857935	-0.0856132	-0.00262203	1	-0.000200236	14	2.24481e-07
2	0	0	1	0	26.5267	-0.0827926	-0.0826086	-0.00258089	1	-0.000200625	14	2.13204e-07
2	0	0	1	0	26.6767	-0.0797916	-0.0796381	-0.00253727	1	-0.000201008	14	2.02063e-07
2	0	0	1	0	26.8267	-0.0767906	-0.076642	-0.00249882	1	-0.000201384	14	1.91515e-07
2	0	0	1	0	26.9767	-0.0737896	-0.0736407	-0.00246031	1	-0.000201755	14	1.81179e-07
2	0	0	1	0	27.1268	-0.0707896	-0.0706164	-0.00242026	1	-0.00020212	14	1.7091e-07
2	0	0	1	0	27.2769	-0.0677877	-0.0676211	-0.00237747	1	-0.000202479	14	1.60767e-07
2	0	0	1	0	27.4269	-0.0647867	-0.0646123	-0.00234079	1	-0.000202832	14	1.51244e-07
2	0	0	1	0	27.5769	-0.0617857	-0.0615929	-0.00230853	1	-0.00020318	14	1.42189e-07
2	0	0	1	0	27.727	-0.0587839	-0.0586244	-0.00227186	1	-0.000203522	14	1.33186e-07
2	0	0	1	0	27.8771	-0.0557838	-0.0556104	-0.002237	1	-0.000203859	14	1.244e-07
2	0	0	1	0	28.0271	-0.0527828	-0.0526143	-0.00220065	1	-0.000204191	14	1.15786e-07
2	0	0	1	0	28.1771	-0.0497819	-0.0496247	-0.00216482	1	-0.000204517	14	1.07428e-07
2	0	0	1	0	28.3271	-0.0467809	-0.0466138	-0.00213434	1	-0.000204839	14	9.94899e-08
2	0	0	1	0	28.4773	-0.0437799	-0.043588	-0.00209989	1	-0.000205156	14	9.15302e-08
2	0	0	1	0	28.6273	-0.0407789	-0.0406058	-0.00206578	1	-0.000205468	14	8.38828e-08
2	0	0	1	0	28.7773	-0.037778	-0.0375737	-0.00203568	1	-0.000205774	14	7.64879e-08
2	0	0	1	0	28.9273	-0.034777	-0.0345819	-0.00200559	1	-0.000206077	14	6.93572e-08
2	0	0	1	0	29.0775	-0.031776	-0.0316039	-0.00197623	1	-0.000206375	14	6.24565e-08
2	0	0	1	0	29.2275	-0.028775	-0.0285548	-0.00194534	1	-0.000206668	14	5.55488e-08
2	0	0	1	0	29.3775	-0.0257741	-0.0255874	-0.00191404	1	-0.000206956	14	4.89754e-08
2	0	0	1	0	29.5275	-0.0227731	-0.0225925	-0.00189415	1	-0.00020724	14	4.27935e-08
2	0	0	1	0	29.6777	-0.0197721	-0.0196038	-0.00185623	1	-0.00020752	14	3.63892e-08
2	0	0	1	0	29.8277	-0.0167712	-0.0166471	-0.0018244	1	-0.000207795	14	3.03709e-08
2	0	0	1	0	29.9777	-0.0137702	-0.0136298	-0.00179681	1	-0.000208066	14	2.44901e-08
2	0	0	1	0	30.1277	-0.0107692	-0.0105935	-0.00177185	1	-0.000208332	14	1.877e-08
2	0	0	1	0	30.2779	-0.00776823	-0.00759425	-0.00174093	1	-0.000208595	14	1.32211e-08
2	0	0	1	0	30.4279	-0.00476726	-0.00459079	-0.00171359	1	-0.000208853	14	7.86671e-09
2	0	0	1	0	30.5779	-0.00176629	-0.00153216	-0.00167732	1	-0.000209104	14	2.56991e-09
2	0	0	1	0	30.7279	0.00123468	0.00148722	-0.00165068	1	-0.000209353	14	-2.45492e-09
2	0	0	1	0	30.8781	0.00423566	0.00447052	-0.00162344	1	-0.000209598	14	-7.25762e-09
2	0	0	1	0	31.0281	0.00723663	0.00746868	-0.00159465	1	-0.000209839	14	-1.19099e-08
2	0	0	1	0	31.1781	0.0102376	0.0104881	-0.00156623	1	-0.000210075	14	-1.64267e-08
2	0	0	1	0	31.3281	0.0132386	0.0134714	-0.00154047	1	-0.000210307	14	-2.07522e-08
2	0	0	1	0	31.4783	0.0162395	0.0164472	-0.00151462	1	-0.000210536	14	-2.49114e-08
2	0	0	1	0	31.6283	0.0192405	0.0194539	-0.00148633	1	-0.00021076	14	-2.8915e-08
2	0	0	1	0	31.7783	0.0222415	0.0224669	-0.00145554	1	-0.000210979	14	-3.27014e-08
2	0	0	1	0	31.9283	0.0252425	0.0254512	-0.00142662	1	-0.000211194	14	-3.63093e-08
2	0	0	1	0	32.0784	0.0282417	0.0284931	-0.0014037	1	-0.000211406	14	-3.99959e-08
2	0	0	1	0	32.2285	0.0312444	0.0315186	-0.00136918	1	-0.000211613	14	-4.31548e-08
2	0	0	1	0	32.3785	0.0342454	0.0344998	-0.00133669	1	-0.000211815	14	-4.61157e-08
2	0	0	1	0	32.5285	0.0372463	0.0374905	-0.00130888	1	-0.000212013	14	-4.90707e-08
2	0	0	1	0	32.6786	0.0402469	0.0405187	-0.00128038	1	-0.000212206	14	-5.18792e-08
2	0	0	1	0	32.8287	0.0432483	0.0434561	-0.0012491	1	-0.000212395	14	-5.42808e-08
2	0	0	1	0	32.9787	0.0462493	0.0464787	-0.00121703	1	-0.000212579	14	-5.65661e-08
2	0	0	1	0	33.1287	0.0492502	0.0494821	-0.00118075	1	-0.000212758	14	-5.84258e-08
2	0	0	1	0	33.2788	0.0522521	0.0524961	-0.00114867	1	-0.000212932	14	-6.03006e-08
2	0	0	1	0	33.4289	0.0552522	0.0554975	-0.00111539	1	-0.000213102	14	-6.19012e-08
2	0	0	1	0	33.5789	0.0582531	0.0585296	-0.0010768	1	-0.000213265	14	-6.30247e-08
2	0	0	1	0	33.7289	0.0612541	0.0615267	-0.00104021	1	-0.000213423	14	-6.40008e-08
2	0	0	1	0	33.8789	0.0642551	0.0644793	-0.00100481	1	-0.000213576	14	-6.47896e-08
2	0	0	1	0	34.0291	0.0672561	0.0674827	-0.000969894	1	-0.000213724	14	-6.54511e-08
2	0	0	1	0	34.1791	0.070257	0.0705106	-0.00092727	1	-0.000213865	14	-6.53824e-08
2	0	0	1	0	34.3291	0.073258	0.0735268	-0.000880858	1	-0.000213999	14	-6.47667e-08
2	0	0	1	0	34.4791	0.076259	0.0765218	-0.000838239	1	-0.000214127	14	-6.41435e-08
2	0	0	1	0	34.6293	0.0792599	0.0795157	-0.000796698	1	-0.000214249	14	-6.335e-08
2	0	0	1	0	34.7793	0.0822609	0.0824799	-0.000742048	1	-0.000214363	14	-6.1204e-08
2	0	0	1	0	34.9293	0.0852619	0.0854833	-0.000688015	1	-0.00021447	14	-5.88138e-08
2	0	0	1	0	35.0793	0.0882629	0.0885557	-0.000635449	1	-0.000214569	14	-5.62726e-08
2	0	0	1	0	35.2295	0.0912638	0.0915157	-0.000580583	1	-0.000214659	14	-5.31324e-08
2	0	0	1	0	35.3795	0.0942648	0.0945319	-0.000520901	1	-0.000214741	14	-4.92418e-08
2	0	0	1	0	35.5295	0.0972658	0.0974781	-0.000456205	1	-0.000214814	14	-4.447e-08
2	0	0	1	0	35.6795	0.100267	0.100508	-0.00038605	1	-0.000214876	14	-3.88012e-08
2	0	0	1	0	35.8297	0.103268	0.103495	-0.000311972	1	-0.000214928	14	-3.22874e-08
2	0	0	1	0	35.9797	0.106269	0.1065	-0.00023625	1	-0.000214969	14	-2.51607e-08
2	0	0	1	0	36.1297	0.10927	0.109557	-0.000150851	1	-0.000214997	14	-1.65267e-08
2	0	0	1	0	36.2797	0.112271	0.112536	-6.15775e-05	1	-0.000215012	14	-6.92966e-09
2	0	0	1	0	36.4299	0.115272	0.115503	3.38455e-05	1	-0.000215013	14	3.90926e-09
2	1	0	1	0	36.5799	0.118273	0.118524	0.000135212	1	-0.000214999	14	1.60258e-08
2	1	0	1	0	36.7299	0.121274	0.121514	0.000254036	1	-0.000214969	14	3.0869e-08
2	1	0	1	0	36.8799	0.124275	0.124515	0.000384145	1	-0.00021492	14	4.78317e-08
2	1	0	1	0	37.0301	0.127275	0.12752	0.000511186	1	-0.000214853	14	6.51865e-08
2	1	0	1	0	37.1801	0.130276	0.130535	0.000651637	1	-0.000214764	14	8.50616e-08
2	1	0	1	0	37.3301	0.133277	0.133512	0.000810718	1	-0.000214654	14	1.08241e-07
2	1	0	1	0	37.4801	0.136278	0.136553	0.000980186	1	-0.000214518	14	1.33847e-07
2	1	0	1	0	37.6302	0.139278	0.139494	0.0011656	1	-0.000214356	14	1.62594e-07
2	1	0	1	0	37.7803	0.14228	0.14252	0.001368	1	-0.000214165	14	1.94968e-07
2	1	0	1	0	37.9303	0.145281	0.145533	0.00158034	1	-0.000213943	14	2.29992e-07
2	1	0	1	0	38.0803	0.148282	0.148519	0.00182029	1	-0.000213688	14	2.70347e-07
2	1	0	1	0	38.2304	0.151283	0.151532	0.00207344	1	-0.000213395	14	3.14192e-07
2	1	0	1	0	38.3805	0.154284	0.154534	0.00234857	1	-0.000213062	14	3.62934e-07
2	1	0	1	0	38.5305	0.157285	0.157497	0.00263765	1	-0.000212688	14	4.15423e-07
2	1	0	1	0	38.6805	0.160286	0.160535	0.00295926	1	-0.000212267	14	4.75064e-07
2	1	0	1	0	38.8306	0.163288	0.163517	0.00330502	1	-0.000211796	14	5.40426e-07
2	1	0	1	0	38.9807	0.166288	0.166523	0.00367059	1	-0.000211271	14	6.11237e-07
2	1	0	1	0	39.1307	0.169289	0.169509	0.00404263	1	-0.000210692	14	6.85263e-07
2	1	0	1	0	39.2807	0.17229	0.172514	0.00447022	1	-0.000210052	14	7.71174e-07
2	1	0	1	0	39.4307	0.175291	0.175532	0.00492161	1	-0.000209347	14	8.639e-07
2	1	0	1	0	39.5809	0.178292	0.17857	0.00538289	1	-0.000208573	14	9.61226e-07
2	1	0	1	0	39.7309	0.181293	0.181564	0.00586036	1	-0.000207729	14	1.06403e-06
2	1	0	1	0	39.8809	0.184294	0.1845	0.00637144	1	-0.00020681	14	1.17553e-06
2	1	0	1	0	40.0309	0.187295	0.187537	0.00690014	1	-0.000205814	14	1.29403e-06
2	1	0	1	0	40.1811	0.190296	0.19054	0.00745365	1	-0.000204734	14	1.42022e-06
2	1	0	1	0	40.3311	0.193297	0.193597	0.00801864	1	-0.000203573	14	1.55239e-06
2	1	0	1	0	40.4811	0.196298	0.196525	0.00858637	1	-0.000202328	14	1.68744e-06
2	1	0	1	0	40.6311	0.199299	0.199562	0.00917027	1	-0.000200996	14	1.83004e-06
2	1	0	1	0	40.7813	0.2023	0.202612	0.00975449	1	-0.000199573	14	1.97638e-06
2	1	0	1	0	40.9313	0.205301	0.205552	0.0103308	1	-0.000198066	14	2.12351e-06
2	1	0	1	0	41.0813	0.208302	0.208514	0.0108817	1	-0.000196473	14	2.26898e-06
2	1	0	1	0	41.2613	0.211903	0.212064	0.0114121	1	-0.000194458	13	2.42009e-06
2	1	0	1	0	41.4115	0.214904	0.215093	0.0119419	1	-0.000192684	13	2.56862e-06
2	1	0	1	0	41.5615	0.217905	0.218117	0.0124403	1	-0.000190834	13	2.71345e-06
2	1	0	1	0	41.7115	0.220906	0.221093	0.0128694	1	-0.000188915	13	2.84534e-06
2	1	0	1	0	41.8615	0.223907	0.224118	0.0132898	1	-0.000186932	13	2.97848e-06
2	1	0	1	0	42.0117	0.226908	0.227131	0.0136715	1	-0.000184887	13	3.10522e-06
2	1	0	1	0	42.1617	0.229909	0.230149	0.0139832	1	-0.000182793	13	3.21823e-06
2	1	0	1	0	42.3117	0.23291	0.233117	0.0142351	1	-0.000180655	13	3.31843e-06
2	1	0	1	0	42.4617	0.235911	0.236116	0.0144634	1	-0.000178483	13	3.41504e-06
2	1	0	1	0	42.6119	0.238912	0.239122	0.014637	1	-0.000176278	13	3.50003e-06
2	1	0	1	0	42.7619	0.241913	0.242111	0.014763	1	-0.000174053	13	3.57428e-06
2	1	0	1	0	42.9119	0.244914	0.245102	0.0148457	1	-0.000171813	13	3.6387e-06
2	1	0	1	0	43.0619	0.247915	0.248116	0.0148722	1	-0.000169566	13	3.69003e-06
2	1	0	1	0	43.2121	0.250916	0.251085	0.0148704	1	-0.000167314	13	3.73375e-06
2	1	0	1	0	43.3621	0.253916	0.254108	0.014845	1	-0.000165067	13	3.77222e-06
2	1	0	1	0	43.5121	0.256917	0.25713	0.01477	1	-0.000162828	13	3.7978e-06
2	1	0	1	0	43.6621	0.259918	0.260143	0.014669	1	-0.000160603	13	3.81604e-06
2	1	0	1	0	43.8123	0.262919	0.263137	0.0145491	1	-0.00015839	13	3.82841e-06
2	1	0	1	0	43.9623	0.26592	0.266155	0.0144112	1	-0.0001562	13	3.83562e-06
2	1	0	1	0	44.1123	0.268921	0.269126	0.0142588	1	-0.000154032	13	3.83741e-06
2	1	0	1	0	44.2623	0.271922	0.272133	0.0140764	1	-0.00015189	13	3.83065e-06
2	1	0	1	0	44.4124	0.274922	0.275143	0.0138994	1	-0.000149772	13	3.82434e-06
2	1	0	1	0	44.5625	0.277924	0.278155	0.0137264	1	-0.000147682	13	3.81807e-06
2	1	0	1	0	44.7125	0.280925	0.281169	0.0135345	1	-0.000145622	13	3.80548e-06
2	1	0	1	0	44.8625	0.283926	0.28414	0.0133265	1	-0.000143591	13	3.7866e-06
2	1	0	1	0	45.0126	0.286928	0.287136	0.0131298	1	-0.000141589	13	3.77003e-06
2	1	0	1	0	45.1627	0.289928	0.290173	0.0129359	1	-0.000139617	13	3.75366e-06
2	1	0	1	0	45.3127	0.292929	0.293187	0.0127388	1	-0.000137676	13	3.73485e-06
2	1	0	1	0	45.4627	0.29593	0.296183	0.0125454	1	-0.000135764	13	3.71572e-06
2	1	0	1	0	45.6128	0.298933	0.299187	0.0123542	1	-0.00013388	13	3.69623e-06
2	1	0	1	0	45.7629	0.301932	0.302145	0.0121673	1	-0.000132025	13	3.67629e-06
2	1	0	1	0	45.9129	0.304933	0.305161	0.011985	1	-0.000130199	13	3.65737e-06
2	1	0	1	0	46.0629	0.307934	0.308181	0.011812	1	-0.000128401	13	3.64024e-06
2	1	0	1	0	46.2129	0.310935	0.31116	0.011635	1	-0.000126629	13	3.62033e-06
2	1	0	1	0	46.3631	0.313936	0.314145	0.01146	1	-0.00012488	13	3.6001e-06
2	1	0	1	0	46.5131	0.316937	0.317127	0.0112992	1	-0.000123159	13	3.58328e-06
2	1	0	1	0	46.6631	0.319938	0.320132	0.0111381	1	-0.000121462	13	3.56566e-06
2	1	0	1	0	46.8131	0.322939	0.323149	0.0109899	1	-0.000119788	13	3.55137e-06
2	1	0	1	0	46.9633	0.32594	0.326169	0.010833	1	-0.000118136	13	3.53338e-06
2	1	0	1	0	47.1133	0.328941	0.329111	0.0107	1	-0.000116507	13	3.5215e-06
2	1	0	1	0	47.2633	0.331942	0.332169	0.0105579	1	-0.0001149	13	3.50702e-06
2	1	0	1	0	47.4133	0.334943	0.335163	0.0104179	1	-0.000113314	13	3.4917e-06
2	1	0	1	0	47.5635	0.337944	0.338133	0.0102852	1	-0.000111746	13	3.47775e-06
2	1	0	1	0	47.7135	0.340945	0.341165	0.0101563	1	-0.000110201	13	3.46497e-06
2	1	0	1	0	47.8635	0.343946	0.34417	0.010032	1	-0.000108673	13	3.45271e-06
2	1	0	1	0	48.0135	0.346947	0.347178	0.00991034	1	-0.000107165	13	3.44065e-06
2	1	0	1	0	48.1637	0.349948	0.350157	0.00978144	1	-0.000105674	13	3.42504e-06
2	1	0	1	0	48.3137	0.352949	0.353156	0.00967342	1	-0.000104201	13	3.41623e-06
2	1	0	1	0	48.4637	0.355949	0.356119	0.00955963	1	-0.000102746	13	3.40437e-06
2	1	0	1	0	48.6137	0.358951	0.359211	0.00945035	1	-0.000101308	13	3.39467e-06
2	1	0	1	0	48.7639	0.361951	0.362163	0.00933351	1	-9.98839e-05	13	3.38025e-06
2	1	0	1	0	48.9139	0.364952	0.365132	0.00923394	1	-9.84779e-05	13	3.37161e-06
2	1	0	1	0	49.0639	0.367953	0.368131	0.00913819	1	-9.70873e-05	13	3.36405e-06
2	1	0	1	0	49.2139	0.370954	0.371163	0.00903501	1	-9.57118e-05	13	3.35346e-06
2	1	0	1	0	49.3641	0.373955	0.374131	0.00893008	1	-9.43495e-05	13	3.34102e-06
2	1	0	1	0	49.5141	0.376956	0.377173	0.00883906	1	-9.30038e-05	13	3.33386e-06
2	1	0	1	0	49.6641	0.379957	0.380162	0.008752	1	-9.16718e-05	13	3.32718e-06
2	1	0	1	0	49.8141	0.382958	0.383185	0.00866327	1	-9.03534e-05	13	3.31963e-06
2	1	0	1	0	49.9642	0.385958	0.386208	0.0085707	1	-8.90477e-05	13	3.31008e-06
2	1	0	1	0	50.1143	0.38896	0.389198	0.00848417	1	-8.77555e-05	13	3.30202e-06
2	1	0	1	0	50.2643	0.391961	0.392163	0.00840462	1	-8.64767e-05	13	3.29598e-06
2	1	0	1	0	50.4143	0.394962	0.395192	0.00832705	1	-8.52101e-05	13	3.29079e-06
2	1	0	1	0	50.5644	0.397964	0.398202	0.00824195	1	-8.39547e-05	13	3.28196e-06
2	1	0	1	0	50.7145	0.400964	0.401188	0.00816054	1	-8.27115e-05	13	3.27391e-06
2	1	0	1	0	50.8645	0.403965	0.404177	0.00809351	1	-8.14804e-05	13	3.27121e-06
2	1	0	1	0	51.0145	0.406966	0.407209	0.00801305	1	-8.02601e-05	13	3.26299e-06
2	1	0	1	0	51.1646	0.409969	0.410177	0.00794989	1	-7.905e-05	13	3.26086e-06
2	1	0	1	0	51.3147	0.412968	0.413208	0.00787018	1	-7.78508e-05	13	3.25202e-06
2	1	0	1	0	51.4647	0.415969	0.416178	0.00780169	1	-7.66624e-05	13	3.24689e-06
2	1	0	1	0	51.6147	0.41897	0.419221	0.00774172	1	-7.54839e-05	13	3.24549e-06
2	1	0	1	0	51.7647	0.421971	0.422194	0.0076808	1	-7.4315e-05	13	3.24279e-06
2	1	0	1	0	51.9149	0.424972	0.42517	0.00761284	1	-7.31542e-05	13	3.23676e-06
2	1	0	1	0	52.0649	0.427973	0.428162	0.00754705	1	-7.20043e-05	13	3.23136e-06
2	1	0	1	0	52.2149	0.430974	0.431179	0.00749175	1	-7.08631e-05	13	3.23029e-06
2	1	0	1	0	52.3649	0.433975	0.434164	0.00743759	1	-6.97304e-05	13	3.22913e-06
2	1	0	1	0	52.5151	0.436976	0.437213	0.00738382	1	-6.86048e-05	13	3.2283e-06
2	1	0	1	0	52.6651	0.439977	0.440181	0.00732854	1	-6.74891e-05	13	3.22589e-06
2	1	0	1	0	52.8151	0.442978	0.443183	0.00728	1	-6.63811e-05	13	3.22637e-06
2	1	0	1	0	52.9651	0.445979	0.446225	0.0072365	1	-6.52804e-05	13	3.22911e-06
2	1	0	1	0	53.1153	0.44898	0.449232	0.00718762	1	-6.41857e-05	13	3.22891e-06
2	1	0	1	0	53.2653	0.451981	0.452208	0.0071251	1	-6.30998e-05	13	3.22203e-06
2	1	0	1	0	53.4153	0.454982	0.455223	0.00709185	1	-6.20206e-05	13	3.22837e-06
2	1	0	1	0	53.5653	0.457983	0.458221	0.00704363	1	-6.09478e-05	13	3.22754e-06
2	1	0	1	0	53.7155	0.460983	0.461212	0.00700322	1	-5.98799e-05	13	3.22997e-06
2	1	0	1	0	53.8655	0.463984	0.464229	0.00696132	1	-5.88198e-05	13	3.23165e-06
2	1	0	1	0	54.0155	0.466985	0.467249	0.00692213	1	-5.77656e-05	13	3.23435e-06
2	1	0	1	0	54.1655	0.469986	0.470225	0.00689182	1	-5.67169e-05	13	3.24071e-06
2	1	0	1	0	54.3157	0.472987	0.473201	0.00685524	1	-5.56721e-05	13	3.24391e-06
2	1	0	1	0	54.4657	0.475988	0.476213	0.00682015	1	-5.4634e-05	13	3.24785e-06
2	1	0	1	0	54.6157	0.478989	0.479233	0.00678641	1	-5.36011e-05	13	3.25227e-06
2	1	0	1	0	54.7657	0.48199	0.482243	0.0067579	1	-5.25726e-05	13	3.25894e-06
2	1	0	1	0	54.9159	0.484991	0.485245	0.00673189	1	-5.15472e-05	13	3.26661e-06
2	1	0	1	0	55.0659	0.487992	0.488229	0.00670223	1	-5.05275e-05	13	3.27223e-06
2	1	0	1	0	55.2159	0.490993	0.491239	0.00667582	1	-4.95121e-05	13	3.27942e-06
2	1	0	1	0	55.3659	0.493994	0.494215	0.00664597	1	-4.85006e-05	13	3.28454e-06
2	1	0	1	0	55.516	0.496994	0.497217	0.00662494	1	-4.74918e-05	13	3.29403e-06
2	1	0	1	0	55.6511	0.499696	0.499965	0.00660535	1	-4.65871e-05	13	3.30245e-06
2	1	0	1	1	55.6688	0.499946	0.50029	0.00655164	1	-4.64694e-05	13	3.27772e-06
2	1	0	1	1	55.7963	0.497395	0.497624	0.0057978	1	-4.57086e-05	13	2.88512e-06
2	1	0	1	1	55.9465	0.494394	0.494602	0.00541521	1	-4.48812e-05	13	2.67837e-06
2	1	0	1	1	56.0965	0.491393	0.491603	0.00513301	1	-4.41038e-05	13	2.5234e-06
2	1	0	1	1	56.2465	0.488392	0.488597	0.0048999	1	-4.33649e-05	13	2.39408e-06
2	1	0	1	1	56.3965	0.485391	0.485623	0.00468728	1	-4.26586e-05	13	2.27625e-06
2	1	0	1	1	56.5617	0.48209	0.482328	0.00449251	1	-4.19145e-05	13	2.16687e-06
2	1	0	1	1	56.7267	0.478789	0.478955	0.00424596	1	-4.12001e-05	14	2.03362e-06
2	1	0	1	1	56.8767	0.475788	0.475983	0.0041005	1	-4.05757e-05	14	1.95177e-06
2	1	0	1	1	57.0267	0.472787	0.472964	0.00395732	1	-3.99726e-05	14	1.87167e-06
2	1	0	1	1	57.1769	0.469786	0.469992	0.00382989	1	-3.93888e-05	14	1.80002e-06
2	1	0	1	1	57.3269	0.466785	0.466966	0.00370949	1	-3.88248e-05	14	1.7322e-06
2	1	0	1	1	57.4769	0.463784	0.463983	0.00359624	1	-3.82781e-05	14	1.66859e-06
2	1	0	1	1	57.6269	0.460783	0.460998	0.00348947	1	-3.77476e-05	14	1.60864e-06
2	1	0	1	1	57.7771	0.457782	0.458028	0.0033873	1	-3.72324e-05	14	1.55148e-06
2	1	0	1	1	57.9271	0.454782	0.454937	0.00328745	1	-3.67331e-05	14	1.49558e-06
2	1	0	1	1	58.0771	0.45178	0.451933	0.00319337	1	-3.6248e-05	14	1.44319e-06
2	1	0	1	1	58.2271	0.44878	0.449007	0.00310374	1	-3.57764e-05	14	1.3936e-06
2	1	0	1	1	58.3773	0.445779	0.445958	0.00301893	1	-3.53173e-05	14	1.34632e-06
2	1	0	1	1	58.5273	0.442778	0.442927	0.00293631	1	-3.48718e-05	14	1.30057e-06
2	1	0	1	1	58.6773	0.439777	0.440006	0.00285802	1	-3.44385e-05	14	1.25755e-06
2	1	0	1	1	58.8273	0.436776	0.436918	0.00278171	1	-3.40167e-05	14	1.21538e-06
2	1	0	1	1	58.9775	0.433775	0.433959	0.00270439	1	-3.36059e-05	14	1.17359e-06
2	1	0	1	1	59.1275	0.430774	0.430926	0.00262635	1	-3.32069e-05	14	1.13176e-06
2	1	0	1	1	59.2775	0.427773	0.427936	0.00255943	1	-3.28188e-05	14	1.09527e-06
2	1	0	1	1	59.4275	0.424772	0.424953	0.00249174	1	-3.24412e-05	14	1.05887e-06
2	1	0	1	1	59.5777	0.421771	0.421972	0.00242298	1	-3.20731e-05	14	1.02243e-06
2	1	0	1	1	59.7277	0.41877	0.418976	0.00235515	1	-3.17159e-05	14	9.86751e-07
2	1	0	1	1	59.8777	0.415769	0.415917	0.00229015	1	-3.13687e-05	14	9.52512e-07
2	1	0	1	1	60.0277	0.412768	0.412928	0.0022248	1	-3.10313e-05	14	9.18685e-07
2	1	0	1	1	60.1779	0.409767	0.409964	0.00216482	1	-3.07025e-05	14	8.875e-07
2	1	0	1	1	60.3279	0.406766	0.406931	0.00209817	1	-3.03839e-05	14	8.53812e-07
2	1	0	1	1	60.4779	0.403765	0.403912	0.00203549	1	-3.00749e-05	14	8.2216e-07
2	1	0	1	1	60.6279	0.400764	0.400926	0.0019751	1	-2.9775e-05	14	7.91871e-07
2	1	0	1	1	60.778	0.397765	0.397928	0.0019152	1	-2.94839e-05	14	7.62112e-07
2	1	0	1	1	60.9281	0.394762	0.394951	0.00185461	1	-2.9202e-05	14	7.32478e-07
2	1	0	1	1	61.0781	0.391761	0.391931	0.00179294	1	-2.89296e-05	14	7.02707e-07
2	1	0	1	1	61.2281	0.38876	0.388953	0.00173105	1	-2.86663e-05	14	6.73298e-07
2	1	0	1	1	61.3782	0.38576	0.385991	0.00167561	1	-2.84117e-05	14	6.4677e-07
2	1	0	1	1	61.5283	0.382758	0.382939	0.00161071	1	-2.81662e-05	14	6.16804e-07
2	1	0	1	1	61.6783	0.379757	0.379977	0.0015464	1	-2.79303e-05	14	5.87595e-07
2	1	0	1	1	61.8283	0.376756	0.376971	0.00148578	1	-2.77038e-05	14	5.60095e-07
2	1	0	1	1	61.9784	0.373754	0.373867	0.00142676	1	-2.74864e-05	14	5.33419e-07
2	1	0	1	1	62.1285	0.370754	0.370915	0.00136114	1	-2.72781e-05	14	5.04868e-07
2	1	0	1	1	62.2785	0.367753	0.367891	0.00129639	1	-2.70798e-05	14	4.76932e-07
2	1	0	1	1	62.4285	0.364752	0.364896	0.0012275	1	-2.68915e-05	14	4.47911e-07
2	1	0	1	1	62.5785	0.361751	0.361917	0.00116128	1	-2.67133e-05	14	4.20287e-07
2	1	0	1	1	62.7287	0.35875	0.358962	0.00109137	1	-2.65445e-05	14	3.91759e-07
2	1	0	1	1	62.8787	0.355749	0.355957	0.00102022	1	-2.63869e-05	14	3.63156e-07
2	1	0	1	1	63.0287	0.352748	0.352908	0.000947638	1	-2.62402e-05	14	3.34429e-07
2	1	0	1	1	63.1787	0.349747	0.349939	0.000871856	1	-2.61046e-05	14	3.05096e-07
2	1	0	1	1	63.3289	0.346747	0.346923	0.000799014	1	-2.598e-05	14	2.77197e-07
2	1	0	1	1	63.4789	0.343746	0.343944	0.000715061	1	-2.58676e-05	14	2.45941e-07
2	1	0	1	1	63.6289	0.340745	0.340904	0.00062817	1	-2.57678e-05	14	2.14145e-07
2	1	0	1	1	63.7789	0.337744	0.337876	0.000544508	1	-2.56809e-05	14	1.83976e-07
2	1	0	1	1	63.9291	0.334743	0.334921	0.000457774	1	-2.56071e-05	14	1.53318e-07
2	1	0	1	1	64.0791	0.331742	0.331932	0.000356723	1	-2.55472e-05	14	1.18408e-07
2	1	0	1	1	64.2291	0.328741	0.328915	0.000252992	1	-2.55023e-05	14	8.32131e-08
2	1	0	1	1	64.3791	0.32574	0.3259	0.000150429	1	-2.54729e-05	14	4.90247e-08
2	1	0	1	1	64.5293	0.322739	0.322894	4.34377e-05	1	-2.54594e-05	14	1.40258e-08
2	1	0	1	1	64.6793	0.319738	0.319918	-7.12353e-05	1	-2.54626e-05	14	-2.27894e-08
2	0	0	1	1	64.8293	0.316737	0.316879	-0.000195468	1	-2.54838e-05	14	-6.19397e-08
2	0	0	1	1	64.9793	0.313736	0.313927	-0.00032639	1	-2.55243e-05	14	-1.02462e-07
2	0	0	1	1	65.1295	0.310735	0.310903	-0.000467646	1	-2.55847e-05	14	-1.45393e-07
2	0	0	1	1	65.2795	0.307734	0.307919	-0.000608475	1	-2.56658e-05	14	-1.87361e-07
2	0	0	1	1	65.4295	0.304733	0.30489	-0.000763875	1	-2.57695e-05	14	-2.32898e-07
2	0	0	1	1	65.5795	0.301732	0.30188	-0.000928887	1	-2.58973e-05	14	-2.80412e-07
2	0	0	1	1	65.7297	0.298731	0.298939	-0.00110221	1	-2.60509e-05	14	-3.29493e-07
2	0	0	1	1	65.8797	0.29573	0.295942	-0.00128821	1	-2.62313e-05	14	-3.81237e-07
2	0	0	1	1	66.0297	0.292729	0.292902	-0.00148985	1	-2.64408e-05	14	-4.36381e-07
2	0	0	1	1	66.1797	0.289728	0.289899	-0.00170785	1	-2.66817e-05	14	-4.95104e-07
2	0	0	1	1	66.3298	0.286729	0.286908	-0.00193619	1	-2.69563e-05	14	-5.55507e-07
2	0	0	1	1	66.4799	0.283726	0.283898	-0.00217546	1	-2.72664e-05	14	-6.1761e-07
2	0	0	1	1	66.6299	0.280725	0.280928	-0.0024439	1	-2.7614e-05	14	-6.86558e-07
2	0	0	1	1	66.7799	0.277724	0.277895	-0.00273104	1	-2.8003e-05	14	-7.58943e-07
2	0	0	1	1	66.93	0.274723	0.274903	-0.00303083	1	-2.84368e-05	14	-8.33185e-07
2	0	0	1	1	67.0801	0.271722	0.271902	-0.00335423	1	-2.89171e-05	14	-9.12019e-07
2	0	0	1	1	67.2301	0.268721	0.26893	-0.00369616	1	-2.94461e-05	14	-9.94008e-07
2	0	0	1	1	67.3801	0.26572	0.265919	-0.00406289	1	-3.00292e-05	14	-1.0804e-06
2	0	0	1	1	67.5302	0.262718	0.2629	-0.00447313	1	-3.06707e-05	14	-1.17599e-06
2	0	0	1	1	67.6803	0.259718	0.259879	-0.00487981	1	-3.1373e-05	14	-1.26816e-06
2	0	0	1	1	67.8303	0.256717	0.256883	-0.00531074	1	-3.21377e-05	14	-1.36424e-06
2	0	0	1	1	67.9803	0.253716	0.253871	-0.00577626	1	-3.29704e-05	14	-1.46643e-06
2	0	0	1	1	68.1303	0.250715	0.250895	-0.00626327	1	-3.38747e-05	14	-1.57143e-06
2	0	0	1	1	68.2805	0.247714	0.247895	-0.00676612	1	-3.48545e-05	14	-1.67729e-06
2	0	0	1	1	68.4305	0.244713	0.244868	-0.00728201	1	-3.59099e-05	14	-1.78313e-06
2	0	0	1	1	68.5805	0.241713	0.241862	-0.0078437	1	-3.7046e-05	14	-1.89709e-06
2	0	0	1	1	68.7305	0.238712	0.238899	-0.00841712	1	-3.82663e-05	14	-2.01084e-06
2	0	0	1	1	68.8807	0.235711	0.235872	-0.00898254	1	-3.95738e-05	14	-2.11873e-06
2	0	0	1	1	69.0307	0.23271	0.232854	-0.00954728	1	-4.09656e-05	14	-2.22313e-06
2	0	0	1	1	69.1807	0.229709	0.229914	-0.0101404	1	-4.24436e-05	14	-2.33141e-06
2	0	0	1	1	69.3307	0.226708	0.226874	-0.0107272	1	-4.40105e-05	14	-2.43373e-06
2	0	0	1	1	69.5109	0.223107	0.223331	-0.0112928	1	-4.60048e-05	13	-2.52202e-06
2	0	0	1	1	69.6609	0.220106	0.220323	-0.0118613	1	-4.77623e-05	13	-2.61332e-06
2	0	0	1	1	69.8109	0.217105	0.217297	-0.0124084	1	-4.96028e-05	13	-2.69631e-06
2	0	0	1	1	69.9609	0.214104	0.214279	-0.0129526	1	-5.15251e-05	13	-2.77546e-06
2	0	0	1	1	70.1111	0.211103	0.211285	-0.0134529	1	-5.3528e-05	13	-2.8424e-06
2	0	0	1	1	70.2611	0.208102	0.208289	-0.0139274	1	-5.56012e-05	13	-2.90092e-06
2	0	0	1	1	70.4111	0.205101	0.205308	-0.0143571	1	-5.77408e-05	13	-2.94763e-06
2	0	0	1	1	70.5611	0.2021	0.202351	-0.0147623	1	-5.99437e-05	13	-2.98716e-06
2	0	0	1	1	70.7113	0.199099	0.199311	-0.0151204	1	-6.22073e-05	13	-3.01366e-06
2	0	0	1	1	70.8613	0.196098	0.19628	-0.0154402	1	-6.45191e-05	13	-3.03061e-06
2	0	0	1	1	71.0113	0.193097	0.193299	-0.015699	1	-6.68752e-05	13	-3.0346e-06
2	0	0	1	1	71.1613	0.190096	0.190326	-0.0159502	1	-6.92696e-05	13	-3.03575e-06
2	0	0	1	1	71.3115	0.187095	0.187264	-0.0161564	1	-7.17008e-05	13	-3.0255e-06
2	0	0	1	1	71.4615	0.184094	0.184265	-0.0163147	1	-7.41553e-05	13	-3.00624e-06
2	0	0	1	1	71.6115	0.181093	0.181276	-0.0164073	1	-7.66292e-05	13	-2.97425e-06
2	0	0	1	1	71.7615	0.178092	0.178301	-0.0164825	1	-7.91158e-05	13	-2.93885e-06
2	0	0	1	1	71.9117	0.175091	0.175278	-0.0165392	1	-8.16146e-05	13	-2.89897e-06
2	0	0	1	1	72.0617	0.17209	0.172286	-0.0165403	1	-8.41135e-05	13	-2.84966e-06
2	0	0	1	1	72.2117	0.169089	0.169274	-0.0165069	1	-8.66097e-05	13	-2.79419e-06
2	0	0	1	1	72.3617	0.166088	0.16626	-0.0164377	1	-8.90978e-05	13	-2.73293e-06
2	0	0	1	1	72.5119	0.163087	0.163307	-0.0163504	1	-9.15783e-05	13	-2.67013e-06
2	0	0	1	1	72.6619	0.160086	0.160237	-0.0162429	1	-9.40412e-05	13	-2.60271e-06
2	0	0	1	1	72.8119	0.157085	0.157265	-0.0161105	1	-9.64852e-05	13	-2.53362e-06
2	0	0	1	1	72.9619	0.154084	0.154292	-0.0159482	1	-9.89058e-05	13	-2.46068e-06
2	0	0	1	1	73.112	0.151085	0.151293	-0.015763	1	-0.000101302	13	-2.38484e-06
2	0	0	1	1	73.2621	0.148082	0.148275	-0.0155742	1	-0.000103671	13	-2.30927e-06
2	0	0	1	1	73.4121	0.145081	0.14528	-0.0153642	1	-0.000106008	13	-2.23211e-06
2	0	0	1	1	73.5621	0.14208	0.142306	-0.0151396	1	-0.000108312	13	-2.15445e-06
2	0	0	1	1	73.7122	0.139079	0.139269	-0.0149181	1	-0.000110585	13	-2.07764e-06
2	0	0	1	1	73.8623	0.136078	0.136233	-0.0147091	1	-0.000112825	13	-2.00387e-06
2	0	0	1	1	74.0123	0.133077	0.13327	-0.0144868	1	-0.000115031	13	-1.93066e-06
2	0	0	1	1	74.1623	0.130076	0.130241	-0.0142627	1	-0.000117202	13	-1.85759e-06
2	0	0	1	1	74.3124	0.127074	0.127306	-0.0140539	1	-0.000119343	13	-1.78914e-06
2	0	0	1	1	74.4625	0.124074	0.124292	-0.0138463	1	-0.000121452	13	-1.72099e-06
2	0	0	1	1	74.6125	0.121073	0.121237	-0.0136519	1	-0.00012353	13	-1.65512e-06
2	0	0	1	1	74.7625	0.118073	0.118249	-0.0134612	1	-0.000125578	13	-1.59177e-06
2	0	0	1	1	74.9125	0.115072	0.115258	-0.0132793	1	-0.000127598	13	-1.53055e-06
2	0	0	1	1	75.0627	0.112071	0.112238	-0.0131025	1	-0.000129593	13	-1.47059e-06
2	0	0	1	1	75.2127	0.10907	0.10924	-0.0129352	1	-0.00013156	13	-1.41305e-06
2	0	0	1	1	75.3627	0.106069	0.106213	-0.012775	1	-0.000133503	13	-1.35687e-06
2	0	0	1	1	75.5127	0.103068	0.103262	-0.0126161	1	-0.000135421	13	-1.30276e-06
2	0	0	1	1	75.6629	0.100067	0.100189	-0.0124703	1	-0.000137319	13	-1.24938e-06
2	0	0	1	1	75.8129	0.0970657	0.0972839	-0.0123229	1	-0.000139192	13	-1.19882e-06
2	0	0	1	1	75.9629	0.0940647	0.0942232	-0.0121875	1	-0.000141045	13	-1.14834e-06
2	0	0	1	1	76.1129	0.0910638	0.0912643	-0.0120476	1	-0.000142876	13	-1.09951e-06
2	0	0	1	1	76.2631	0.0880628	0.0882311	-0.0119324	1	-0.000144691	13	-1.05281e-06
2	0	0	1	1	76.4131	0.0850618	0.0852902	-0.0118048	1	-0.000146485	13	-1.00683e-06
2	0	0	1	1	76.5631	0.0820609	0.0822603	-0.011694	1	-0.000148261	13	-9.61955e-07
2	0	0	1	1	76.7131	0.0790599	0.0792812	-0.0115739	1	-0.00015002	13	-9.17596e-07
2	0	0	1	1	76.8633	0.0760589	0.076265	-0.0114675	1	-0.000151765	13	-8.74567e-07
2	0	0	1	1	77.0133	0.0730579	0.0732424	-0.0113661	1	-0.000153491	13	-8.32478e-07
2	0	0	1	1	77.1633	0.070057	0.070274	-0.0112668	1	-0.000155203	13	-7.91763e-07
2	0	0	1	1	77.3133	0.067056	0.0672143	-0.0111718	1	-0.0001569	13	-7.50903e-07
2	0	0	1	1	77.4635	0.064055	0.0642628	-0.0110783	1	-0.000158584	13	-7.11922e-07
2	0	0	1	1	77.6135	0.0610541	0.0612466	-0.0109947	1	-0.000160253	13	-6.73391e-07
2	0	0	1	1	77.7635	0.0580531	0.0582952	-0.0109041	1	-0.000161909	13	-6.35656e-07
2	0	0	1	1	77.9135	0.0550521	0.0552334	-0.0108303	1	-0.000163553	13	-5.98194e-07
2	0	0	1	1	78.0637	0.0520511	0.0522352	-0.0107323	1	-0.000165186	13	-5.60605e-07
2	0	0	1	1	78.2137	0.0490502	0.0492742	-0.0106669	1	-0.000166805	13	-5.25601e-07
2	0	0	1	1	78.3637	0.0460492	0.0462495	-0.0105898	1	-0.000168414	13	-4.89774e-07
2	0	0	1	1	78.5137	0.0430482	0.0432132	-0.0105246	1	-0.000170012	13	-4.548e-07
2	0	0	1	1	78.6638	0.0400481	0.0402763	-0.0104536	1	-0.0001716	13	-4.21034e-07
2	0	0	1	1	78.8139	0.0370463	0.0372476	-0.0103892	1	-0.000173179	13	-3.86971e-07
2	0	0	1	1	78.9639	0.0340453	0.0342579	-0.0103192	1	-0.000174746	13	-3.53515e-07
2	0	0	1	1	79.1139	0.0310443	0.0312269	-0.0102687	1	-0.000176305	13	-3.20659e-07
2	0	0	1	1	79.264	0.0280429	0.0282769	-0.0102052	1	-0.000177856	13	-2.88572e-07
2	0	0	1	1	79.4141	0.0250424	0.0252486	-0.0101482	1	-0.000179398	13	-2.56229e-07
2	0	0	1	1	79.5641	0.0220414	0.0222133	-0.0100919	1	-0.00018093	13	-2.24174e-07
2	0	0	1	1	79.7141	0.0190404	0.0192173	-0.0100429	1	-0.000182455	13	-1.92997e-07
2	0	0	1	1	79.8641	0.0160395	0.0162541	-0.00999192	1	-0.000183972	13	-1.6241e-07
2	0	0	1	1	80.0143	0.0130385	0.0132443	-0.00993843	1	-0.000185483	13	-1.31628e-07
2	0	0	1	1	80.1643	0.0100375	0.0102387	-0.0098962	1	-0.000186985	13	-1.01325e-07
2	0	0	1	1	80.3143	0.00703656	0.0072183	-0.00985001	1	-0.00018848	13	-7.11003e-08
2	0	0	1	1	80.4643	0.00403559	0.00425728	-0.00980154	1	-0.000189968	13	-4.17279e-08
2	0	0	1	1	80.6145	0.00103462	0.00121669	-0.00975601	1	-0.000191452	13	-1.187e-08
2	0	0	0	1	80.6638	-1.57199e-05	5.60402e-05	-0.01005	1	-0.000191938	13	-5.63207e-10