File: Data/2025-02-10 exp 5 CV 10mvs_C05.mpt
EC-Lab ASCII FILE
Nb header lines : 62

Cyclic Voltammetry

Run on channel : 5 (SN 39658)
User :
CE vs. WE compliance from -10 V to 10 V
Electrode connection : standard
Potential control : Ewe
Ewe ctrl range : min = -2.50 V, max = 2.50 V
Safety Limits :
	Do not start on E overload
Acquisition started on : 02/10/2025 12:51:22.971
Loaded Setting File :  NONE
Saved on :
	File : 2025-02-10 exp 5 CV 10mvs_C05.mpr
	Directory : C:\Users\thefo\OneDrive\Documents\EC-Lab\Data\CHEM 451\
	Host : 172.24.113.132
Device : VSP (SN 1910)
Address : USB
EC-Lab for windows v11.46 (software)
Internet server v11.40 (firmware)
Command interpretor v11.40 (firmware)
Electrode material : Au/Pd
Initial state :
Electrolyte : NaCl (0.2M)
Comments : Fe(CN)63-/Fe(CN)64- 5.10-3 M
Current amplifier : VSPB-4A
Reference electrode : SCE Saturated Calomel Electrode (0.241 V)
Electrode surface area : 0.001 cm²
Characteristic mass : 0.001 g
Equivalent Weight : 0.000 g/eq.
Density : 0.000 g/cm3
Volume (V) : 0.001 cm³
Cycle Definition : Charge/Discharge alternance
Ei (V)              0.000
vs.                 Eoc
dE/dt               10.000
dE/dt unit          mV/s
E1 (V)              -0.200
vs.                 Ref
Step percent        50
N                   10
E range min (V)     -2.500
E range max (V)     2.500
I Range             Auto
I Range min         Unset
I Range max         Unset
I Range init        Unset
Bandwidth           4
E2 (V)              0.500
vs.                 Ref
nc cycles           0
Reverse Scan        1
Ef (V)              0.000
vs.                 Eoc

Modify on : 02/10/2025 12:53
vs.                 Ref

mode	ox/red	error	control changes	counter inc.	time/s	control/V	Ewe/V	<I>/mA	cycle number	(Q-Qo)/C	I Range	P/W
2	1	0	0	0	0.000000000000000E+000	0.26307	0.26334	0.00015445	1	0.0000000E+000	14	4.06729e-08
2	0	0	1	0	0.2552	0.260519	0.260654	-0.00117191	1	-1.92215e-07	14	-3.05464e-07
2	0	0	1	0	0.5552	0.257518	0.257765	-0.00190083	1	-6.71494e-07	14	-4.89968e-07
2	0	0	0	0	0.8554	0.254517	0.254702	-0.00250229	1	-1.34718e-06	14	-6.37337e-07
2	0	0	0	0	1.1554	0.251516	0.251714	-0.00305434	1	-2.19329e-06	14	-7.6882e-07
2	0	0	1	0	1.4556	0.248515	0.248724	-0.00356874	1	-3.19958e-06	14	-8.87631e-07
2	0	0	1	0	1.7556	0.245514	0.2457	-0.00406803	1	-4.3571e-06	14	-9.99515e-07
2	0	0	0	0	2.0558	0.242513	0.242697	-0.00456548	1	-5.66413e-06	14	-1.10803e-06
2	0	0	0	0	2.3558	0.239512	0.239683	-0.00506161	1	-7.11945e-06	14	-1.21318e-06
2	0	0	1	0	2.656	0.236511	0.236665	-0.00555377	1	-8.72531e-06	14	-1.31439e-06
2	0	0	1	0	2.956	0.23351	0.233715	-0.00604322	1	-1.04759e-05	14	-1.41239e-06
2	0	0	0	0	3.2562	0.230509	0.230667	-0.00652063	1	-1.23704e-05	14	-1.50409e-06
2	0	0	0	0	3.5562	0.227508	0.227663	-0.00700108	1	-1.44083e-05	14	-1.59389e-06
2	0	0	1	0	3.8564	0.224507	0.224671	-0.00747082	1	-1.65904e-05	14	-1.67847e-06
2	0	0	1	0	4.1564	0.221506	0.221698	-0.00792173	1	-1.89088e-05	14	-1.75623e-06
2	0	0	0	0	4.4566	0.218505	0.218733	-0.00834861	1	-2.13604e-05	14	-1.82611e-06
2	0	0	0	0	4.7566	0.215504	0.215685	-0.00877101	1	-2.39392e-05	14	-1.89177e-06
2	0	0	1	0	5.0568	0.212503	0.212716	-0.00917247	1	-2.66439e-05	14	-1.95113e-06
2	0	0	1	0	5.3568	0.209502	0.209679	-0.00955827	1	-2.94644e-05	14	-2.00416e-06
2	0	0	0	0	5.657	0.206501	0.206724	-0.00988892	1	-3.23946e-05	14	-2.04428e-06
2	0	0	0	0	5.957	0.2035	0.203685	-0.0102144	1	-3.54201e-05	14	-2.08051e-06
2	0	0	1	0	6.2571	0.2005	0.200699	-0.010505	1	-3.8539e-05	14	-2.10834e-06
2	0	0	1	0	6.5572	0.197498	0.1977	-0.0107604	1	-4.17402e-05	14	-2.12733e-06
2	0	0	0	0	6.8874	0.194197	0.19443	-0.0109273	1	-4.53434e-05	13	-2.1246e-06
2	0	0	0	0	7.1874	0.191196	0.191429	-0.0111368	1	-4.86834e-05	13	-2.1319e-06
2	0	0	1	0	7.4876	0.188195	0.188424	-0.0112992	1	-5.20813e-05	13	-2.12904e-06
2	0	0	1	0	7.7876	0.185194	0.185405	-0.0114335	1	-5.55218e-05	13	-2.11984e-06
2	0	0	1	0	8.0877	0.182194	0.182398	-0.0115342	1	-5.89968e-05	13	-2.10382e-06
2	0	0	0	0	8.3878	0.179192	0.179396	-0.0115908	1	-6.24935e-05	13	-2.07934e-06
2	0	0	1	0	8.6879	0.176192	0.176413	-0.0116314	1	-6.60063e-05	13	-2.05192e-06
2	0	0	1	0	8.988	0.17319	0.173348	-0.0116462	1	-6.95267e-05	13	-2.01885e-06
2	0	0	1	0	9.2881	0.170189	0.170364	-0.0116164	1	-7.30435e-05	13	-1.97902e-06
2	0	0	0	0	9.5882	0.167188	0.167406	-0.0115599	1	-7.65462e-05	13	-1.9352e-06
2	0	0	1	0	9.8883	0.164187	0.164376	-0.0114797	1	-8.0029e-05	13	-1.88698e-06
2	0	0	1	0	10.1884	0.161186	0.16138	-0.0113802	1	-8.34854e-05	13	-1.83654e-06
2	0	0	1	0	10.4885	0.158185	0.158352	-0.0112664	1	-8.6909e-05	13	-1.78405e-06
2	0	0	0	0	10.7886	0.155185	0.155394	-0.0111289	1	-9.02945e-05	13	-1.72937e-06
2	0	0	0	0	11.0886	0.152184	0.152408	-0.010999	1	-9.36386e-05	13	-1.67634e-06
2	0	0	1	0	11.3888	0.149183	0.149357	-0.0108666	1	-9.69434e-05	13	-1.62301e-06
2	0	0	1	0	11.6888	0.146182	0.146384	-0.0107223	1	-0.000100204	13	-1.56958e-06
2	0	0	0	0	11.989	0.143181	0.143391	-0.0105837	1	-0.000103424	13	-1.51761e-06
2	0	0	0	0	12.289	0.14018	0.140399	-0.0104429	1	-0.0001066	13	-1.46617e-06
2	0	0	1	0	12.5892	0.137179	0.137354	-0.0103105	1	-0.000109736	13	-1.41619e-06
2	0	0	1	0	12.8892	0.134178	0.134378	-0.0101807	1	-0.000112831	13	-1.36806e-06
2	0	0	0	0	13.1894	0.131177	0.131292	-0.0100498	1	-0.000115888	13	-1.31945e-06
2	0	0	0	0	13.4894	0.128176	0.128369	-0.00992446	1	-0.000118904	13	-1.27399e-06
2	0	0	1	0	13.7896	0.125175	0.125371	-0.00980131	1	-0.000121884	13	-1.2288e-06
2	0	0	1	0	14.0896	0.122174	0.12235	-0.00968614	1	-0.000124827	13	-1.1851e-06
2	0	0	0	0	14.3898	0.119173	0.119366	-0.00956678	1	-0.000127737	13	-1.14195e-06
2	0	0	0	0	14.6898	0.116172	0.116366	-0.00945406	1	-0.000130609	13	-1.10013e-06
2	0	0	1	0	14.99	0.113171	0.113391	-0.00934614	1	-0.000133451	13	-1.05977e-06
2	0	0	1	0	15.29	0.11017	0.110386	-0.00924406	1	-0.000136259	13	-1.02042e-06
2	0	0	0	0	15.5902	0.107169	0.107356	-0.00914586	1	-0.000139039	13	-9.81866e-07
2	0	0	0	0	15.8902	0.104168	0.104358	-0.00904333	1	-0.000141786	13	-9.43745e-07
2	0	0	1	0	16.1904	0.101167	0.101382	-0.00895172	1	-0.000144506	13	-9.07546e-07
2	0	0	1	0	16.4904	0.0981661	0.0983756	-0.00886222	1	-0.000147197	13	-8.71826e-07
2	0	0	0	0	16.7906	0.0951651	0.0953626	-0.00877848	1	-0.000149863	13	-8.37138e-07
2	0	0	0	0	17.0906	0.0921641	0.0923825	-0.00869215	1	-0.000152502	13	-8.03002e-07
2	0	0	1	0	17.3908	0.0891631	0.0893546	-0.00861105	1	-0.000155117	13	-7.69437e-07
2	0	0	1	0	17.6908	0.0861622	0.0863395	-0.00853409	1	-0.000157707	13	-7.36829e-07
2	0	0	0	0	17.991	0.0831612	0.0833371	-0.00845844	1	-0.000160276	13	-7.04901e-07
2	0	0	0	0	18.291	0.0801602	0.0803644	-0.00838784	1	-0.000162822	13	-6.74084e-07
2	0	0	1	0	18.5911	0.0771601	0.0773565	-0.00831648	1	-0.000165346	13	-6.43333e-07
2	0	0	1	0	18.8912	0.0741583	0.074349	-0.00825179	1	-0.000167849	13	-6.13512e-07
2	0	0	1	0	19.1913	0.0711578	0.0713267	-0.00818616	1	-0.000170334	13	-5.83891e-07
2	0	0	0	0	19.4914	0.0681564	0.0683452	-0.00812669	1	-0.0001728	13	-5.55421e-07
2	0	0	1	0	19.7915	0.0651554	0.0653928	-0.00805977	1	-0.000175246	13	-5.27051e-07
2	0	0	1	0	20.0916	0.0621544	0.0623415	-0.00800479	1	-0.000177675	13	-4.99031e-07
2	0	0	1	0	20.3917	0.0591532	0.0593506	-0.00794855	1	-0.000180087	13	-4.71751e-07
2	0	0	0	0	20.6918	0.0561525	0.0563367	-0.0078971	1	-0.000182482	13	-4.44897e-07
2	0	0	1	0	20.9919	0.0531508	0.0533464	-0.00783971	1	-0.000184861	13	-4.1822e-07
2	0	0	1	0	21.292	0.0501505	0.050368	-0.00779296	1	-0.000187225	13	-3.92515e-07
2	0	0	1	0	21.592	0.0471495	0.0473369	-0.00774466	1	-0.000189573	13	-3.66608e-07
2	0	0	0	0	21.8922	0.0441486	0.0443441	-0.00769507	1	-0.000191909	13	-3.41231e-07
2	0	0	0	0	22.1922	0.0411476	0.041365	-0.00765286	1	-0.000194229	13	-3.16561e-07
2	0	0	1	0	22.4924	0.0381466	0.0383966	-0.00760634	1	-0.000196537	13	-2.92057e-07
2	0	0	1	0	22.7924	0.0351457	0.0353093	-0.00756575	1	-0.00019883	13	-2.67141e-07
2	0	0	0	0	23.0926	0.0321447	0.0323239	-0.00752209	1	-0.000201113	13	-2.43143e-07
2	0	0	0	0	23.3926	0.0291437	0.0293491	-0.00748603	1	-0.000203382	13	-2.19708e-07
2	0	0	1	0	23.6928	0.0261427	0.0263424	-0.00744282	1	-0.00020564	13	-1.96062e-07
2	0	0	1	0	23.9928	0.0231418	0.0233655	-0.00740463	1	-0.000207885	13	-1.73013e-07
2	0	0	0	0	24.293	0.0201408	0.0203694	-0.00737193	1	-0.000210122	13	-1.50162e-07
2	0	0	0	0	24.593	0.0171398	0.0173246	-0.00733607	1	-0.000212346	13	-1.27095e-07
2	0	0	1	0	24.8932	0.0141389	0.0143901	-0.0072986	1	-0.000214561	13	-1.05028e-07
2	0	0	1	0	25.1932	0.0111379	0.0113209	-0.00726618	1	-0.000216765	13	-8.22595e-08
2	0	0	0	0	25.4934	0.00813692	0.0083068	-0.00723527	1	-0.00021896	13	-6.0102e-08
2	0	0	0	0	25.7934	0.00513595	0.00528319	-0.00720219	1	-0.000221145	13	-3.80505e-08
2	0	0	1	0	26.0936	0.00213498	0.00235399	-0.00717169	1	-0.000223321	13	-1.68821e-08
2	0	0	1	0	26.3936	-0.000865995	-0.000647349	-0.0071471	1	-0.000225487	13	4.62667e-09
2	0	0	0	0	26.6938	-0.00386697	-0.00366248	-0.00712086	1	-0.000227647	13	2.608e-08
2	0	0	0	0	26.9938	-0.00686794	-0.00675718	-0.00709261	1	-0.000229799	13	4.7926e-08
2	0	0	1	0	27.294	-0.00986891	-0.0097373	-0.00706389	1	-0.000231943	13	6.87832e-08
2	0	0	1	0	27.594	-0.0128699	-0.0127461	-0.00703799	1	-0.000234077	13	8.97067e-08
2	0	0	0	0	27.8942	-0.0158709	-0.0157336	-0.00701541	1	-0.000236204	13	1.10378e-07
2	0	0	0	0	28.1942	-0.0188718	-0.0187445	-0.00698952	1	-0.000238324	13	1.31015e-07
2	0	0	1	0	28.4944	-0.0218728	-0.0217246	-0.00696362	1	-0.000240437	13	1.51282e-07
2	0	0	1	0	28.7944	-0.0248738	-0.0247673	-0.00693961	1	-0.000242541	13	1.71876e-07
2	0	0	0	0	29.0946	-0.0278748	-0.0277464	-0.00691714	1	-0.00024464	13	1.91926e-07
2	0	0	0	0	29.3946	-0.0308757	-0.0307647	-0.00689958	1	-0.000246731	13	2.12264e-07
2	0	0	1	0	29.6947	-0.033876	-0.0337663	-0.00687638	1	-0.000248817	13	2.3219e-07
2	0	0	1	0	29.9948	-0.0368777	-0.0367218	-0.0068525	1	-0.000250896	13	2.51636e-07
2	0	0	1	0	30.2949	-0.0398782	-0.0397543	-0.0068342	1	-0.000252968	13	2.71689e-07
2	0	0	0	0	30.595	-0.0428796	-0.0427436	-0.00681299	1	-0.000255035	13	2.91212e-07
2	0	0	1	0	30.8951	-0.0458806	-0.0458128	-0.00679939	1	-0.000257095	13	3.11499e-07
2	0	0	1	0	31.1952	-0.0488816	-0.0487759	-0.00677217	1	-0.00025915	13	3.30319e-07
2	0	0	1	0	31.4953	-0.051883	-0.0517468	-0.00675532	1	-0.000261199	13	3.49566e-07
2	0	0	0	0	31.7954	-0.0548835	-0.0547383	-0.00673887	1	-0.000263243	13	3.68874e-07
2	0	0	1	0	32.0955	-0.0578854	-0.057817	-0.00672018	1	-0.000265282	13	3.88541e-07
2	0	0	1	0	32.3956	-0.0608855	-0.0608184	-0.00670291	1	-0.000267315	13	4.07661e-07
2	0	0	1	0	32.6956	-0.0638864	-0.0637826	-0.00668815	1	-0.000269342	13	4.26588e-07
2	0	0	0	0	32.9958	-0.0668874	-0.0667447	-0.00667102	1	-0.000271367	13	4.45256e-07
2	0	0	0	0	33.2958	-0.0698884	-0.0697896	-0.00665532	1	-0.000273385	13	4.64472e-07
2	0	0	1	0	33.596	-0.0728893	-0.0727835	-0.00663879	1	-0.0002754	13	4.83194e-07
2	0	0	1	0	33.896	-0.0758903	-0.0757625	-0.00662218	1	-0.000277408	13	5.01713e-07
2	0	0	0	0	34.1962	-0.0788913	-0.0787692	-0.0066076	1	-0.000279413	13	5.20476e-07
2	0	0	0	0	34.4962	-0.0818923	-0.0818172	-0.00659664	1	-0.000281413	13	5.39719e-07
2	0	0	1	0	34.7964	-0.0848932	-0.084791	-0.00657971	1	-0.00028341	13	5.579e-07
2	0	0	1	0	35.0964	-0.0878942	-0.0878241	-0.00656267	1	-0.000285401	13	5.76361e-07
2	0	0	0	0	35.3966	-0.0908952	-0.0907576	-0.00655115	1	-0.000287389	13	5.94566e-07
2	0	0	0	0	35.6966	-0.0938962	-0.0937791	-0.00654069	1	-0.000289372	13	6.1338e-07
2	0	0	1	0	35.9968	-0.0968971	-0.0967836	-0.00652682	1	-0.000291352	13	6.31689e-07
2	0	0	1	0	36.2968	-0.0998981	-0.0997881	-0.00650779	1	-0.000293328	13	6.494e-07
2	0	0	0	0	36.597	-0.102899	-0.102793	-0.00650273	1	-0.0002953	13	6.68433e-07
2	0	0	0	0	36.897	-0.1059	-0.105784	-0.00648797	1	-0.000297269	13	6.86326e-07
2	0	0	1	0	37.1972	-0.108901	-0.108787	-0.00647572	1	-0.000299234	13	7.04473e-07
2	0	0	1	0	37.4972	-0.111902	-0.111758	-0.00646119	1	-0.000301195	13	7.22093e-07
2	0	0	0	0	37.7974	-0.114903	-0.114768	-0.00645129	1	-0.000303153	13	7.40403e-07
2	0	0	0	0	38.0974	-0.117904	-0.11778	-0.00644338	1	-0.000305107	13	7.58902e-07
2	0	0	1	0	38.3976	-0.120905	-0.120776	-0.00643223	1	-0.000307059	13	7.76861e-07
2	0	0	1	0	38.6976	-0.123906	-0.123804	-0.00642152	1	-0.000309007	13	7.9501e-07
2	0	0	0	0	38.9978	-0.126907	-0.126753	-0.00640926	1	-0.000310953	13	8.12396e-07
2	0	0	0	0	39.2978	-0.129908	-0.129756	-0.0064009	1	-0.000312894	13	8.30554e-07
2	0	0	1	0	39.598	-0.132909	-0.13281	-0.00639258	1	-0.000314834	13	8.49e-07
2	0	0	1	0	39.898	-0.13591	-0.13577	-0.00638246	1	-0.000316771	13	8.66549e-07
2	0	0	0	0	40.1982	-0.138911	-0.138794	-0.00637367	1	-0.000318705	13	8.84627e-07
2	0	0	0	0	40.4982	-0.141912	-0.141795	-0.00636595	1	-0.000320636	13	9.02662e-07
2	0	0	1	0	40.7983	-0.144912	-0.144761	-0.00635994	1	-0.000322565	13	9.20671e-07
2	0	0	1	0	41.0984	-0.147914	-0.147823	-0.00635094	1	-0.000324492	13	9.38817e-07
2	0	0	1	0	41.3985	-0.150914	-0.150794	-0.00634298	1	-0.000326416	13	9.56482e-07
2	0	0	0	0	41.6986	-0.153916	-0.153771	-0.00633108	1	-0.000328338	13	9.73535e-07
2	0	0	1	0	41.9987	-0.156917	-0.156799	-0.00632967	1	-0.000330257	13	9.92485e-07
2	0	0	1	0	42.2988	-0.159918	-0.159782	-0.00632254	1	-0.000332176	13	1.01023e-06
2	0	0	1	0	42.5989	-0.162919	-0.162769	-0.0063174	1	-0.000334092	13	1.02828e-06
2	0	0	0	0	42.899	-0.165919	-0.165736	-0.00630617	1	-0.000336005	13	1.04516e-06
2	0	0	1	0	43.1991	-0.168921	-0.168793	-0.00630907	1	-0.000337918	13	1.06493e-06
2	0	0	1	0	43.4992	-0.171921	-0.171795	-0.00630383	1	-0.000339829	13	1.08297e-06
2	0	0	1	0	43.7992	-0.174922	-0.174831	-0.00629521	1	-0.000341739	13	1.1006e-06
2	0	0	0	0	44.0994	-0.177923	-0.177816	-0.0062889	1	-0.000343648	13	1.11826e-06
2	0	0	0	0	44.3994	-0.180924	-0.180813	-0.00628801	1	-0.000345554	13	1.13695e-06
2	0	0	1	0	44.6996	-0.183925	-0.18382	-0.00628938	1	-0.000347462	13	1.15612e-06
2	0	0	1	0	44.9996	-0.186926	-0.186791	-0.00628372	1	-0.000349367	13	1.17374e-06
2	0	0	0	0	45.2998	-0.189927	-0.189803	-0.00628152	1	-0.000351273	13	1.19225e-06
2	0	0	0	0	45.5998	-0.192928	-0.192807	-0.00628753	1	-0.000353178	13	1.21228e-06
2	0	0	1	0	45.9	-0.195929	-0.195792	-0.00628655	1	-0.000355083	13	1.23085e-06
2	0	0	1	0	46.2	-0.19893	-0.19882	-0.00628546	1	-0.000356988	13	1.24967e-06
2	0	0	0	0	46.3606	-0.19943	-0.199338	-0.00600475	1	-0.000357986	13	1.19698e-06
2	0	0	0	0	46.6606	-0.196429	-0.196323	-0.00549423	1	-0.000359678	13	1.07865e-06
2	0	0	1	0	46.9608	-0.193428	-0.193299	-0.00522073	1	-0.000361263	13	1.00916e-06
2	0	0	1	0	47.2608	-0.190427	-0.190281	-0.00501634	1	-0.000362777	13	9.54515e-07
2	0	0	0	0	47.561	-0.187426	-0.187318	-0.00484883	1	-0.000364237	13	9.08273e-07
2	0	0	0	0	47.861	-0.184425	-0.184318	-0.00470382	1	-0.00036565	13	8.66998e-07
2	0	0	1	0	48.1611	-0.181425	-0.181323	-0.00457728	1	-0.000367021	13	8.29964e-07
2	0	0	1	0	48.4912	-0.178123	-0.178034	-0.00443536	1	-0.000368487	14	7.89645e-07
2	0	0	0	0	48.7914	-0.175122	-0.174982	-0.00433653	1	-0.000369787	14	7.58814e-07
2	0	0	0	0	49.0914	-0.172122	-0.171992	-0.00424065	1	-0.000371056	14	7.29359e-07
2	0	0	1	0	49.3915	-0.169121	-0.168992	-0.00415986	1	-0.000372298	14	7.02985e-07
2	0	0	1	0	49.6916	-0.16612	-0.16598	-0.0040783	1	-0.000373516	14	6.76916e-07
2	0	0	1	0	49.9917	-0.163119	-0.163006	-0.00400653	1	-0.000374711	14	6.5309e-07
2	0	0	0	0	50.2918	-0.160118	-0.159979	-0.00393401	1	-0.000375884	14	6.2936e-07
2	0	0	1	0	50.5919	-0.157117	-0.157007	-0.00386952	1	-0.000377037	14	6.0754e-07
2	0	0	1	0	50.892	-0.154116	-0.153953	-0.00380688	1	-0.00037817	14	5.86081e-07
2	0	0	1	0	51.1921	-0.151114	-0.150973	-0.0037536	1	-0.000379286	14	5.66692e-07
2	0	0	0	0	51.4922	-0.148114	-0.148019	-0.00369303	1	-0.000380385	14	5.46636e-07
2	0	0	1	0	51.7923	-0.145112	-0.144943	-0.00363941	1	-0.000381467	14	5.27507e-07
2	0	0	1	0	52.0924	-0.142112	-0.14196	-0.0035883	1	-0.000382533	14	5.09393e-07
2	0	0	1	0	52.3924	-0.139111	-0.138951	-0.00353739	1	-0.000383584	14	4.91524e-07
2	0	0	0	0	52.6926	-0.13611	-0.135958	-0.00349156	1	-0.000384621	14	4.74705e-07
2	0	0	0	0	52.9926	-0.133109	-0.132999	-0.00344635	1	-0.000385644	14	4.58362e-07
2	0	0	1	0	53.2928	-0.130108	-0.130003	-0.00340385	1	-0.000386654	14	4.42512e-07
2	0	0	1	0	53.5928	-0.127107	-0.12697	-0.00335818	1	-0.00038765	14	4.26388e-07
2	0	0	0	0	53.893	-0.124106	-0.124011	-0.00332176	1	-0.000388635	14	4.11934e-07
2	0	0	0	0	54.193	-0.121105	-0.120995	-0.00328302	1	-0.000389608	14	3.97228e-07
2	0	0	1	0	54.4932	-0.118104	-0.117962	-0.00324103	1	-0.000390569	14	3.82317e-07
2	0	0	1	0	54.7932	-0.115103	-0.114961	-0.00320772	1	-0.000391519	14	3.68763e-07
2	0	0	0	0	55.0934	-0.112102	-0.112007	-0.00317337	1	-0.000392458	14	3.55439e-07
2	0	0	0	0	55.3934	-0.109101	-0.108979	-0.00313797	1	-0.000393387	14	3.41972e-07
2	0	0	1	0	55.6936	-0.1061	-0.105968	-0.0031032	1	-0.000394305	14	3.2884e-07
2	0	0	1	0	55.9936	-0.103099	-0.10297	-0.00307155	1	-0.000395214	14	3.16277e-07
2	0	0	0	0	56.2938	-0.100098	-0.100006	-0.00304155	1	-0.000396113	14	3.04172e-07
2	0	0	0	0	56.5938	-0.0970972	-0.096999	-0.00301152	1	-0.000397003	14	2.92114e-07
2	0	0	1	0	56.894	-0.0940962	-0.0940294	-0.00298173	1	-0.000397884	14	2.8037e-07
2	0	0	1	0	57.194	-0.0910952	-0.0910186	-0.00294972	1	-0.000398755	14	2.6848e-07
2	0	0	0	0	57.4942	-0.0880943	-0.0879217	-0.0029242	1	-0.000399618	14	2.57101e-07
2	0	0	0	0	57.7942	-0.0850933	-0.0849724	-0.0028976	1	-0.000400473	14	2.46216e-07
2	0	0	1	0	58.0944	-0.0820923	-0.0820103	-0.00287121	1	-0.000401321	14	2.35469e-07
2	0	0	1	0	58.3944	-0.0790913	-0.0789379	-0.00284431	1	-0.000402159	14	2.24524e-07
2	0	0	0	0	58.6946	-0.0760904	-0.0759938	-0.00281946	1	-0.000402991	14	2.14262e-07
2	0	0	0	0	58.9946	-0.0730894	-0.0729925	-0.00279532	1	-0.000403815	14	2.04037e-07
2	0	0	1	0	59.2948	-0.0700884	-0.0699583	-0.0027726	1	-0.000404633	14	1.93966e-07
2	0	0	1	0	59.5948	-0.0670875	-0.066958	-0.002748	1	-0.000405442	14	1.84001e-07
2	0	0	1	0	59.8949	-0.0640874	-0.0639609	-0.00272915	1	-0.000406245	14	1.74559e-07
2	0	0	0	0	60.195	-0.0610855	-0.0609532	-0.00270867	1	-0.000407042	14	1.65102e-07
2	0	0	1	0	60.4951	-0.0580852	-0.0579536	-0.00268531	1	-0.000407832	14	1.55623e-07
2	0	0	1	0	60.7952	-0.0550836	-0.0549866	-0.00266207	1	-0.000408616	14	1.46378e-07
2	0	0	1	0	61.0953	-0.0520828	-0.0519601	-0.00264228	1	-0.000409393	14	1.37293e-07
2	0	0	0	0	61.3954	-0.0490816	-0.0489648	-0.00262329	1	-0.000410164	14	1.28449e-07
2	0	0	1	0	61.6955	-0.0460804	-0.045975	-0.00260554	1	-0.00041093	14	1.19789e-07
2	0	0	1	0	61.9956	-0.0430797	-0.0429833	-0.00258467	1	-0.00041169	14	1.11098e-07
2	0	0	1	0	62.2957	-0.040078	-0.0399378	-0.00256693	1	-0.000412445	14	1.02517e-07
2	0	0	0	0	62.5958	-0.0370777	-0.0369467	-0.00254767	1	-0.000413194	14	9.41279e-08
2	0	0	1	0	62.8959	-0.0340759	-0.0339581	-0.0025342	1	-0.000413938	14	8.60565e-08
2	0	0	1	0	63.196	-0.0310758	-0.0309514	-0.00251691	1	-0.000414677	14	7.7902e-08
2	0	0	1	0	63.496	-0.0280748	-0.0279183	-0.00249739	1	-0.00041541	14	6.97227e-08
2	0	0	0	0	63.7962	-0.0250738	-0.0249053	-0.0024818	1	-0.000416139	14	6.181e-08
2	0	0	0	0	64.0962	-0.0220729	-0.0219495	-0.00246939	1	-0.000416863	14	5.42019e-08
2	0	0	1	0	64.3964	-0.0190719	-0.0189949	-0.00245257	1	-0.000417583	14	4.65862e-08
2	0	0	1	0	64.6964	-0.0160709	-0.0159065	-0.00243927	1	-0.000418298	14	3.88004e-08
2	0	0	0	0	64.9966	-0.01307	-0.0129413	-0.00242354	1	-0.000419009	14	3.13637e-08
2	0	0	0	0	65.2966	-0.010069	-0.009941	-0.00241223	1	-0.000419715	14	2.398e-08
2	0	0	1	0	65.5968	-0.00706801	-0.00696406	-0.00239404	1	-0.000420417	14	1.66723e-08
2	0	0	1	0	65.8968	-0.00406703	-0.0039362	-0.00237006	1	-0.000421113	14	9.32903e-09
2	0	0	0	0	66.197	-0.00106606	-0.000887117	-0.00236046	1	-0.000421804	14	2.094e-09
2	0	0	0	0	66.497	0.00193491	0.0020877	-0.00235223	1	-0.000422492	14	-4.91075e-09
2	0	0	1	0	66.7972	0.00493588	0.00516118	-0.00233715	1	-0.000423177	14	-1.20624e-08
2	0	0	1	0	67.0972	0.00793685	0.00814236	-0.00232462	1	-0.000423857	14	-1.89279e-08
2	0	0	0	0	67.3974	0.0109378	0.011167	-0.00231137	1	-0.000424534	14	-2.58112e-08
2	0	0	0	0	67.6974	0.0139388	0.0141503	-0.00229802	1	-0.000425206	14	-3.25177e-08
2	0	0	1	0	67.9976	0.0169398	0.0171082	-0.00228574	1	-0.000425875	14	-3.91049e-08
2	0	0	1	0	68.2976	0.0199407	0.0201148	-0.00227354	1	-0.00042654	14	-4.5732e-08
2	0	0	0	0	68.5978	0.0229417	0.0231374	-0.0022588	1	-0.000427201	14	-5.22628e-08
2	0	0	0	0	68.8978	0.0259427	0.0261048	-0.00224576	1	-0.000427857	14	-5.8625e-08
2	0	0	1	0	69.198	0.0289437	0.0292027	-0.00223522	1	-0.00042851	14	-6.52743e-08
2	0	0	1	0	69.498	0.0319446	0.0321594	-0.00222039	1	-0.000429159	14	-7.14065e-08
2	0	0	0	0	69.7982	0.0349456	0.035165	-0.00220438	1	-0.000429804	14	-7.75171e-08
2	0	0	0	0	70.0982	0.0379466	0.0381621	-0.002192	1	-0.000430444	14	-8.36512e-08
2	0	0	1	0	70.3984	0.0409475	0.0411337	-0.00217721	1	-0.000431081	14	-8.95568e-08
2	0	0	1	0	70.6984	0.0439485	0.0441436	-0.00216511	1	-0.000431713	14	-9.55756e-08
2	0	0	1	0	70.9985	0.0469486	0.0471503	-0.00215012	1	-0.000432341	14	-1.01379e-07
2	0	0	0	0	71.2986	0.0499505	0.0501505	-0.00213221	1	-0.000432964	14	-1.06931e-07
2	0	0	1	0	71.5987	0.052951	0.0531481	-0.00211959	1	-0.000433582	14	-1.12652e-07
2	0	0	1	0	71.8988	0.0559524	0.0561839	-0.0021021	1	-0.000434197	14	-1.18104e-07
2	0	0	1	0	72.1989	0.0589534	0.0591607	-0.00208623	1	-0.000434806	14	-1.23423e-07
2	0	0	0	0	72.499	0.0619543	0.0621707	-0.00206511	1	-0.000435409	14	-1.2839e-07
2	0	0	1	0	72.7991	0.0649555	0.0651733	-0.00204818	1	-0.000436007	14	-1.33487e-07
2	0	0	1	0	73.0992	0.0679563	0.0681628	-0.00202848	1	-0.0004366	14	-1.38267e-07
2	0	0	1	0	73.3993	0.0709579	0.0711521	-0.00200767	1	-0.000437186	14	-1.4285e-07
2	0	0	0	0	73.6994	0.0739582	0.07414	-0.00198418	1	-0.000437766	14	-1.47107e-07
2	0	0	0	0	73.9994	0.0769592	0.0771668	-0.00196186	1	-0.000438339	14	-1.51391e-07
2	0	0	1	0	74.2996	0.0799602	0.0801681	-0.0019382	1	-0.000438905	14	-1.55382e-07
2	0	0	1	0	74.5996	0.0829611	0.0831567	-0.00190792	1	-0.000439463	14	-1.58656e-07
2	0	0	0	0	74.8998	0.0859621	0.0862016	-0.00187846	1	-0.000440013	14	-1.61926e-07
2	0	0	0	0	75.1998	0.0889631	0.0891626	-0.00184835	1	-0.000440554	14	-1.64804e-07
2	0	0	1	0	75.5	0.0919641	0.0921926	-0.00182078	1	-0.000441086	14	-1.67863e-07
2	0	0	1	0	75.8	0.094965	0.0951791	-0.00177907	1	-0.000441608	14	-1.69331e-07
2	0	0	0	0	76.1002	0.097966	0.0981422	-0.00174668	1	-0.00044212	14	-1.71423e-07
2	0	0	0	0	76.4002	0.100967	0.101179	-0.00170394	1	-0.000442619	14	-1.72402e-07
2	0	0	1	0	76.7004	0.103968	0.104204	-0.00165375	1	-0.000443105	14	-1.72328e-07
2	0	0	1	0	77.0004	0.106969	0.10717	-0.00160666	1	-0.000443577	14	-1.72185e-07
2	0	0	0	0	77.3006	0.10997	0.110189	-0.00155258	1	-0.000444034	14	-1.71077e-07
2	0	0	0	0	77.6006	0.112971	0.113157	-0.00149041	1	-0.000444474	14	-1.68651e-07
2	0	0	1	0	77.9008	0.115972	0.116193	-0.00142743	1	-0.000444896	14	-1.65856e-07
2	0	0	1	0	78.2008	0.118973	0.119132	-0.00136046	1	-0.000445298	14	-1.62075e-07
2	0	0	0	0	78.501	0.121974	0.122172	-0.00128258	1	-0.000445679	14	-1.56696e-07
2	0	0	0	0	78.801	0.124975	0.125189	-0.00119712	1	-0.000446034	14	-1.49867e-07
2	0	0	1	0	79.1012	0.127976	0.128227	-0.00110468	1	-0.000446364	14	-1.41649e-07
2	0	0	1	0	79.4012	0.130977	0.131134	-0.00100759	1	-0.000446665	14	-1.32129e-07
2	0	0	0	0	79.7014	0.133978	0.134185	-0.000900117	1	-0.000446936	14	-1.20782e-07
2	0	0	0	0	80.0014	0.136979	0.137228	-0.000772248	1	-0.000447172	14	-1.05974e-07
2	0	0	1	0	80.3016	0.13998	0.140218	-0.000642101	1	-0.00044737	14	-9.00343e-08
2	0	0	1	0	80.6016	0.142981	0.143178	-0.000503968	1	-0.000447527	14	-7.21572e-08
2	0	0	0	0	80.9018	0.145982	0.146165	-0.000346946	1	-0.000447641	14	-5.07113e-08
2	0	0	0	0	81.2018	0.148983	0.149215	-0.000172334	1	-0.000447705	14	-2.57148e-08
2	0	0	1	0	81.502	0.151983	0.152232	1.3275e-05	1	-0.000447715	14	2.02088e-09
2	1	0	1	0	81.802	0.154984	0.15521	0.000216892	1	-0.000447668	14	3.36639e-08
2	1	0	1	0	82.1021	0.157985	0.158214	0.000430214	1	-0.000447559	14	6.80657e-08
2	1	0	0	0	82.4022	0.160986	0.161199	0.000668432	1	-0.000447382	14	1.07751e-07
2	1	0	1	0	82.7023	0.163987	0.164213	0.000923048	1	-0.000447132	14	1.51576e-07
2	1	0	1	0	83.0024	0.166988	0.167272	0.0011924	1	-0.000446804	14	1.99454e-07
2	1	0	1	0	83.3025	0.169989	0.170174	0.00147201	1	-0.000446393	14	2.50498e-07
2	1	0	0	0	83.6026	0.17299	0.173214	0.00177897	1	-0.000445893	14	3.08142e-07
2	1	0	1	0	83.9027	0.175992	0.176208	0.00211456	1	-0.000445298	14	3.72604e-07
2	1	0	1	0	84.2028	0.178992	0.179206	0.00245867	1	-0.0004446	14	4.40608e-07
2	1	0	1	0	84.5029	0.181994	0.182219	0.00280848	1	-0.000443798	14	5.11757e-07
2	1	0	0	0	84.803	0.184994	0.185229	0.00319571	1	-0.000442887	14	5.91938e-07
2	1	0	0	0	85.103	0.187995	0.188265	0.00359463	1	-0.000441859	14	6.76743e-07
2	1	0	1	0	85.4032	0.190996	0.191184	0.00399707	1	-0.000440709	14	7.64175e-07
2	1	0	1	0	85.7032	0.193997	0.194223	0.00440809	1	-0.000439437	14	8.56154e-07
2	1	0	0	0	86.0034	0.196998	0.197205	0.00482853	1	-0.000438042	14	9.52213e-07
2	1	0	0	0	86.3034	0.199999	0.200232	0.00525788	1	-0.000436519	14	1.0528e-06
2	1	0	1	0	86.6036	0.203	0.203208	0.00568565	1	-0.000434866	14	1.15537e-06
2	1	0	1	0	86.9036	0.206001	0.206197	0.00610457	1	-0.000433088	14	1.25874e-06
2	1	0	0	0	87.2038	0.209002	0.209209	0.00649779	1	-0.000431189	14	1.35939e-06
2	1	0	0	0	87.5038	0.212003	0.212214	0.00688493	1	-0.000429173	14	1.46108e-06
2	1	0	1	0	87.804	0.215004	0.215211	0.00724552	1	-0.000427042	14	1.55932e-06
2	1	0	1	0	88.104	0.218005	0.218249	0.0075743	1	-0.000424808	14	1.65308e-06
2	1	0	0	0	88.4042	0.221006	0.221266	0.00785946	1	-0.000422481	14	1.73903e-06
2	1	0	0	0	88.7042	0.224007	0.22419	0.00813326	1	-0.00042007	14	1.82339e-06
2	1	0	1	0	89.0044	0.227008	0.227292	0.0083812	1	-0.000417581	14	1.90498e-06
2	1	0	1	0	89.3044	0.230009	0.23022	0.00857562	1	-0.000415027	14	1.97428e-06
2	1	0	0	0	89.6046	0.23301	0.233241	0.00872366	1	-0.000412419	14	2.03471e-06
2	1	0	0	0	89.9046	0.236011	0.236244	0.00886403	1	-0.000409771	14	2.09407e-06
2	1	0	1	0	90.2048	0.239012	0.23925	0.00894477	1	-0.000407086	14	2.14003e-06
2	1	0	1	0	90.5048	0.242013	0.242245	0.00902218	1	-0.000404379	14	2.18557e-06
2	1	0	0	0	90.805	0.245014	0.245302	0.00905852	1	-0.000401655	14	2.22207e-06
2	1	0	0	0	91.105	0.248015	0.248265	0.00906383	1	-0.000398928	14	2.25023e-06
2	1	0	1	0	91.4052	0.251016	0.251223	0.00904628	1	-0.000396199	14	2.27263e-06
2	1	0	1	0	91.7052	0.254017	0.254231	0.0090132	1	-0.000393479	14	2.29143e-06
2	1	0	0	0	92.0054	0.257017	0.257264	0.00895203	1	-0.000390773	14	2.30304e-06
2	1	0	0	0	92.3054	0.260018	0.260207	0.00887365	1	-0.000388089	14	2.30899e-06
2	1	0	1	0	92.6056	0.263019	0.263248	0.00878197	1	-0.000385428	14	2.31183e-06
2	1	0	1	0	92.9056	0.26602	0.266233	0.00868199	1	-0.000382797	14	2.31143e-06
2	1	0	1	0	93.2057	0.269021	0.269269	0.00856076	1	-0.000380198	14	2.30514e-06
2	1	0	0	0	93.5058	0.272022	0.272215	0.00843143	1	-0.000377636	14	2.29516e-06
2	1	0	1	0	93.8059	0.275023	0.275251	0.00830632	1	-0.000375112	14	2.28632e-06
2	1	0	1	0	94.106	0.278024	0.278259	0.00818208	1	-0.000372626	14	2.27673e-06
2	1	0	1	0	94.4061	0.281025	0.281259	0.00804174	1	-0.000370179	14	2.26181e-06
2	1	0	0	0	94.7062	0.284026	0.284254	0.00789853	1	-0.000367774	14	2.24519e-06
2	1	0	1	0	95.0063	0.287028	0.287235	0.00776263	1	-0.000365411	14	2.2297e-06
2	1	0	1	0	95.3064	0.290028	0.290232	0.00762269	1	-0.00036309	14	2.21235e-06
2	1	0	1	0	95.6065	0.29303	0.293254	0.00748741	1	-0.000360809	14	2.19572e-06
2	1	0	0	0	95.9066	0.29603	0.296264	0.00735381	1	-0.000358568	14	2.17867e-06
2	1	0	0	0	96.2066	0.299031	0.299235	0.00721521	1	-0.000356369	14	2.15904e-06
2	1	0	1	0	96.5068	0.302032	0.302243	0.0070892	1	-0.000354207	14	2.14266e-06
2	1	0	1	0	96.8068	0.305033	0.30524	0.00696532	1	-0.000352084	14	2.12609e-06
2	1	0	0	0	97.107	0.308034	0.308256	0.00684198	1	-0.000349997	14	2.10908e-06
2	1	0	0	0	97.407	0.311035	0.311227	0.00671886	1	-0.000347948	14	2.09109e-06
2	1	0	1	0	97.7072	0.314036	0.314228	0.00659996	1	-0.000345933	14	2.07389e-06
2	1	0	1	0	98.0072	0.317037	0.317194	0.00648778	1	-0.000343952	14	2.05789e-06
2	1	0	0	0	98.3074	0.320038	0.320272	0.00637725	1	-0.000342004	14	2.04245e-06
2	1	0	0	0	98.6074	0.323039	0.323234	0.00626829	1	-0.00034009	14	2.02613e-06
2	1	0	1	0	98.9076	0.32604	0.326222	0.0061687	1	-0.000338206	14	2.01236e-06
2	1	0	1	0	99.2076	0.329041	0.329257	0.00607138	1	-0.000336353	14	1.99905e-06
2	1	0	0	0	99.5078	0.332042	0.332226	0.00597083	1	-0.000334528	14	1.98367e-06
2	1	0	0	0	99.8078	0.335043	0.335229	0.00587359	1	-0.000332732	14	1.969e-06
2	1	0	1	0	100.108	0.338044	0.338248	0.00578366	1	-0.000330964	14	1.95631e-06
2	1	0	1	0	100.408	0.341045	0.341241	0.00569717	1	-0.000329224	14	1.94411e-06
2	1	0	0	0	100.708	0.344046	0.344266	0.00561052	1	-0.000327508	14	1.93151e-06
2	1	0	0	0	101.008	0.347047	0.34723	0.00552799	1	-0.000325818	14	1.91949e-06
2	1	0	1	0	101.308	0.350048	0.350235	0.00544433	1	-0.000324153	14	1.90679e-06
2	1	0	1	0	101.608	0.353049	0.353238	0.00536574	1	-0.000322513	14	1.89538e-06
2	1	0	0	0	101.909	0.35605	0.35628	0.00528759	1	-0.000320895	14	1.88386e-06
2	1	0	0	0	102.209	0.359051	0.359281	0.00521518	1	-0.0003193	14	1.87371e-06
2	1	0	1	0	102.509	0.362051	0.362236	0.00513828	1	-0.000317726	14	1.86127e-06
2	1	0	1	0	102.809	0.365052	0.365219	0.00507042	1	-0.000316175	14	1.85181e-06
2	1	0	0	0	103.109	0.368053	0.368298	0.00500469	1	-0.000314642	14	1.84321e-06
2	1	0	0	0	103.409	0.371054	0.371253	0.0049365	1	-0.000313131	14	1.83269e-06
2	1	0	1	0	103.709	0.374055	0.374216	0.00487033	1	-0.000311639	14	1.82256e-06
2	1	0	1	0	104.009	0.377056	0.377256	0.00481123	1	-0.000310166	14	1.81507e-06
2	1	0	1	0	104.309	0.380057	0.380237	0.0047538	1	-0.00030871	14	1.80757e-06
2	1	0	0	0	104.609	0.383058	0.383245	0.00469572	1	-0.000307272	14	1.79961e-06
2	1	0	1	0	104.909	0.386059	0.386296	0.00463922	1	-0.000305851	14	1.79211e-06
2	1	0	1	0	105.21	0.38906	0.389301	0.00458332	1	-0.000304447	14	1.78429e-06
2	1	0	1	0	105.51	0.392061	0.392258	0.00453204	1	-0.000303059	14	1.77773e-06
2	1	0	0	0	105.81	0.395062	0.395251	0.00448523	1	-0.000301685	14	1.77279e-06
2	1	0	1	0	106.11	0.398064	0.39828	0.00443591	1	-0.000300326	14	1.76673e-06
2	1	0	1	0	106.41	0.401064	0.401268	0.00439124	1	-0.000298982	14	1.76206e-06
2	1	0	1	0	106.71	0.404065	0.40421	0.0043457	1	-0.000297651	14	1.75657e-06
2	1	0	0	0	107.01	0.407066	0.4073	0.00430033	1	-0.000296332	14	1.75152e-06
2	1	0	0	0	107.31	0.410067	0.410287	0.00426271	1	-0.000295027	14	1.74893e-06
2	1	0	1	0	107.61	0.413068	0.413266	0.00421868	1	-0.000293733	14	1.74343e-06
2	1	0	1	0	107.91	0.416069	0.416264	0.0041835	1	-0.000292452	14	1.74144e-06
2	1	0	0	0	108.211	0.41907	0.419275	0.00414661	1	-0.00029118	14	1.73857e-06
2	1	0	0	0	108.511	0.422071	0.422292	0.00411012	1	-0.000289921	14	1.73567e-06
2	1	0	1	0	108.811	0.425072	0.425254	0.00407529	1	-0.000288671	14	1.73304e-06
2	1	0	1	0	109.111	0.428073	0.428333	0.00404483	1	-0.000287432	14	1.73253e-06
2	1	0	0	0	109.411	0.431074	0.431316	0.00401535	1	-0.000286201	14	1.73189e-06
2	1	0	0	0	109.711	0.434075	0.434313	0.00398417	1	-0.00028498	14	1.73038e-06
2	1	0	1	0	110.011	0.437076	0.437274	0.00395318	1	-0.000283767	14	1.72862e-06
2	1	0	1	0	110.311	0.440077	0.440239	0.00392886	1	-0.000282564	14	1.72964e-06
2	1	0	0	0	110.611	0.443078	0.443289	0.0038991	1	-0.000281368	14	1.72843e-06
2	1	0	0	0	110.911	0.446079	0.446299	0.00387546	1	-0.00028018	14	1.72961e-06
2	1	0	1	0	111.212	0.44908	0.44932	0.00384984	1	-0.000278999	14	1.72981e-06
2	1	0	1	0	111.512	0.452081	0.452297	0.00382748	1	-0.000277827	14	1.73116e-06
2	1	0	0	0	111.812	0.455082	0.455287	0.00380278	1	-0.00027666	14	1.73136e-06
2	1	0	0	0	112.112	0.458083	0.458307	0.00378173	1	-0.000275501	14	1.73319e-06
2	1	0	1	0	112.412	0.461084	0.461301	0.00376529	1	-0.000274347	14	1.73693e-06
2	1	0	1	0	112.712	0.464085	0.464255	0.0037407	1	-0.0002732	14	1.73664e-06
2	1	0	0	0	113.012	0.467085	0.467298	0.00372267	1	-0.000272058	14	1.7396e-06
2	1	0	0	0	113.312	0.470086	0.470323	0.00370499	1	-0.000270923	14	1.74254e-06
2	1	0	1	0	113.612	0.473087	0.473302	0.0036863	1	-0.000269792	14	1.74473e-06
2	1	0	1	0	113.912	0.476088	0.476335	0.00366855	1	-0.000268667	14	1.74746e-06
2	1	0	0	0	114.213	0.479089	0.47929	0.0036498	1	-0.000267548	14	1.74931e-06
2	1	0	0	0	114.513	0.48209	0.48228	0.00363494	1	-0.000266433	14	1.75306e-06
2	1	0	1	0	114.813	0.485091	0.485346	0.00361532	1	-0.000265323	14	1.75468e-06
2	1	0	1	0	115.113	0.488092	0.488328	0.00360306	1	-0.000264218	14	1.75948e-06
2	1	0	1	0	115.413	0.491093	0.491307	0.0035871	1	-0.000263118	14	1.76237e-06
2	1	0	0	0	115.713	0.494094	0.494324	0.00357422	1	-0.000262022	14	1.76682e-06
2	1	0	1	0	116.013	0.497095	0.497262	0.00356298	1	-0.000260929	14	1.77174e-06
2	1	0	1	0	116.283	0.499796	0.499975	0.00354509	1	-0.00025995	14	1.77245e-06
2	1	0	1	1	116.364	0.499396	0.499673	0.00334235	1	-0.000259678	14	1.67008e-06
2	1	0	0	1	116.664	0.496395	0.49666	0.00294707	1	-0.000258764	14	1.46369e-06
2	1	0	0	1	116.964	0.493394	0.493628	0.00271774	1	-0.000257938	14	1.34155e-06
2	1	0	1	1	117.264	0.490393	0.49058	0.00254113	1	-0.000257171	14	1.24663e-06
2	1	0	1	1	117.564	0.487392	0.487584	0.00239547	1	-0.000256453	14	1.16799e-06
2	1	0	0	1	117.864	0.484391	0.484642	0.00226564	1	-0.000255776	14	1.09802e-06
2	1	0	0	1	118.164	0.48139	0.481611	0.00215069	1	-0.000255135	14	1.03579e-06
2	1	0	1	1	118.464	0.47839	0.478626	0.00204834	1	-0.000254527	14	9.80391e-07
2	1	0	1	1	118.764	0.475388	0.475619	0.00195909	1	-0.000253949	14	9.31779e-07
2	1	0	1	1	119.064	0.472387	0.472599	0.00187003	1	-0.000253397	14	8.83773e-07
2	1	0	0	1	119.365	0.469386	0.469566	0.00179003	1	-0.00025287	14	8.40536e-07
2	1	0	1	1	119.665	0.466385	0.466612	0.00171594	1	-0.000252367	14	8.00679e-07
2	1	0	1	1	119.965	0.463384	0.463591	0.00164567	1	-0.000251885	14	7.62918e-07
2	1	0	1	1	120.265	0.460383	0.460639	0.00158032	1	-0.000251423	14	7.27958e-07
2	1	0	0	1	120.565	0.457382	0.457596	0.00151704	1	-0.000250981	14	6.9419e-07
2	1	0	1	1	120.865	0.45438	0.454571	0.00145726	1	-0.000250557	14	6.62426e-07
2	1	0	1	1	121.165	0.45138	0.451598	0.00140293	1	-0.000250151	14	6.33559e-07
2	1	0	1	1	121.465	0.448379	0.448609	0.00134721	1	-0.00024976	14	6.04369e-07
2	1	0	0	1	121.765	0.445378	0.445636	0.0012955	1	-0.000249386	14	5.77323e-07
2	1	0	0	1	122.065	0.442378	0.44257	0.00124885	1	-0.000249028	14	5.52705e-07
2	1	0	1	1	122.366	0.439377	0.439621	0.00119666	1	-0.000248684	14	5.26076e-07
2	1	0	1	1	122.666	0.436376	0.436585	0.00115526	1	-0.000248354	14	5.04368e-07
2	1	0	0	1	122.966	0.433375	0.433611	0.00110689	1	-0.000248037	14	4.79961e-07
2	1	0	0	1	123.266	0.430374	0.430636	0.00106421	1	-0.000247734	14	4.58287e-07
2	1	0	1	1	123.566	0.427373	0.427609	0.00102169	1	-0.000247444	14	4.36884e-07
2	1	0	1	1	123.866	0.424372	0.424615	0.00098207	1	-0.000247167	14	4.17002e-07
2	1	0	0	1	124.166	0.421371	0.421615	0.000941184	1	-0.000246901	14	3.96817e-07
2	1	0	0	1	124.466	0.41837	0.418597	0.000901376	1	-0.000246647	14	3.77313e-07
2	1	0	1	1	124.766	0.415369	0.415597	0.000862857	1	-0.000246406	14	3.586e-07
2	1	0	1	1	125.066	0.412368	0.41256	0.000824359	1	-0.000246175	14	3.40098e-07
2	1	0	0	1	125.367	0.409367	0.409595	0.000787918	1	-0.000245955	14	3.22727e-07
2	1	0	0	1	125.667	0.406366	0.406633	0.000752953	1	-0.000245747	14	3.06175e-07
2	1	0	1	1	125.967	0.403365	0.403592	0.00071546	1	-0.00024555	14	2.88754e-07
2	1	0	1	1	126.267	0.400364	0.40057	0.000675564	1	-0.000245364	14	2.70611e-07
2	1	0	0	1	126.567	0.397363	0.397631	0.000643082	1	-0.000245188	14	2.5571e-07
2	1	0	0	1	126.867	0.394362	0.394581	0.000605139	1	-0.000245024	14	2.38776e-07
2	1	0	1	1	127.167	0.391361	0.391575	0.000569224	1	-0.00024487	14	2.22894e-07
2	1	0	1	1	127.467	0.38836	0.388555	0.000537285	1	-0.000244726	14	2.08765e-07
2	1	0	0	1	127.767	0.385359	0.385548	0.000501734	1	-0.000244593	14	1.93443e-07
2	1	0	0	1	128.067	0.382358	0.382618	0.000462844	1	-0.000244471	14	1.77093e-07
2	1	0	1	1	128.368	0.379357	0.37961	0.000426929	1	-0.000244359	14	1.62066e-07
2	1	0	1	1	128.668	0.376356	0.376589	0.000389439	1	-0.000244259	14	1.46658e-07
2	1	0	0	1	128.968	0.373355	0.37359	0.000354765	1	-0.00024417	14	1.32536e-07
2	1	0	0	1	129.268	0.370354	0.370557	0.000315422	1	-0.000244092	14	1.16882e-07
2	1	0	1	1	129.568	0.367354	0.367596	0.000273703	1	-0.000244026	14	1.00612e-07
2	1	0	1	1	129.868	0.364352	0.364552	0.000234578	1	-0.000243972	14	8.55158e-08
2	1	0	1	1	130.168	0.361351	0.361524	0.00019421	1	-0.00024393	14	7.02117e-08
2	1	0	0	1	130.468	0.35835	0.358615	0.000152548	1	-0.0002439	14	5.47058e-08
2	1	0	1	1	130.768	0.355349	0.355575	0.000107459	1	-0.000243882	14	3.82095e-08
2	1	0	1	1	131.068	0.352348	0.352582	5.94474e-05	1	-0.000243879	14	2.09601e-08
2	1	0	1	1	131.368	0.349347	0.349575	6.94922e-06	1	-0.000243889	14	2.42928e-09
2	1	0	0	1	131.669	0.346346	0.346587	-3.43825e-05	1	-0.000243914	14	-1.19165e-08
2	0	0	1	1	131.969	0.343345	0.343587	-8.65378e-05	1	-0.000243953	14	-2.97332e-08
2	0	0	1	1	132.269	0.340344	0.340567	-0.000139457	1	-0.000244008	14	-4.74947e-08
2	0	0	1	1	132.569	0.337343	0.337558	-0.000196635	1	-0.000244079	14	-6.63756e-08
2	0	0	0	1	132.869	0.334343	0.334555	-0.000254878	1	-0.000244167	14	-8.52708e-08
2	0	0	0	1	133.169	0.331342	0.331558	-0.000317256	1	-0.000244274	14	-1.05189e-07
2	0	0	1	1	133.469	0.328341	0.328585	-0.000385735	1	-0.000244399	14	-1.26747e-07
2	0	0	1	1	133.769	0.32534	0.325511	-0.000453084	1	-0.000244544	14	-1.47484e-07
2	0	0	0	1	134.069	0.322339	0.322547	-0.000526671	1	-0.000244711	14	-1.69876e-07
2	0	0	0	1	134.369	0.319338	0.319537	-0.000603106	1	-0.0002449	14	-1.92715e-07
2	0	0	1	1	134.67	0.316337	0.316561	-0.00068757	1	-0.000245112	14	-2.17658e-07
2	0	0	1	1	134.97	0.313336	0.313552	-0.000774852	1	-0.000245351	14	-2.42956e-07
2	0	0	0	1	135.27	0.310335	0.310583	-0.000870158	1	-0.000245616	14	-2.70256e-07
2	0	0	0	1	135.57	0.307334	0.307507	-0.000968153	1	-0.000245909	14	-2.97714e-07
2	0	0	1	1	135.87	0.304333	0.304511	-0.00107571	1	-0.000246233	14	-3.27564e-07
2	0	0	1	1	136.17	0.301332	0.301486	-0.00119028	1	-0.00024659	14	-3.58854e-07
2	0	0	0	1	136.47	0.298331	0.29852	-0.00131332	1	-0.000246982	14	-3.92051e-07
2	0	0	0	1	136.77	0.29533	0.295548	-0.00144058	1	-0.000247411	14	-4.25761e-07
2	0	0	1	1	137.07	0.292329	0.292554	-0.0015853	1	-0.00024788	14	-4.63788e-07
2	0	0	1	1	137.37	0.289328	0.289552	-0.00173632	1	-0.000248394	14	-5.02754e-07
2	0	0	0	1	137.671	0.286327	0.286577	-0.00189605	1	-0.000248955	14	-5.43365e-07
2	0	0	0	1	137.971	0.283326	0.283543	-0.00206566	1	-0.000249564	14	-5.85702e-07
2	0	0	1	1	138.271	0.280325	0.28053	-0.00225529	1	-0.000250227	14	-6.32676e-07
2	0	0	1	1	138.571	0.277324	0.277512	-0.00246089	1	-0.000250948	14	-6.82926e-07
2	0	0	0	1	138.871	0.274323	0.274534	-0.00267211	1	-0.000251732	14	-7.33583e-07
2	0	0	0	1	139.171	0.271322	0.271532	-0.00289692	1	-0.000252581	14	-7.86608e-07
2	0	0	1	1	139.471	0.268321	0.268531	-0.00314398	1	-0.000253501	14	-8.44255e-07
2	0	0	1	1	139.771	0.26532	0.265508	-0.00341076	1	-0.000254497	14	-9.05587e-07
2	0	0	1	1	140.071	0.26232	0.262515	-0.00369298	1	-0.000255576	14	-9.69463e-07
2	0	0	0	1	140.371	0.259318	0.259474	-0.00399539	1	-0.000256741	14	-1.0367e-06
2	0	0	1	1	140.671	0.256318	0.256518	-0.00430797	1	-0.000257997	14	-1.10507e-06
2	0	0	1	1	140.972	0.253316	0.253497	-0.00464362	1	-0.000259351	14	-1.17714e-06
2	0	0	1	1	141.272	0.250316	0.250515	-0.00499598	1	-0.000260808	14	-1.25157e-06
2	0	0	0	1	141.572	0.247314	0.247534	-0.00536513	1	-0.000262373	14	-1.32805e-06
2	0	0	1	1	141.872	0.244313	0.244492	-0.00573537	1	-0.00026405	14	-1.40225e-06
2	0	0	1	1	142.172	0.241312	0.241514	-0.00613223	1	-0.000265842	14	-1.48102e-06
2	0	0	1	1	142.472	0.238311	0.238525	-0.00655056	1	-0.000267756	14	-1.56247e-06
2	0	0	0	1	142.772	0.23531	0.235478	-0.00696056	1	-0.000269794	14	-1.63906e-06
2	0	0	0	1	143.072	0.23231	0.232536	-0.00736337	1	-0.000271955	14	-1.71225e-06
2	0	0	1	1	143.372	0.229308	0.229471	-0.00779254	1	-0.00027424	14	-1.78816e-06
2	0	0	1	1	143.672	0.226308	0.226512	-0.00821835	1	-0.000276651	14	-1.86156e-06
2	0	0	0	1	143.973	0.223307	0.223472	-0.00862817	1	-0.00027919	14	-1.92815e-06
2	0	0	0	1	144.273	0.220306	0.220493	-0.00902653	1	-0.000281849	14	-1.99028e-06
2	0	0	1	1	144.573	0.217305	0.217431	-0.00941206	1	-0.000284624	14	-2.04647e-06
2	0	0	1	1	144.873	0.214304	0.214516	-0.00979286	1	-0.000287515	14	-2.10073e-06
2	0	0	0	1	145.173	0.211303	0.21146	-0.0101577	1	-0.000290521	14	-2.14794e-06
2	0	0	0	1	145.473	0.208302	0.208511	-0.0104945	1	-0.000293628	14	-2.18821e-06
2	0	0	1	1	145.773	0.205301	0.205466	-0.0107934	1	-0.00029683	14	-2.21767e-06
2	0	0	1	1	146.103	0.202	0.202212	-0.0110333	1	-0.000300451	13	-2.23107e-06
2	0	0	0	1	146.403	0.198999	0.199186	-0.0112928	1	-0.000303832	13	-2.24938e-06
2	0	0	0	1	146.703	0.195998	0.196244	-0.0115163	1	-0.000307284	13	-2.26001e-06
2	0	0	1	1	147.004	0.192997	0.193184	-0.0116926	1	-0.000310798	13	-2.25881e-06
2	0	0	1	1	147.304	0.189996	0.190202	-0.0118493	1	-0.00031436	13	-2.25376e-06
2	0	0	0	1	147.604	0.186995	0.187208	-0.0119904	1	-0.000317969	13	-2.24471e-06
2	0	0	0	1	147.904	0.183994	0.184227	-0.0120871	1	-0.000321611	13	-2.22678e-06
2	0	0	1	1	148.204	0.180993	0.181198	-0.012141	1	-0.000325278	13	-2.19992e-06
2	0	0	1	1	148.504	0.177992	0.178166	-0.0121878	1	-0.000328957	13	-2.17145e-06
2	0	0	0	1	148.804	0.174991	0.175166	-0.0122058	1	-0.000332646	13	-2.13805e-06
2	0	0	0	1	149.104	0.17199	0.172205	-0.0121846	1	-0.000336332	13	-2.09825e-06
2	0	0	1	1	149.404	0.168989	0.169193	-0.0121331	1	-0.00034001	13	-2.05284e-06
2	0	0	1	1	149.704	0.165988	0.1662	-0.0120575	1	-0.000343666	13	-2.00395e-06
2	0	0	0	1	150.005	0.162987	0.163214	-0.0119603	1	-0.000347297	13	-1.95208e-06
2	0	0	0	1	150.305	0.159986	0.16018	-0.0118354	1	-0.000350892	13	-1.89581e-06
2	0	0	1	1	150.605	0.156985	0.157239	-0.0116989	1	-0.000354449	13	-1.83952e-06
2	0	0	1	1	150.905	0.153984	0.154165	-0.0115527	1	-0.000357957	13	-1.78102e-06
2	0	0	0	1	151.205	0.150983	0.151169	-0.0113789	1	-0.000361423	13	-1.72014e-06
2	0	0	0	1	151.505	0.147982	0.148194	-0.0112199	1	-0.000364836	13	-1.66272e-06
2	0	0	1	1	151.805	0.144982	0.145199	-0.0110594	1	-0.000368201	13	-1.60581e-06
2	0	0	1	1	152.105	0.14198	0.142226	-0.0108919	1	-0.000371517	13	-1.5491e-06
2	0	0	1	1	152.405	0.13898	0.139194	-0.0107424	1	-0.000374786	13	-1.49527e-06
2	0	0	0	1	152.705	0.135978	0.13618	-0.0105973	1	-0.00037801	13	-1.44314e-06
2	0	0	1	1	153.005	0.132978	0.133184	-0.0104499	1	-0.00038119	13	-1.39175e-06
2	0	0	1	1	153.306	0.129976	0.13013	-0.0103011	1	-0.000384325	13	-1.34048e-06
2	0	0	1	1	153.606	0.126975	0.127145	-0.0101689	1	-0.000387418	13	-1.29293e-06
2	0	0	0	1	153.906	0.123974	0.124125	-0.0100417	1	-0.000390471	13	-1.24643e-06
2	0	0	1	1	154.206	0.120973	0.121203	-0.00991068	1	-0.000393485	13	-1.2012e-06
2	0	0	1	1	154.506	0.117972	0.118136	-0.00978594	1	-0.00039646	13	-1.15607e-06
2	0	0	1	1	154.806	0.114971	0.115163	-0.00966392	1	-0.000399397	13	-1.11292e-06
2	0	0	0	1	155.106	0.111971	0.11217	-0.00954446	1	-0.000402299	13	-1.0706e-06
2	0	0	0	1	155.406	0.10897	0.109126	-0.00943529	1	-0.000405166	13	-1.02963e-06
2	0	0	1	1	155.706	0.105969	0.106149	-0.00932303	1	-0.000408	13	-9.8963e-07
2	0	0	1	1	156.006	0.102968	0.103158	-0.00921717	1	-0.0004108	13	-9.50826e-07
2	0	0	0	1	156.307	0.0999666	0.10012	-0.00911419	1	-0.000413571	13	-9.12511e-07
2	0	0	0	1	156.607	0.0969657	0.0971757	-0.00901792	1	-0.000416309	13	-8.76323e-07
2	0	0	1	1	156.907	0.0939647	0.0941372	-0.00892212	1	-0.000419021	13	-8.39903e-07
2	0	0	1	1	157.207	0.0909637	0.0911688	-0.00883204	1	-0.000421702	13	-8.05207e-07
2	0	0	0	1	157.507	0.0879628	0.0881749	-0.00874347	1	-0.000424359	13	-7.70954e-07
2	0	0	0	1	157.807	0.0849618	0.0851491	-0.00866353	1	-0.000426989	13	-7.37692e-07
2	0	0	1	1	158.107	0.0819608	0.0821478	-0.00858035	1	-0.000429595	13	-7.04857e-07
2	0	0	1	1	158.407	0.0789598	0.0791528	-0.0084995	1	-0.000432175	13	-6.72759e-07
2	0	0	0	1	158.707	0.0759589	0.0761642	-0.00842461	1	-0.000434733	13	-6.41654e-07
2	0	0	0	1	159.007	0.0729579	0.0731406	-0.00835126	1	-0.000437268	13	-6.10816e-07
2	0	0	1	1	159.308	0.0699569	0.0701287	-0.00828566	1	-0.000439783	13	-5.81062e-07
2	0	0	1	1	159.608	0.066956	0.0671538	-0.00821739	1	-0.000442276	13	-5.51829e-07
2	0	0	0	1	159.908	0.063955	0.0641525	-0.00814786	1	-0.00044475	13	-5.22705e-07
2	0	0	0	1	160.208	0.060954	0.061114	-0.00808921	1	-0.000447203	13	-4.94364e-07
2	0	0	1	1	160.508	0.057953	0.0581795	-0.0080298	1	-0.00044964	13	-4.6717e-07
2	0	0	1	1	160.808	0.0549521	0.0551347	-0.00796697	1	-0.000452057	13	-4.39257e-07
2	0	0	0	1	161.108	0.0519511	0.0521471	-0.00790971	1	-0.000454458	13	-4.12469e-07
2	0	0	0	1	161.408	0.0489501	0.0491861	-0.00785822	1	-0.000456841	13	-3.86515e-07
2	0	0	1	1	161.708	0.0459492	0.0461476	-0.00780364	1	-0.00045921	13	-3.60119e-07
2	0	0	1	1	162.008	0.0429482	0.0431569	-0.00775446	1	-0.000461562	13	-3.34658e-07
2	0	0	0	1	162.309	0.0399472	0.0401789	-0.0077013	1	-0.0004639	13	-3.0943e-07
2	0	0	0	1	162.609	0.0369462	0.0371702	-0.00765526	1	-0.000466222	13	-2.84547e-07
2	0	0	1	1	162.909	0.0339462	0.0341083	-0.00760993	1	-0.000468531	13	-2.59562e-07
2	0	0	1	1	163.209	0.0309443	0.0311367	-0.00756777	1	-0.000470827	13	-2.35635e-07
2	0	0	1	1	163.509	0.0279438	0.0281239	-0.00752054	1	-0.000473109	13	-2.11506e-07
2	0	0	0	1	163.809	0.0249424	0.0251595	-0.00747837	1	-0.000475378	13	-1.88152e-07
2	0	0	1	1	164.109	0.0219416	0.022133	-0.00743744	1	-0.000477635	13	-1.64613e-07
2	0	0	1	1	164.409	0.0189404	0.0191271	-0.00740168	1	-0.000479881	13	-1.41573e-07
2	0	0	1	1	164.709	0.0159392	0.0161319	-0.0073653	1	-0.000482115	13	-1.18817e-07
2	0	0	0	1	165.009	0.0129385	0.0131159	-0.00732594	1	-0.000484337	13	-9.60866e-08
2	0	0	1	1	165.309	0.00993684	0.0101745	-0.0072909	1	-0.000486549	13	-7.41815e-08
2	0	0	1	1	165.61	0.00693653	0.00712706	-0.00725747	1	-0.000488751	13	-5.17245e-08
2	0	0	1	1	165.91	0.00393467	0.00413423	-0.00722507	1	-0.000490942	13	-2.98701e-08
2	0	0	0	1	166.21	0.000934588	0.00111802	-0.00718992	1	-0.000493124	13	-8.03847e-09
2	0	0	0	1	166.298	-1.57199e-05	0.000266102	-0.00733095	1	-0.000493766	13	-1.95078e-09