File: Data/2025-02-10 exp 9 CV 500mvs_C05.mpt
EC-Lab ASCII FILE
Nb header lines : 59

Cyclic Voltammetry

Run on channel : 5 (SN 39658)
User :
CE vs. WE compliance from -10 V to 10 V
Electrode connection : standard
Potential control : Ewe
Ewe ctrl range : min = -2.50 V, max = 2.50 V
Safety Limits :
	Do not start on E overload
Acquisition started on : 02/10/2025 12:59:58.486
Loaded Setting File :  NONE
Saved on :
	File : 2025-02-10 exp 9 CV 500mvs_C05.mpr
	Directory : C:\Users\thefo\OneDrive\Documents\EC-Lab\Data\CHEM 451\
	Host : 172.24.113.132
Device : VSP (SN 1910)
Address : USB
EC-Lab for windows v11.46 (software)
Internet server v11.40 (firmware)
Command interpretor v11.40 (firmware)
Electrode material : Au/Pd
Initial state :
Electrolyte : NaCl (0.2M)
Comments : Fe(CN)63-/Fe(CN)64- 5.10-3 M
Current amplifier : VSPB-4A
Reference electrode : SCE Saturated Calomel Electrode (0.241 V)
Electrode surface area : 0.001 cm²
Characteristic mass : 0.001 g
Equivalent Weight : 0.000 g/eq.
Density : 0.000 g/cm3
Volume (V) : 0.001 cm³
Cycle Definition : Charge/Discharge alternance
Ei (V)              0.000
vs.                 Eoc
dE/dt               500.000
dE/dt unit          mV/s
E1 (V)              -0.200
vs.                 Ref
Step percent        50
N                   10
E range min (V)     -2.500
E range max (V)     2.500
I Range             Auto
I Range min         Unset
I Range max         Unset
I Range init        Unset
Bandwidth           4
E2 (V)              0.500
vs.                 Ref
nc cycles           0
Reverse Scan        1
Ef (V)              0.000
vs.                 Ref

mode	ox/red	error	control changes	counter inc.	time/s	control/V	Ewe/V	<I>/mA	cycle number	(Q-Qo)/C	I Range	P/W
2	1	0	0	0	0.000000000000000E+000	0.298281	0.298268	7.95456e-05	1	0.0000000E+000	14	2.37259e-08
2	0	0	1	0	0.0053	0.29573	0.296532	-0.00390496	1	-9.31704e-09	14	-1.15794e-06
2	0	0	1	0	0.0113	0.292729	0.293138	-0.00614036	1	-4.11116e-08	14	-1.79997e-06
2	0	0	1	0	0.0173	0.289728	0.290157	-0.00777875	1	-8.28536e-08	14	-2.25706e-06
2	0	0	1	0	0.0233	0.286727	0.287098	-0.00934403	1	-1.34492e-07	14	-2.68265e-06
2	0	0	1	0	0.0293	0.283726	0.284186	-0.0108165	1	-1.95127e-07	14	-3.07388e-06
2	0	0	1	0	0.0653	0.26572	0.265958	-0.0197401	1	-6.34472e-07	13	-5.25004e-06
2	0	0	1	0	0.0713	0.262719	0.262942	-0.0213631	1	-7.5783e-07	13	-5.61725e-06
2	0	0	1	0	0.0773	0.259718	0.259911	-0.0230504	1	-8.91142e-07	13	-5.99106e-06
2	0	0	1	0	0.0833	0.256717	0.256953	-0.0247524	1	-1.03455e-06	13	-6.36021e-06
2	0	0	1	0	0.0893	0.253716	0.253983	-0.0265501	1	-1.18859e-06	13	-6.74326e-06
2	0	0	1	0	0.0953	0.250715	0.251005	-0.0284319	1	-1.35376e-06	13	-7.13655e-06
2	0	0	1	0	0.1013	0.247714	0.247921	-0.0303514	1	-1.53039e-06	13	-7.52474e-06
2	0	0	1	0	0.1073	0.244714	0.244918	-0.0323063	1	-1.71862e-06	13	-7.9124e-06
2	0	0	1	0	0.1133	0.241713	0.241938	-0.0344108	1	-1.91905e-06	13	-8.32529e-06
2	0	0	1	0	0.1193	0.238712	0.238941	-0.0365489	1	-2.13209e-06	13	-8.73304e-06
2	0	0	1	0	0.1253	0.235711	0.235962	-0.0387502	1	-2.35817e-06	13	-9.14358e-06
2	0	0	1	0	0.1313	0.23271	0.232978	-0.0409372	1	-2.59751e-06	13	-9.53745e-06
2	0	0	1	0	0.1373	0.229709	0.229971	-0.0431796	1	-2.85011e-06	13	-9.93005e-06
2	0	0	1	0	0.1433	0.226708	0.226912	-0.0455377	1	-3.1166e-06	13	-1.03331e-05
2	0	0	1	0	0.1493	0.223707	0.223934	-0.0478779	1	-3.39718e-06	13	-1.07215e-05
2	0	0	1	0	0.1553	0.220706	0.220891	-0.0502559	1	-3.69174e-06	13	-1.1101e-05
2	0	0	1	0	0.1613	0.217705	0.217982	-0.052595	1	-4.00028e-06	13	-1.14648e-05
2	0	0	1	0	0.1673	0.214704	0.21492	-0.0549377	1	-4.32298e-06	13	-1.18072e-05
2	0	0	1	0	0.1733	0.211703	0.211906	-0.0572574	1	-4.65974e-06	13	-1.21332e-05
2	0	0	1	0	0.1793	0.208702	0.20899	-0.0595444	1	-5.01044e-06	13	-1.24442e-05
2	0	0	1	0	0.1853	0.205701	0.205934	-0.0617231	1	-5.37456e-06	13	-1.27109e-05
2	0	0	1	0	0.1913	0.2027	0.202944	-0.0639291	1	-5.7519e-06	13	-1.2974e-05
2	0	0	1	0	0.1973	0.199699	0.199901	-0.0660514	1	-6.1422e-06	13	-1.32038e-05
2	0	0	1	0	0.2033	0.196698	0.196915	-0.0680671	1	-6.54486e-06	13	-1.34034e-05
2	0	0	1	0	0.2093	0.193697	0.193944	-0.0699353	1	-6.95929e-06	13	-1.35636e-05
2	0	0	1	0	0.2153	0.190696	0.190937	-0.0717851	1	-7.38479e-06	13	-1.37064e-05
2	0	0	1	0	0.2213	0.187695	0.187911	-0.0735201	1	-7.8208e-06	13	-1.38152e-05
2	0	0	1	0	0.2273	0.184694	0.184947	-0.0750911	1	-8.26681e-06	13	-1.38878e-05
2	0	0	1	0	0.2333	0.181693	0.181907	-0.0764781	1	-8.72179e-06	13	-1.39119e-05
2	0	0	1	0	0.2393	0.178692	0.178935	-0.0777731	1	-9.18465e-06	13	-1.39164e-05
2	0	0	1	0	0.2453	0.175691	0.17592	-0.078963	1	-9.65504e-06	13	-1.38912e-05
2	0	0	1	0	0.2513	0.17269	0.17291	-0.0800017	1	-1.0132e-05	13	-1.38331e-05
2	0	0	1	0	0.2573	0.169689	0.169929	-0.0809122	1	-1.06148e-05	13	-1.37493e-05
2	0	0	1	0	0.2633	0.166688	0.166933	-0.0816059	1	-1.11023e-05	13	-1.36227e-05
2	0	0	1	0	0.2693	0.163687	0.163914	-0.0822173	1	-1.15938e-05	13	-1.34766e-05
2	0	0	1	0	0.2753	0.160686	0.160927	-0.082736	1	-1.20887e-05	13	-1.33145e-05
2	0	0	1	0	0.2813	0.157685	0.157895	-0.0830734	1	-1.25863e-05	13	-1.31169e-05
2	0	0	1	0	0.2873	0.154684	0.154893	-0.083296	1	-1.30855e-05	13	-1.2902e-05
2	0	0	1	0	0.2933	0.151683	0.15187	-0.0834695	1	-1.35858e-05	13	-1.26765e-05
2	0	0	1	0	0.2993	0.148682	0.148905	-0.0835222	1	-1.40868e-05	13	-1.24369e-05
2	0	0	1	0	0.3053	0.145681	0.14585	-0.0834878	1	-1.45877e-05	13	-1.21767e-05
2	0	0	1	0	0.3113	0.14268	0.142915	-0.0833186	1	-1.50882e-05	13	-1.19075e-05
2	0	0	1	0	0.3173	0.13968	0.139859	-0.0831293	1	-1.55875e-05	13	-1.16264e-05
2	0	0	1	0	0.3233	0.136679	0.136854	-0.0829114	1	-1.60856e-05	13	-1.13468e-05
2	0	0	1	0	0.3293	0.133678	0.133891	-0.0825902	1	-1.65821e-05	13	-1.10581e-05
2	0	0	1	0	0.3353	0.130677	0.130882	-0.0822414	1	-1.70766e-05	13	-1.07639e-05
2	0	0	1	0	0.3413	0.127676	0.127881	-0.0818855	1	-1.75688e-05	13	-1.04716e-05
2	0	0	1	0	0.3473	0.124675	0.124854	-0.0814391	1	-1.80587e-05	13	-1.0168e-05
2	0	0	1	0	0.3533	0.121674	0.121865	-0.0810312	1	-1.85461e-05	13	-9.87491e-06
2	0	0	1	0	0.3593	0.118673	0.11886	-0.0805879	1	-1.90308e-05	13	-9.57866e-06
2	0	0	1	0	0.3653	0.115672	0.115848	-0.0801066	1	-1.95127e-05	13	-9.28018e-06
2	0	0	1	0	0.3713	0.112671	0.112833	-0.079618	1	-1.99918e-05	13	-8.98351e-06
2	0	0	1	0	0.3773	0.10967	0.109887	-0.0791538	1	-2.04681e-05	13	-8.69793e-06
2	0	0	1	0	0.3833	0.106669	0.106889	-0.0786767	1	-2.09417e-05	13	-8.40971e-06
2	0	0	1	0	0.3893	0.103668	0.103902	-0.0781563	1	-2.14122e-05	13	-8.12059e-06
2	0	0	1	0	0.3953	0.100667	0.100849	-0.0777306	1	-2.18799e-05	13	-7.83903e-06
2	0	0	1	0	0.4013	0.0976659	0.0978812	-0.0772509	1	-2.23449e-05	13	-7.56141e-06
2	0	0	1	0	0.4073	0.0946649	0.0948693	-0.0768288	1	-2.2807e-05	13	-7.28869e-06
2	0	0	1	0	0.4133	0.091664	0.0919263	-0.0763505	1	-2.32665e-05	13	-7.01861e-06
2	0	0	1	0	0.4193	0.088663	0.0888751	-0.0759199	1	-2.37233e-05	13	-6.74739e-06
2	0	0	1	0	0.4253	0.085662	0.0858536	-0.075511	1	-2.41775e-05	13	-6.48289e-06
2	0	0	1	0	0.4313	0.082661	0.0828045	-0.0751036	1	-2.46294e-05	13	-6.21891e-06
2	0	0	1	0	0.4373	0.0796601	0.0798308	-0.0747128	1	-2.50787e-05	13	-5.96438e-06
2	0	0	1	0	0.4433	0.0766591	0.0768644	-0.0743236	1	-2.55256e-05	13	-5.71284e-06
2	0	0	1	0	0.4493	0.0736581	0.0738207	-0.0739419	1	-2.59703e-05	13	-5.45844e-06
2	0	0	1	0	0.4553	0.0706572	0.0708522	-0.0736138	1	-2.64128e-05	13	-5.2157e-06
2	0	0	1	0	0.4613	0.0676562	0.0678318	-0.0732469	1	-2.68532e-05	13	-4.96847e-06
2	0	0	1	0	0.4673	0.0646552	0.06484	-0.0729029	1	-2.72914e-05	13	-4.72702e-06
2	0	0	1	0	0.4733	0.0616542	0.061863	-0.0725313	1	-2.77276e-05	13	-4.48701e-06
2	0	0	1	0	0.4793	0.0586533	0.0588479	-0.0722248	1	-2.8162e-05	13	-4.25028e-06
2	0	0	1	0	0.4853	0.0556523	0.0558423	-0.0718872	1	-2.85945e-05	13	-4.01435e-06
2	0	0	1	0	0.4913	0.0526513	0.052893	-0.0716126	1	-2.90251e-05	13	-3.7878e-06
2	0	0	1	0	0.4973	0.0496504	0.0498683	-0.0713701	1	-2.9454e-05	13	-3.55911e-06
2	0	0	1	0	0.5033	0.0466494	0.0468457	-0.0710905	1	-2.98813e-05	13	-3.33028e-06
2	0	0	1	0	0.5093	0.0436484	0.0438158	-0.0708275	1	-3.0307e-05	13	-3.10336e-06
2	0	0	1	0	0.5153	0.0406474	0.0408728	-0.0705334	1	-3.07312e-05	13	-2.88289e-06
2	0	0	1	0	0.5213	0.0376465	0.0378269	-0.0702909	1	-3.11537e-05	13	-2.65888e-06
2	0	0	1	0	0.5273	0.0346455	0.0348733	-0.0700537	1	-3.15749e-05	13	-2.443e-06
2	0	0	1	0	0.5333	0.0316445	0.0318401	-0.0698814	1	-3.19948e-05	13	-2.22503e-06
2	0	0	1	0	0.5393	0.0286436	0.0288409	-0.0696465	1	-3.24133e-05	13	-2.00867e-06
2	0	0	1	0	0.5453	0.0256426	0.025813	-0.06944	1	-3.28304e-05	13	-1.79246e-06
2	0	0	1	0	0.5513	0.0226416	0.022817	-0.0692537	1	-3.32463e-05	13	-1.58016e-06
2	0	0	1	0	0.5573	0.0196406	0.0198146	-0.0690439	1	-3.36611e-05	13	-1.36808e-06
2	0	0	1	0	0.5633	0.0166397	0.0168175	-0.0688675	1	-3.40748e-05	13	-1.15818e-06
2	0	0	1	0	0.5693	0.0136387	0.0138193	-0.0686413	1	-3.44873e-05	13	-9.48577e-07
2	0	0	1	0	0.5753	0.0106377	0.0108944	-0.0684828	1	-3.48987e-05	13	-7.46078e-07
2	0	0	1	0	0.5813	0.00763676	0.00782939	-0.0683212	1	-3.53091e-05	13	-5.34914e-07
2	0	0	1	0	0.5873	0.00463579	0.00480365	-0.0681608	1	-3.57185e-05	13	-3.2742e-07
2	0	0	1	0	0.5933	0.00163481	0.00181717	-0.0679755	1	-3.6127e-05	13	-1.23523e-07
2	0	0	1	0	0.5993	-0.00136616	-0.00114068	-0.0678337	1	-3.65345e-05	13	7.73763e-08
2	0	0	1	0	0.6053	-0.00436713	-0.00420355	-0.0679318	1	-3.69414e-05	13	2.85555e-07
2	0	0	1	0	0.6113	-0.0073681	-0.00723566	-0.0676402	1	-3.73477e-05	13	4.89421e-07
2	0	0	1	0	0.6174	-0.0103991	-0.0102809	-0.0674282	1	-3.77596e-05	13	6.93224e-07
2	0	0	1	0	0.6235	-0.01337	-0.0132543	-0.0672638	1	-3.81698e-05	13	8.91531e-07
2	0	0	1	0	0.6295	-0.016371	-0.0162471	-0.0671619	1	-3.85731e-05	13	1.09119e-06
2	0	0	1	0	0.6355	-0.019372	-0.0192665	-0.067013	1	-3.89757e-05	13	1.2911e-06
2	0	0	1	0	0.6415	-0.022373	-0.0222519	-0.0669602	1	-3.93776e-05	13	1.48999e-06
2	0	0	1	0	0.6475	-0.0253739	-0.0252819	-0.0668288	1	-3.97788e-05	13	1.68956e-06
2	0	0	1	0	0.6535	-0.0283749	-0.0282068	-0.0666957	1	-4.01793e-05	13	1.88128e-06
2	0	0	1	0	0.6595	-0.0313759	-0.0312506	-0.0666162	1	-4.05793e-05	13	2.0818e-06
2	0	0	1	0	0.6655	-0.0343769	-0.0342318	-0.066516	1	-4.09787e-05	13	2.27696e-06
2	0	0	1	0	0.6715	-0.0373778	-0.0372066	-0.0664	1	-4.13774e-05	13	2.47052e-06
2	0	0	1	0	0.6775	-0.0403788	-0.040226	-0.0663267	1	-4.17756e-05	13	2.66806e-06
2	0	0	1	0	0.6835	-0.0433798	-0.0432825	-0.0662326	1	-4.21733e-05	13	2.86671e-06
2	0	0	1	0	0.6895	-0.0463808	-0.0462828	-0.0661645	1	-4.25704e-05	13	3.06228e-06
2	0	0	1	0	0.6955	-0.0493817	-0.049265	-0.0660381	1	-4.29671e-05	13	3.25337e-06
2	0	0	1	0	0.7015	-0.0523827	-0.0522452	-0.0659846	1	-4.33631e-05	13	3.44737e-06
2	0	0	1	0	0.7075	-0.0553837	-0.055238	-0.0659112	1	-4.37588e-05	13	3.6408e-06
2	0	0	1	0	0.7135	-0.0583846	-0.0582765	-0.0658367	1	-4.41542e-05	13	3.83673e-06
2	0	0	1	0	0.7195	-0.0613856	-0.0612502	-0.0657449	1	-4.45489e-05	13	4.02689e-06
2	0	0	1	0	0.7255	-0.0643866	-0.0642304	-0.0657081	1	-4.49432e-05	13	4.22045e-06
2	0	0	1	0	0.7315	-0.0673876	-0.067254	-0.0656389	1	-4.53373e-05	13	4.41448e-06
2	0	0	1	0	0.7375	-0.0703885	-0.0702691	-0.0656009	1	-4.5731e-05	13	4.60972e-06
2	0	0	1	0	0.7435	-0.0733895	-0.0732811	-0.0655759	1	-4.61243e-05	13	4.80547e-06
2	0	0	1	0	0.7495	-0.0763905	-0.0762219	-0.06549	1	-4.65172e-05	13	4.99177e-06
2	0	0	1	0	0.7555	-0.0793915	-0.079271	-0.0654258	1	-4.69098e-05	13	5.18637e-06
2	0	0	1	0	0.7615	-0.0823924	-0.0822617	-0.0653691	1	-4.73023e-05	13	5.37738e-06
2	0	0	1	0	0.7675	-0.0853934	-0.0852907	-0.0653089	1	-4.76943e-05	13	5.57024e-06
2	0	0	1	0	0.7735	-0.0883944	-0.088223	-0.0652386	1	-4.80861e-05	13	5.75555e-06
2	0	0	1	0	0.7795	-0.0913953	-0.0912604	-0.0652359	1	-4.84776e-05	13	5.95346e-06
2	0	0	1	0	0.7855	-0.0943963	-0.094318	-0.0652258	1	-4.88689e-05	13	6.15197e-06
2	0	0	1	0	0.7915	-0.0973973	-0.0972769	-0.065184	1	-4.926e-05	13	6.3409e-06
2	0	0	1	0	0.7975	-0.100398	-0.100251	-0.0650945	1	-4.96509e-05	13	6.52577e-06
2	0	0	1	0	0.8035	-0.103399	-0.103301	-0.0650742	1	-5.00415e-05	13	6.72222e-06
2	0	0	1	0	0.8095	-0.1064	-0.10628	-0.0650552	1	-5.0432e-05	13	6.91406e-06
2	0	0	1	0	0.8155	-0.109401	-0.1093	-0.0650013	1	-5.08223e-05	13	7.10466e-06
2	0	0	1	0	0.8215	-0.112402	-0.112236	-0.0649853	1	-5.12123e-05	13	7.29368e-06
2	0	0	1	0	0.8275	-0.115403	-0.115263	-0.0650227	1	-5.16022e-05	13	7.4947e-06
2	0	0	1	0	0.8335	-0.118404	-0.118306	-0.0649605	1	-5.1992e-05	13	7.68524e-06
2	0	0	1	0	0.8395	-0.121405	-0.121292	-0.0649698	1	-5.23818e-05	13	7.88031e-06
2	0	0	1	0	0.8455	-0.124406	-0.12429	-0.064953	1	-5.27715e-05	13	8.07302e-06
2	0	0	1	0	0.8515	-0.127407	-0.127255	-0.0648893	1	-5.31609e-05	13	8.25751e-06
2	0	0	1	0	0.8575	-0.130408	-0.130285	-0.0649116	1	-5.35504e-05	13	8.45702e-06
2	0	0	1	0	0.8635	-0.133409	-0.133279	-0.0648939	1	-5.39398e-05	13	8.64901e-06
2	0	0	1	0	0.8695	-0.13641	-0.136302	-0.0648661	1	-5.43292e-05	13	8.84137e-06
2	0	0	1	0	0.8755	-0.139411	-0.13928	-0.0648781	1	-5.47186e-05	13	9.03621e-06
2	0	0	1	0	0.8815	-0.142412	-0.142309	-0.0648863	1	-5.51079e-05	13	9.23389e-06
2	0	0	1	0	0.8875	-0.145413	-0.145298	-0.0649163	1	-5.54972e-05	13	9.43223e-06
2	0	0	1	0	0.8935	-0.148414	-0.148258	-0.0649037	1	-5.58866e-05	13	9.62252e-06
2	0	0	1	0	0.8995	-0.151415	-0.151254	-0.0648728	1	-5.6276e-05	13	9.81229e-06
2	0	0	1	0	0.9055	-0.154416	-0.154292	-0.0649002	1	-5.66653e-05	13	1.00136e-05
2	0	0	1	0	0.9115	-0.157417	-0.157287	-0.0648985	1	-5.70547e-05	13	1.02077e-05
2	0	0	1	0	0.9175	-0.160418	-0.160276	-0.0648969	1	-5.74442e-05	13	1.04014e-05
2	0	0	1	0	0.9235	-0.163419	-0.16328	-0.0649233	1	-5.78338e-05	13	1.06007e-05
2	0	0	1	0	0.9295	-0.16642	-0.166273	-0.064956	1	-5.82233e-05	13	1.08004e-05
2	0	0	1	0	0.9355	-0.169421	-0.169292	-0.0649469	1	-5.8613e-05	13	1.0995e-05
2	0	0	1	0	0.9415	-0.172422	-0.172302	-0.0650063	1	-5.90028e-05	13	1.12007e-05
2	0	0	1	0	0.9475	-0.175423	-0.175261	-0.0649724	1	-5.93928e-05	13	1.13871e-05
2	0	0	1	0	0.9535	-0.178424	-0.178305	-0.0649522	1	-5.97827e-05	13	1.15813e-05
2	0	0	1	0	0.9595	-0.181425	-0.181283	-0.065022	1	-6.01729e-05	13	1.17874e-05
2	0	0	1	0	0.9655	-0.184426	-0.184316	-0.0650815	1	-6.05633e-05	13	1.19956e-05
2	0	0	1	0	0.9715	-0.187426	-0.187345	-0.0651232	1	-6.09538e-05	13	1.22005e-05
2	0	0	1	0	0.9775	-0.190427	-0.190278	-0.0651275	1	-6.13445e-05	13	1.23923e-05
2	0	0	1	0	0.9835	-0.193428	-0.193323	-0.0651735	1	-6.17353e-05	13	1.25995e-05
2	0	0	1	0	0.9895	-0.196429	-0.196339	-0.0652248	1	-6.21263e-05	13	1.28062e-05
2	0	0	1	0	0.9955	-0.19943	-0.199336	-0.0652437	1	-6.25177e-05	13	1.30054e-05
2	0	0	1	0	0.9981	-0.19953	-0.199707	-0.0609031	1	-6.2683e-05	13	1.21627e-05
2	0	0	1	0	1.0041	-0.196529	-0.196471	-0.05554	1	-6.30285e-05	13	1.0912e-05
2	0	0	1	0	1.0101	-0.193528	-0.193485	-0.0527388	1	-6.33525e-05	13	1.02042e-05
2	0	0	1	0	1.0161	-0.190527	-0.190409	-0.0504675	1	-6.36616e-05	13	9.60944e-06
2	0	0	1	0	1.0221	-0.187527	-0.187447	-0.0485767	1	-6.39585e-05	13	9.10553e-06
2	0	0	1	0	1.0281	-0.184526	-0.184462	-0.0469153	1	-6.42447e-05	13	8.65409e-06
2	0	0	1	0	1.0341	-0.181525	-0.181424	-0.0453751	1	-6.45214e-05	13	8.23212e-06
2	0	0	1	0	1.0401	-0.178524	-0.178404	-0.0440517	1	-6.47896e-05	13	7.85902e-06
2	0	0	1	0	1.0461	-0.175523	-0.175431	-0.042797	1	-6.505e-05	13	7.5079e-06
2	0	0	1	0	1.0521	-0.172522	-0.172446	-0.0416068	1	-6.5303e-05	13	7.17494e-06
2	0	0	1	0	1.0581	-0.169521	-0.169393	-0.0404879	1	-6.55491e-05	13	6.85836e-06
2	0	0	1	0	1.0641	-0.16652	-0.166399	-0.0394529	1	-6.57889e-05	13	6.56492e-06
2	0	0	1	0	1.0701	-0.163519	-0.163443	-0.0384877	1	-6.60225e-05	13	6.29056e-06
2	0	0	1	0	1.0761	-0.160518	-0.160429	-0.0375494	1	-6.62505e-05	13	6.02402e-06
2	0	0	1	0	1.0821	-0.157517	-0.157399	-0.0365846	1	-6.64729e-05	13	5.75838e-06
2	0	0	1	0	1.0881	-0.154516	-0.154399	-0.0357767	1	-6.66899e-05	13	5.52389e-06
2	0	0	1	0	1.0941	-0.151515	-0.151408	-0.0349646	1	-6.69021e-05	13	5.29392e-06
2	0	0	1	0	1.1001	-0.148514	-0.148406	-0.0341542	1	-6.71094e-05	13	5.06868e-06
2	0	0	1	0	1.1061	-0.145513	-0.145441	-0.0334089	1	-6.73119e-05	13	4.85901e-06
2	0	0	1	0	1.1121	-0.142512	-0.142393	-0.0326657	1	-6.75101e-05	13	4.65134e-06
2	0	0	1	0	1.1181	-0.139511	-0.139393	-0.0319115	1	-6.77038e-05	13	4.44824e-06
2	0	0	1	0	1.1241	-0.13651	-0.136386	-0.0312658	1	-6.78934e-05	13	4.26421e-06
2	0	0	1	0	1.1301	-0.133509	-0.133422	-0.0305703	1	-6.8079e-05	13	4.07877e-06
2	0	0	1	0	1.1361	-0.130508	-0.13043	-0.0299274	1	-6.82605e-05	13	3.90342e-06
2	0	0	1	0	1.1421	-0.127507	-0.127395	-0.0293439	1	-6.84382e-05	13	3.73828e-06
2	0	0	1	0	1.1481	-0.124506	-0.124379	-0.0287039	1	-6.86124e-05	13	3.57017e-06
2	0	0	1	0	1.1541	-0.121505	-0.121403	-0.0281085	1	-6.87828e-05	13	3.41247e-06
2	0	0	1	0	1.1601	-0.118504	-0.118362	-0.0275424	1	-6.89497e-05	13	3.25997e-06
2	0	0	1	0	1.1661	-0.115503	-0.115426	-0.0269381	1	-6.91132e-05	13	3.10936e-06
2	0	0	1	0	1.1721	-0.112502	-0.112407	-0.0264765	1	-6.92733e-05	13	2.97613e-06
2	0	0	1	0	1.1781	-0.109501	-0.109411	-0.0258925	1	-6.94303e-05	13	2.83292e-06
2	0	0	1	0	1.1841	-0.1065	-0.106406	-0.0253747	1	-6.9584e-05	13	2.70003e-06
2	0	0	1	0	1.1901	-0.103499	-0.103378	-0.0248766	1	-6.97345e-05	13	2.5717e-06
2	0	0	1	0	1.1961	-0.100498	-0.100381	-0.0243798	1	-6.98821e-05	13	2.44727e-06
2	0	0	1	0	1.2021	-0.0974973	-0.097417	-0.0238599	1	-7.00267e-05	13	2.32436e-06
2	0	0	1	0	1.2081	-0.0944964	-0.0943912	-0.0233712	1	-7.01683e-05	13	2.20603e-06
2	0	0	1	0	1.2141	-0.0914954	-0.0914132	-0.0228825	1	-7.03071e-05	13	2.09176e-06
2	0	0	1	0	1.2201	-0.0884944	-0.0883864	-0.0224097	1	-7.04429e-05	13	1.98072e-06
2	0	0	1	0	1.2261	-0.0854934	-0.0854074	-0.021995	1	-7.05762e-05	13	1.87854e-06
2	0	0	1	0	1.2321	-0.0824925	-0.0824209	-0.0215405	1	-7.07068e-05	13	1.77539e-06
2	0	0	1	0	1.2381	-0.0794915	-0.0793538	-0.0210838	1	-7.08345e-05	13	1.67308e-06
2	0	0	1	0	1.2441	-0.0764905	-0.0763418	-0.0206739	1	-7.09597e-05	13	1.57828e-06
2	0	0	1	0	1.2501	-0.0734895	-0.0734031	-0.0202518	1	-7.10823e-05	13	1.48654e-06
2	0	0	1	0	1.2561	-0.0704886	-0.0703763	-0.0198398	1	-7.12024e-05	13	1.39625e-06
2	0	0	1	0	1.2621	-0.0674876	-0.0673696	-0.0194024	1	-7.13201e-05	13	1.30713e-06
2	0	0	1	0	1.2681	-0.0644866	-0.0643863	-0.0189705	1	-7.14352e-05	13	1.22144e-06
2	0	0	1	0	1.2741	-0.0614856	-0.0613468	-0.0186421	1	-7.1548e-05	13	1.14363e-06
2	0	0	1	0	1.2801	-0.0584847	-0.0584112	-0.0181987	1	-7.16584e-05	13	1.06301e-06
2	0	0	1	0	1.2861	-0.0554837	-0.0553589	-0.0178298	1	-7.17664e-05	13	9.87039e-07
2	0	0	1	0	1.2921	-0.0524827	-0.0523831	-0.0174605	1	-7.18721e-05	13	9.14634e-07
2	0	0	1	0	1.2981	-0.0494818	-0.0493679	-0.0170658	1	-7.19756e-05	13	8.42501e-07
2	0	0	1	0	1.3041	-0.0464808	-0.0463868	-0.0167086	1	-7.20769e-05	13	7.75057e-07
2	0	0	1	0	1.3101	-0.0434798	-0.0433971	-0.0163363	1	-7.2176e-05	13	7.08947e-07
2	0	0	1	0	1.3161	-0.0404788	-0.0404223	-0.015939	1	-7.22728e-05	13	6.44291e-07
2	0	0	1	0	1.3221	-0.0374779	-0.0373711	-0.0156004	1	-7.23674e-05	13	5.83005e-07
2	0	0	1	0	1.3281	-0.0344769	-0.0344037	-0.0152864	1	-7.24601e-05	13	5.25907e-07
2	0	0	1	0	1.3341	-0.0314759	-0.0313588	-0.014903	1	-7.25506e-05	13	4.67342e-07
2	0	0	1	0	1.3401	-0.0284749	-0.0283564	-0.0145681	1	-7.26389e-05	13	4.131e-07
2	0	0	1	0	1.3461	-0.025474	-0.0253498	-0.0142251	1	-7.27252e-05	13	3.60604e-07
2	0	0	1	0	1.3521	-0.022473	-0.0223835	-0.0139197	1	-7.28095e-05	13	3.1157e-07
2	0	0	1	0	1.3581	-0.019472	-0.019362	-0.0135641	1	-7.28918e-05	13	2.62628e-07
2	0	0	1	0	1.3641	-0.0164711	-0.0163394	-0.0131795	1	-7.29721e-05	13	2.15345e-07
2	0	0	1	0	1.3701	-0.0134701	-0.0133667	-0.0128784	1	-7.30503e-05	13	1.72142e-07
2	0	0	1	0	1.3762	-0.0104991	-0.0103936	-0.0128805	1	-7.31282e-05	13	1.33875e-07
2	0	0	1	0	1.3823	-0.00746814	-0.00740646	-0.0122931	1	-7.32045e-05	13	9.10483e-08
2	0	0	1	0	1.3883	-0.00446716	-0.00433298	-0.0119404	1	-7.32771e-05	13	5.17377e-08
2	0	0	1	0	1.3943	-0.00146619	-0.00127966	-0.0116208	1	-7.33472e-05	13	1.48706e-08
2	0	0	1	0	1.4003	0.00153478	0.00175139	-0.0112738	1	-7.34157e-05	13	-1.97448e-08
2	0	0	1	0	1.4063	0.00453575	0.00472514	-0.0109613	1	-7.34825e-05	13	-5.17939e-08
2	0	0	1	0	1.4123	0.00753673	0.00768617	-0.0106325	1	-7.35474e-05	13	-8.17232e-08
2	0	0	1	0	1.4183	0.0105377	0.0107013	-0.0103023	1	-7.36103e-05	13	-1.10248e-07
2	0	0	1	0	1.4243	0.0135387	0.013691	-0.0100246	1	-7.36714e-05	13	-1.37247e-07
2	0	0	1	0	1.4303	0.0165396	0.0167209	-0.00971628	1	-7.37307e-05	13	-1.62465e-07
2	0	0	1	0	1.4363	0.0195406	0.0196989	-0.00941083	1	-7.37881e-05	13	-1.85383e-07
2	0	0	1	0	1.4423	0.0225416	0.0227555	-0.00910996	1	-7.38437e-05	13	-2.07301e-07
2	0	0	1	0	1.4483	0.0255426	0.025691	-0.00880895	1	-7.38974e-05	13	-2.26311e-07
2	0	0	1	0	1.4543	0.0285435	0.0286839	-0.00855937	1	-7.39493e-05	13	-2.45516e-07
2	0	0	1	0	1.4603	0.0315445	0.0317478	-0.00819479	1	-7.39995e-05	13	-2.60167e-07
2	0	0	1	0	1.4663	0.0345455	0.03473	-0.00786501	1	-7.40477e-05	13	-2.73152e-07
2	0	0	1	0	1.4723	0.0375464	0.0377378	-0.00760594	1	-7.4094e-05	13	-2.87031e-07
2	0	0	1	0	1.4783	0.0405474	0.0407253	-0.00730366	1	-7.41386e-05	13	-2.97444e-07
2	0	0	1	0	1.4843	0.0435484	0.0437107	-0.00698126	1	-7.41813e-05	13	-3.05156e-07
2	0	0	1	0	1.4903	0.0465494	0.0467301	-0.00669349	1	-7.42221e-05	13	-3.12788e-07
2	0	0	1	0	1.4963	0.0495503	0.0497399	-0.00633974	1	-7.4261e-05	13	-3.15338e-07
2	0	0	1	0	1.5023	0.0525513	0.0527307	-0.00598564	1	-7.4298e-05	13	-3.15627e-07
2	0	0	1	0	1.5083	0.0555523	0.0557437	-0.0056905	1	-7.43332e-05	13	-3.17209e-07
2	0	0	1	0	1.5143	0.0585532	0.0587227	-0.00535313	1	-7.43664e-05	13	-3.1435e-07
2	0	0	1	0	1.5203	0.0615542	0.06174	-0.00504093	1	-7.43975e-05	13	-3.11227e-07
2	0	0	1	0	1.5263	0.0645552	0.0647445	-0.00474419	1	-7.44268e-05	13	-3.0716e-07
2	0	0	1	0	1.5323	0.0675562	0.067748	-0.0043825	1	-7.44541e-05	13	-2.96906e-07
2	0	0	1	0	1.5383	0.0705571	0.0707673	-0.00405382	1	-7.44792e-05	13	-2.86878e-07
2	0	0	1	0	1.5443	0.0735581	0.0737379	-0.00368027	1	-7.45023e-05	13	-2.71375e-07
2	0	0	1	0	1.5503	0.0765591	0.0767371	-0.0033112	1	-7.45232e-05	13	-2.54092e-07
2	0	0	1	0	1.5563	0.07956	0.0797501	-0.00299385	1	-7.45419e-05	13	-2.3876e-07
2	0	0	1	0	1.5623	0.082561	0.0827377	-0.00256911	1	-7.45585e-05	13	-2.12562e-07
2	0	0	1	0	1.5683	0.085562	0.0857698	-0.00215235	1	-7.45726e-05	13	-1.84607e-07
2	0	0	1	0	1.5743	0.088563	0.0887435	-0.00179306	1	-7.45844e-05	13	-1.59123e-07
2	0	0	1	0	1.5803	0.0915639	0.0917841	-0.00137574	1	-7.45937e-05	13	-1.26271e-07
2	0	0	1	0	1.5863	0.0945649	0.0947717	-0.000912631	1	-7.46006e-05	13	-8.64916e-08
2	0	0	1	0	1.5923	0.0975659	0.0977773	-0.000488	1	-7.46049e-05	13	-4.77153e-08
2	0	0	1	0	1.5983	0.100567	0.100729	-1.13363e-05	1	-7.46064e-05	13	-1.14189e-09
2	1	0	1	0	1.6043	0.103568	0.10375	0.000468928	1	-7.4605e-05	13	4.86514e-08
2	1	0	1	0	1.6103	0.106569	0.106742	0.000949722	1	-7.46009e-05	13	1.01375e-07
2	1	0	1	0	1.6163	0.10957	0.109787	0.00149067	1	-7.45936e-05	13	1.63656e-07
2	1	0	1	0	1.6223	0.112571	0.112761	0.00201449	1	-7.45829e-05	13	2.27156e-07
2	1	0	1	0	1.6283	0.115572	0.115743	0.00256818	1	-7.4569e-05	13	2.97249e-07
2	1	0	1	0	1.6343	0.118573	0.118742	0.00320543	1	-7.45515e-05	13	3.80619e-07
2	1	0	1	0	1.6403	0.121574	0.121736	0.00381659	1	-7.45304e-05	13	4.64616e-07
2	1	0	1	0	1.6463	0.124575	0.124745	0.0045513	1	-7.45053e-05	13	5.67751e-07
2	1	0	1	0	1.6523	0.127576	0.127761	0.00525678	1	-7.44759e-05	13	6.71611e-07
2	1	0	1	0	1.6583	0.130577	0.130758	0.00591115	1	-7.44422e-05	13	7.7293e-07
2	1	0	1	0	1.6643	0.133578	0.133746	0.00675872	1	-7.44041e-05	13	9.03948e-07
2	1	0	1	0	1.6703	0.136578	0.136771	0.00759827	1	-7.43609e-05	13	1.03923e-06
2	1	0	1	0	1.6763	0.139579	0.139757	0.00844669	1	-7.43126e-05	13	1.18048e-06
2	1	0	1	0	1.6823	0.14258	0.142768	0.00942077	1	-7.42589e-05	13	1.34498e-06
2	1	0	1	0	1.6883	0.145581	0.145785	0.0103791	1	-7.41995e-05	13	1.51312e-06
2	1	0	1	0	1.6943	0.148582	0.148795	0.0114239	1	-7.4134e-05	13	1.69982e-06
2	1	0	1	0	1.7003	0.151583	0.151754	0.0125786	1	-7.4062e-05	13	1.90885e-06
2	1	0	1	0	1.7063	0.154584	0.154751	0.0137232	1	-7.39831e-05	13	2.12368e-06
2	1	0	1	0	1.7123	0.157585	0.157742	0.0149272	1	-7.38973e-05	13	2.35466e-06
2	1	0	1	0	1.7183	0.160586	0.160765	0.0162303	1	-7.38037e-05	13	2.60926e-06
2	1	0	1	0	1.7243	0.163587	0.163729	0.0175668	1	-7.37021e-05	13	2.87619e-06
2	1	0	1	0	1.7303	0.166588	0.166767	0.0190467	1	-7.35922e-05	13	3.17636e-06
2	1	0	1	0	1.7363	0.169589	0.169721	0.0205071	1	-7.34734e-05	13	3.48049e-06
2	1	0	1	0	1.7423	0.17259	0.1728	0.022094	1	-7.33455e-05	13	3.81784e-06
2	1	0	1	0	1.7483	0.175591	0.17574	0.0237773	1	-7.32078e-05	13	4.17862e-06
2	1	0	1	0	1.7543	0.178592	0.178773	0.0254903	1	-7.30598e-05	13	4.55697e-06
2	1	0	1	0	1.7603	0.181593	0.181751	0.0272021	1	-7.29015e-05	13	4.94402e-06
2	1	0	1	0	1.7663	0.184594	0.184756	0.0290863	1	-7.27324e-05	13	5.37385e-06
2	1	0	1	0	1.7723	0.187595	0.187752	0.0309847	1	-7.25519e-05	13	5.81743e-06
2	1	0	1	0	1.7783	0.190596	0.190778	0.033007	1	-7.23597e-05	13	6.29703e-06
2	1	0	1	0	1.7843	0.193597	0.193768	0.0350272	1	-7.21554e-05	13	6.78715e-06
2	1	0	1	0	1.7903	0.196598	0.196748	0.0370465	1	-7.19391e-05	13	7.28883e-06
2	1	0	1	0	1.7963	0.199599	0.199744	0.0391526	1	-7.17105e-05	13	7.8205e-06
2	1	0	1	0	1.8023	0.2026	0.202715	0.0412977	1	-7.14689e-05	13	8.37166e-06
2	1	0	1	0	1.8083	0.205601	0.205766	0.0433933	1	-7.12147e-05	13	8.92886e-06
2	1	0	1	0	1.8143	0.208602	0.208707	0.0455273	1	-7.09478e-05	13	9.50185e-06
2	1	0	1	0	1.8203	0.211603	0.211741	0.0476379	1	-7.0668e-05	13	1.00869e-05
2	1	0	1	0	1.8263	0.214604	0.214758	0.0497568	1	-7.03754e-05	13	1.06857e-05
2	1	0	1	0	1.8323	0.217605	0.21781	0.0518602	1	-7.00703e-05	13	1.12956e-05
2	1	0	1	0	1.8383	0.220606	0.220767	0.0538274	1	-6.97527e-05	13	1.18833e-05
2	1	0	1	0	1.8443	0.223607	0.223746	0.055851	1	-6.94234e-05	13	1.24965e-05
2	1	0	1	0	1.8503	0.226608	0.226801	0.0577993	1	-6.90823e-05	13	1.31089e-05
2	1	0	1	0	1.8563	0.229609	0.229773	0.0595943	1	-6.87298e-05	13	1.36931e-05
2	1	0	1	0	1.8623	0.23261	0.232773	0.0613012	1	-6.83668e-05	13	1.42693e-05
2	1	0	1	0	1.8683	0.235611	0.235814	0.0629345	1	-6.79939e-05	13	1.48409e-05
2	1	0	1	0	1.8743	0.238612	0.238772	0.0644389	1	-6.76115e-05	13	1.53862e-05
2	1	0	1	0	1.8803	0.241612	0.241813	0.0658626	1	-6.72204e-05	13	1.59264e-05
2	1	0	1	0	1.8863	0.244613	0.244797	0.0671525	1	-6.68211e-05	13	1.64388e-05
2	1	0	1	0	1.8923	0.247614	0.2478	0.0682271	1	-6.6415e-05	13	1.69067e-05
2	1	0	1	0	1.8983	0.250615	0.250756	0.0692525	1	-6.60026e-05	13	1.73655e-05
2	1	0	1	0	1.9043	0.253616	0.253811	0.0701006	1	-6.55843e-05	13	1.77923e-05
2	1	0	1	0	1.9103	0.256617	0.25682	0.070813	1	-6.51614e-05	13	1.81862e-05
2	1	0	1	0	1.9163	0.259618	0.259801	0.0713786	1	-6.47346e-05	13	1.85442e-05
2	1	0	1	0	1.9223	0.262619	0.262764	0.0718473	1	-6.43048e-05	13	1.88789e-05
2	1	0	1	0	1.9283	0.26562	0.265816	0.0722119	1	-6.38725e-05	13	1.91951e-05
2	1	0	1	0	1.9343	0.268621	0.268837	0.0724413	1	-6.34385e-05	13	1.94749e-05
2	1	0	1	0	1.9403	0.271622	0.271816	0.07247	1	-6.30036e-05	13	1.96985e-05
2	1	0	1	0	1.9463	0.274623	0.27479	0.0724917	1	-6.25686e-05	13	1.992e-05
2	1	0	1	0	1.9523	0.277624	0.277853	0.0724558	1	-6.21337e-05	13	2.01321e-05
2	1	0	1	0	1.9583	0.280625	0.280786	0.0722284	1	-6.16996e-05	13	2.02807e-05
2	1	0	1	0	1.9643	0.283626	0.283811	0.0719799	1	-6.12669e-05	13	2.04287e-05
2	1	0	1	0	1.9703	0.286627	0.286836	0.0716504	1	-6.0836e-05	13	2.05519e-05
2	1	0	1	0	1.9763	0.289628	0.289835	0.0712557	1	-6.04073e-05	13	2.06524e-05
2	1	0	1	0	1.9823	0.292629	0.29285	0.0708589	1	-5.9981e-05	13	2.07511e-05
2	1	0	1	0	1.9883	0.29563	0.295827	0.0703597	1	-5.95574e-05	13	2.08143e-05
2	1	0	1	0	1.9945	0.298631	0.298828	0.0695872	1	-5.91236e-05	13	2.07946e-05
2	1	0	1	0	2.0005	0.301632	0.301824	0.0692044	1	-5.87071e-05	13	2.08875e-05
2	1	0	1	0	2.0065	0.304633	0.304864	0.0686274	1	-5.82938e-05	13	2.09221e-05
2	1	0	1	0	2.0125	0.307634	0.307824	0.0680652	1	-5.78838e-05	13	2.09521e-05
2	1	0	1	0	2.0185	0.310635	0.310801	0.06745	1	-5.74772e-05	13	2.09636e-05
2	1	0	1	0	2.0245	0.313636	0.313825	0.0668613	1	-5.70743e-05	13	2.09827e-05
2	1	0	1	0	2.0305	0.316637	0.316807	0.0663162	1	-5.66748e-05	13	2.10094e-05
2	1	0	1	0	2.0365	0.319638	0.319877	0.0657186	1	-5.62788e-05	13	2.10219e-05
2	1	0	1	0	2.0425	0.322639	0.322811	0.06507	1	-5.58866e-05	13	2.10053e-05
2	1	0	1	0	2.0485	0.32564	0.325825	0.0645052	1	-5.54979e-05	13	2.10174e-05
2	1	0	1	0	2.0545	0.328641	0.328826	0.0639277	1	-5.51126e-05	13	2.10211e-05
2	1	0	1	0	2.0605	0.331642	0.331876	0.0633207	1	-5.47307e-05	13	2.10146e-05
2	1	0	1	0	2.0665	0.334643	0.334868	0.0627946	1	-5.43523e-05	13	2.10279e-05
2	1	0	1	0	2.0725	0.337644	0.337843	0.062248	1	-5.39772e-05	13	2.103e-05
2	1	0	1	0	2.0785	0.340645	0.340854	0.0617178	1	-5.36054e-05	13	2.10368e-05
2	1	0	1	0	2.0845	0.343646	0.343871	0.0612392	1	-5.32366e-05	13	2.10584e-05
2	1	0	1	0	2.0905	0.346647	0.346897	0.060712	1	-5.28708e-05	13	2.10608e-05
2	1	0	1	0	2.0965	0.349647	0.349846	0.0602197	1	-5.25083e-05	13	2.10676e-05
2	1	0	1	0	2.1025	0.352648	0.352843	0.0597314	1	-5.21485e-05	13	2.10758e-05
2	1	0	1	0	2.1085	0.355649	0.355815	0.05923	1	-5.17915e-05	13	2.10749e-05
2	1	0	1	0	2.1145	0.35865	0.358846	0.0588137	1	-5.14374e-05	13	2.11051e-05
2	1	0	1	0	2.1205	0.361651	0.361836	0.0583471	1	-5.10859e-05	13	2.11121e-05
2	1	0	1	0	2.1265	0.364652	0.364832	0.0579266	1	-5.0737e-05	13	2.11335e-05
2	1	0	1	0	2.1325	0.367653	0.367869	0.0575648	1	-5.03906e-05	13	2.11763e-05
2	1	0	1	0	2.1385	0.370654	0.370868	0.0571506	1	-5.00465e-05	13	2.11953e-05
2	1	0	1	0	2.1445	0.373655	0.373888	0.0567132	1	-4.97049e-05	13	2.12044e-05
2	1	0	1	0	2.1505	0.376656	0.376834	0.0563713	1	-4.93656e-05	13	2.12426e-05
2	1	0	1	0	2.1565	0.379657	0.379843	0.0559992	1	-4.90285e-05	13	2.12709e-05
2	1	0	1	0	2.1625	0.382658	0.382856	0.0556532	1	-4.86935e-05	13	2.13071e-05
2	1	0	1	0	2.1685	0.385659	0.385838	0.0553242	1	-4.83606e-05	13	2.13462e-05
2	1	0	1	0	2.1745	0.38866	0.38888	0.0549911	1	-4.80298e-05	13	2.13849e-05
2	1	0	1	0	2.1805	0.391661	0.391894	0.0546679	1	-4.77011e-05	13	2.1424e-05
2	1	0	1	0	2.1865	0.394662	0.394874	0.0543758	1	-4.7374e-05	13	2.14716e-05
2	1	0	1	0	2.1925	0.397663	0.397855	0.0540475	1	-4.70489e-05	13	2.15031e-05
2	1	0	1	0	2.1985	0.400664	0.400819	0.0537338	1	-4.67257e-05	13	2.15375e-05
2	1	0	1	0	2.2045	0.403665	0.40385	0.0534237	1	-4.64042e-05	13	2.15752e-05
2	1	0	1	0	2.2105	0.406666	0.406896	0.0531574	1	-4.60844e-05	13	2.16295e-05
2	1	0	1	0	2.2165	0.409667	0.409867	0.0528957	1	-4.57663e-05	13	2.16802e-05
2	1	0	1	0	2.2225	0.412668	0.412894	0.0525817	1	-4.54497e-05	13	2.17107e-05
2	1	0	1	0	2.2285	0.415669	0.415845	0.0523566	1	-4.51349e-05	13	2.17722e-05
2	1	0	1	0	2.2345	0.41867	0.418854	0.0521452	1	-4.48214e-05	13	2.18412e-05
2	1	0	1	0	2.2405	0.421671	0.421909	0.0518626	1	-4.45094e-05	13	2.18813e-05
2	1	0	1	0	2.2465	0.424672	0.424864	0.05162	1	-4.4199e-05	13	2.19315e-05
2	1	0	1	0	2.2525	0.427673	0.42795	0.0514024	1	-4.38899e-05	13	2.19976e-05
2	1	0	1	0	2.2585	0.430674	0.430872	0.0511699	1	-4.35823e-05	13	2.20476e-05
2	1	0	1	0	2.2645	0.433675	0.4339	0.0509868	1	-4.32759e-05	13	2.21232e-05
2	1	0	1	0	2.2705	0.436676	0.436916	0.0507461	1	-4.29707e-05	13	2.21718e-05
2	1	0	1	0	2.2765	0.439677	0.43992	0.0505188	1	-4.26669e-05	13	2.22243e-05
2	1	0	1	0	2.2825	0.442678	0.442864	0.0503457	1	-4.23644e-05	13	2.22963e-05
2	1	0	1	0	2.2885	0.445679	0.445909	0.0501613	1	-4.20629e-05	13	2.23674e-05
2	1	0	1	0	2.2945	0.44868	0.448935	0.0499521	1	-4.17627e-05	13	2.24252e-05
2	1	0	1	0	2.3005	0.45168	0.451896	0.0497562	1	-4.14636e-05	13	2.24846e-05
2	1	0	1	0	2.3065	0.454681	0.454903	0.0495701	1	-4.11655e-05	13	2.25496e-05
2	1	0	1	0	2.3125	0.457682	0.457894	0.0494143	1	-4.08686e-05	13	2.26265e-05
2	1	0	1	0	2.3185	0.460683	0.460902	0.049258	1	-4.05726e-05	13	2.27031e-05
2	1	0	1	0	2.3245	0.463684	0.46387	0.0490296	1	-4.02776e-05	13	2.27433e-05
2	1	0	1	0	2.3305	0.466685	0.466879	0.0489367	1	-3.99838e-05	13	2.28476e-05
2	1	0	1	0	2.3365	0.469686	0.469867	0.048784	1	-3.96907e-05	13	2.2922e-05
2	1	0	1	0	2.3425	0.472687	0.472872	0.0486039	1	-3.93985e-05	13	2.29835e-05
2	1	0	1	0	2.3485	0.475688	0.475917	0.0484644	1	-3.91073e-05	13	2.3065e-05
2	1	0	1	0	2.3545	0.478689	0.478895	0.0483149	1	-3.8817e-05	13	2.31378e-05
2	1	0	1	0	2.3605	0.48169	0.481897	0.0481512	1	-3.85275e-05	13	2.32039e-05
2	1	0	1	0	2.3665	0.484691	0.484919	0.0480797	1	-3.82388e-05	13	2.33148e-05
2	1	0	1	0	2.3725	0.487692	0.487919	0.0479604	1	-3.79508e-05	13	2.34008e-05
2	1	0	1	0	2.3785	0.490693	0.490889	0.047812	1	-3.76637e-05	13	2.34704e-05
2	1	0	1	0	2.3845	0.493694	0.493926	0.0476848	1	-3.73772e-05	13	2.35528e-05
2	1	0	1	0	2.3905	0.496695	0.496931	0.0475442	1	-3.70914e-05	13	2.36262e-05
2	1	0	1	0	2.3962	0.499546	0.499744	0.0474596	1	-3.68206e-05	13	2.37177e-05
2	1	0	1	1	2.3987	0.499396	0.499827	0.0429708	1	-3.67066e-05	13	2.1478e-05
2	1	0	1	1	2.4047	0.496395	0.496667	0.0393825	1	-3.64609e-05	13	1.956e-05
2	1	0	1	1	2.4107	0.493394	0.493617	0.0371347	1	-3.62317e-05	13	1.83303e-05
2	1	0	1	1	2.4167	0.490393	0.490644	0.0353965	1	-3.60144e-05	13	1.73671e-05
2	1	0	1	1	2.4227	0.487392	0.487648	0.0339229	1	-3.58066e-05	13	1.65424e-05
2	1	0	1	1	2.4287	0.484391	0.484649	0.032565	1	-3.56075e-05	13	1.57826e-05
2	1	0	1	1	2.4347	0.48139	0.481609	0.0313416	1	-3.54161e-05	13	1.50944e-05
2	1	0	1	1	2.4407	0.478389	0.478593	0.0301989	1	-3.52316e-05	13	1.4453e-05
2	1	0	1	1	2.4467	0.475388	0.47565	0.0292102	1	-3.50536e-05	13	1.38939e-05
2	1	0	1	1	2.4527	0.472387	0.472641	0.0282135	1	-3.48815e-05	13	1.33349e-05
2	1	0	1	1	2.4587	0.469386	0.469682	0.027256	1	-3.47153e-05	13	1.28017e-05
2	1	0	1	1	2.4647	0.466385	0.466604	0.0264077	1	-3.45545e-05	13	1.23219e-05
2	1	0	1	1	2.4707	0.463384	0.463585	0.0255697	1	-3.43987e-05	13	1.18537e-05
2	1	0	1	1	2.4767	0.460383	0.460606	0.0247726	1	-3.42477e-05	13	1.14104e-05
2	1	0	1	1	2.4827	0.457382	0.457603	0.0240029	1	-3.41015e-05	13	1.09838e-05
2	1	0	1	1	2.4887	0.454381	0.454606	0.0232743	1	-3.39598e-05	13	1.05806e-05
2	1	0	1	1	2.4947	0.45138	0.451581	0.0225574	1	-3.38225e-05	13	1.01865e-05
2	1	0	1	1	2.5007	0.448379	0.448572	0.0218805	1	-3.36892e-05	13	9.815e-06
2	1	0	1	1	2.5067	0.445378	0.445616	0.0211908	1	-3.35599e-05	13	9.44297e-06
2	1	0	1	1	2.5127	0.442377	0.442592	0.0205842	1	-3.34348e-05	13	9.11039e-06
2	1	0	1	1	2.5187	0.439377	0.439631	0.0199637	1	-3.33133e-05	13	8.77666e-06
2	1	0	1	1	2.5247	0.436376	0.436599	0.0193231	1	-3.31954e-05	13	8.43644e-06
2	1	0	1	1	2.5307	0.433375	0.433609	0.0187618	1	-3.30812e-05	13	8.1353e-06
2	1	0	1	1	2.5367	0.430374	0.43056	0.0181593	1	-3.29705e-05	13	7.81868e-06
2	1	0	1	1	2.5427	0.427373	0.427574	0.0175857	1	-3.28633e-05	13	7.51921e-06
2	1	0	1	1	2.5487	0.424372	0.424588	0.0170979	1	-3.27593e-05	13	7.25956e-06
2	1	0	1	1	2.5547	0.421371	0.421588	0.0165144	1	-3.26586e-05	13	6.96226e-06
2	1	0	1	1	2.5607	0.41837	0.418617	0.0159645	1	-3.25612e-05	13	6.68302e-06
2	1	0	1	1	2.5667	0.415369	0.415568	0.0154788	1	-3.24669e-05	13	6.43251e-06
2	1	0	1	1	2.5727	0.412368	0.412634	0.0149842	1	-3.23756e-05	13	6.18299e-06
2	1	0	1	1	2.5787	0.409367	0.409587	0.0144901	1	-3.22874e-05	13	5.93494e-06
2	1	0	1	1	2.5847	0.406366	0.406579	0.0139631	1	-3.22021e-05	13	5.67712e-06
2	1	0	1	1	2.5907	0.403365	0.403602	0.0134459	1	-3.21199e-05	13	5.4268e-06
2	1	0	1	1	2.5967	0.400364	0.400576	0.0129649	1	-3.20406e-05	13	5.19344e-06
2	1	0	1	1	2.6027	0.397363	0.397634	0.0125125	1	-3.1964e-05	13	4.97539e-06
2	1	0	1	1	2.6087	0.394362	0.39458	0.0120152	1	-3.18903e-05	13	4.74094e-06
2	1	0	1	1	2.6147	0.391361	0.391593	0.0115878	1	-3.18196e-05	13	4.53771e-06
2	1	0	1	1	2.6207	0.38836	0.388577	0.0111288	1	-3.17515e-05	13	4.32441e-06
2	1	0	1	1	2.6267	0.385359	0.385569	0.0106446	1	-3.16863e-05	13	4.10423e-06
2	1	0	1	1	2.6327	0.382358	0.382575	0.0102142	1	-3.16238e-05	13	3.90769e-06
2	1	0	1	1	2.6387	0.379357	0.379572	0.00971736	1	-3.1564e-05	13	3.68844e-06
2	1	0	1	1	2.6447	0.376356	0.376526	0.00927311	1	-3.15071e-05	13	3.49157e-06
2	1	0	1	1	2.6507	0.373355	0.373594	0.00886944	1	-3.14528e-05	13	3.31357e-06
2	1	0	1	1	2.6567	0.370354	0.370566	0.00836426	1	-3.14013e-05	13	3.09951e-06
2	1	0	1	1	2.6627	0.367353	0.367534	0.00792113	1	-3.13526e-05	13	2.91128e-06
2	1	0	1	1	2.6687	0.364352	0.364595	0.00746674	1	-3.13066e-05	13	2.72234e-06
2	1	0	1	1	2.6747	0.361351	0.361531	0.00696872	1	-3.12634e-05	13	2.51941e-06
2	1	0	1	1	2.6807	0.35835	0.358551	0.00654204	1	-3.12229e-05	13	2.34566e-06
2	1	0	1	1	2.6867	0.355349	0.35558	0.00604819	1	-3.11852e-05	13	2.15062e-06
2	1	0	1	1	2.6927	0.352348	0.352535	0.0055262	1	-3.11504e-05	13	1.94818e-06
2	1	0	1	1	2.6987	0.349347	0.349513	0.00506263	1	-3.11185e-05	13	1.76946e-06
2	1	0	1	1	2.7047	0.346346	0.346598	0.00458833	1	-3.10894e-05	13	1.5903e-06
2	1	0	1	1	2.7107	0.343345	0.343587	0.00409825	1	-3.10634e-05	13	1.40811e-06
2	1	0	1	1	2.7167	0.340344	0.340565	0.00360874	1	-3.10404e-05	13	1.22901e-06
2	1	0	1	1	2.7227	0.337343	0.337534	0.00306921	1	-3.10204e-05	13	1.03596e-06
2	1	0	1	1	2.7287	0.334343	0.334529	0.0025685	1	-3.10036e-05	13	8.59237e-07
2	1	0	1	1	2.7347	0.331342	0.331553	0.00202314	1	-3.09899e-05	13	6.70779e-07
2	1	0	1	1	2.7407	0.328341	0.328508	0.00142653	1	-3.09796e-05	13	4.68626e-07
2	1	0	1	1	2.7467	0.32534	0.325576	0.00088304	1	-3.09728e-05	13	2.87496e-07
2	1	0	1	1	2.7527	0.322339	0.32254	0.000308134	1	-3.09693e-05	13	9.93857e-08
2	0	0	1	1	2.7587	0.319338	0.319555	-0.000339949	1	-3.09694e-05	13	-1.08633e-07
2	0	0	1	1	2.7647	0.316337	0.31655	-0.000936035	1	-3.09733e-05	13	-2.96302e-07
2	0	0	1	1	2.7707	0.313336	0.313522	-0.00160632	1	-3.09809e-05	13	-5.03618e-07
2	0	0	1	1	2.7767	0.310335	0.310574	-0.00229363	1	-3.09927e-05	13	-7.12341e-07
2	0	0	1	1	2.7827	0.307334	0.307583	-0.0029876	1	-3.10085e-05	13	-9.18936e-07
2	0	0	1	1	2.7887	0.304333	0.304586	-0.00375694	1	-3.10286e-05	13	-1.14431e-06
2	0	0	1	1	2.7947	0.301332	0.301516	-0.00451184	1	-3.10534e-05	13	-1.36039e-06
2	0	0	1	1	2.8007	0.298331	0.298531	-0.00528652	1	-3.10828e-05	13	-1.57819e-06
2	0	0	1	1	2.8069	0.29533	0.29558	-0.006083	1	-3.11174e-05	13	-1.79802e-06
2	0	0	1	1	2.8129	0.292329	0.292574	-0.0069622	1	-3.11568e-05	13	-2.03696e-06
2	0	0	1	1	2.8189	0.289328	0.289534	-0.007915	1	-3.12016e-05	13	-2.29166e-06
2	0	0	1	1	2.8249	0.286327	0.286566	-0.00892805	1	-3.12523e-05	13	-2.55847e-06
2	0	0	1	1	2.8309	0.283326	0.283598	-0.00992526	1	-3.13091e-05	13	-2.81479e-06
2	0	0	1	1	2.8369	0.280325	0.280557	-0.0110649	1	-3.13722e-05	13	-3.10434e-06
2	0	0	1	1	2.8429	0.277324	0.277587	-0.0122641	1	-3.14422e-05	13	-3.40437e-06
2	0	0	1	1	2.8489	0.274323	0.274536	-0.0134406	1	-3.15194e-05	13	-3.68994e-06
2	0	0	1	1	2.8549	0.271322	0.271541	-0.0147049	1	-3.16039e-05	13	-3.99299e-06
2	0	0	1	1	2.8609	0.268321	0.268524	-0.0160552	1	-3.16964e-05	13	-4.31121e-06
2	0	0	1	1	2.8669	0.26532	0.265565	-0.0174886	1	-3.17972e-05	13	-4.64435e-06
2	0	0	1	1	2.8729	0.262319	0.262521	-0.0190017	1	-3.19068e-05	13	-4.98835e-06
2	0	0	1	1	2.8789	0.259318	0.259491	-0.0206073	1	-3.20258e-05	13	-5.34741e-06
2	0	0	1	1	2.8849	0.256317	0.256569	-0.0222019	1	-3.21541e-05	13	-5.69633e-06
2	0	0	1	1	2.8909	0.253316	0.253559	-0.023965	1	-3.22928e-05	13	-6.07656e-06
2	0	0	1	1	2.8969	0.250315	0.250588	-0.0257585	1	-3.24421e-05	13	-6.45476e-06
2	0	0	1	1	2.9029	0.247314	0.247563	-0.027631	1	-3.26023e-05	13	-6.84042e-06
2	0	0	1	1	2.9089	0.244313	0.244557	-0.029541	1	-3.27741e-05	13	-7.22446e-06
2	0	0	1	1	2.9149	0.241312	0.241552	-0.0315892	1	-3.29578e-05	13	-7.63043e-06
2	0	0	1	1	2.9209	0.238311	0.238523	-0.0336942	1	-3.31537e-05	13	-8.03683e-06
2	0	0	1	1	2.9269	0.23531	0.235549	-0.0358561	1	-3.33625e-05	13	-8.44587e-06
2	0	0	1	1	2.9329	0.232309	0.232551	-0.0379691	1	-3.35842e-05	13	-8.82975e-06
2	0	0	1	1	2.9389	0.229309	0.229575	-0.0402465	1	-3.38189e-05	13	-9.23959e-06
2	0	0	1	1	2.9449	0.226308	0.226506	-0.0425426	1	-3.40674e-05	13	-9.63616e-06
2	0	0	1	1	2.9509	0.223307	0.223502	-0.0447874	1	-3.43296e-05	13	-1.00101e-05
2	0	0	1	1	2.9569	0.220306	0.220545	-0.0471081	1	-3.46055e-05	13	-1.03894e-05
2	0	0	1	1	2.9629	0.217305	0.217554	-0.0493738	1	-3.48952e-05	13	-1.07415e-05
2	0	0	1	1	2.9689	0.214304	0.214514	-0.0516889	1	-3.51986e-05	13	-1.1088e-05
2	0	0	1	1	2.9749	0.211303	0.211508	-0.0539913	1	-3.55158e-05	13	-1.14196e-05
2	0	0	1	1	2.9809	0.208302	0.208542	-0.0561908	1	-3.58466e-05	13	-1.17182e-05
2	0	0	1	1	2.9869	0.205301	0.205537	-0.0583418	1	-3.61904e-05	13	-1.19914e-05
2	0	0	1	1	2.9929	0.2023	0.202501	-0.060488	1	-3.65471e-05	13	-1.22489e-05
2	0	0	1	1	2.9989	0.199299	0.199537	-0.0624901	1	-3.69163e-05	13	-1.24691e-05
2	0	0	1	1	3.0049	0.196298	0.196529	-0.0644173	1	-3.72973e-05	13	-1.26599e-05
2	0	0	1	1	3.0109	0.193297	0.193494	-0.0662364	1	-3.76896e-05	13	-1.28164e-05
2	0	0	1	1	3.0169	0.190296	0.190551	-0.0679741	1	-3.80925e-05	13	-1.29526e-05
2	0	0	1	1	3.0229	0.187295	0.187524	-0.0696266	1	-3.85054e-05	13	-1.30566e-05
2	0	0	1	1	3.0289	0.184294	0.18453	-0.07109	1	-3.89277e-05	13	-1.31182e-05
2	0	0	1	1	3.0349	0.181293	0.181533	-0.0723591	1	-3.93583e-05	13	-1.31355e-05
2	0	0	1	1	3.0409	0.178292	0.178515	-0.0735975	1	-3.97965e-05	13	-1.31383e-05
2	0	0	1	1	3.0469	0.175291	0.17552	-0.0746785	1	-4.02415e-05	13	-1.31076e-05
2	0	0	1	1	3.0529	0.17229	0.172508	-0.075609	1	-4.06926e-05	13	-1.30432e-05
2	0	0	1	1	3.0589	0.169289	0.169504	-0.0764124	1	-4.11489e-05	13	-1.29522e-05
2	0	0	1	1	3.0649	0.166288	0.166496	-0.077075	1	-4.16094e-05	13	-1.28327e-05
2	0	0	1	1	3.0709	0.163287	0.163514	-0.077598	1	-4.20735e-05	13	-1.26884e-05
2	0	0	1	1	3.0769	0.160286	0.160489	-0.0780576	1	-4.25404e-05	13	-1.25274e-05
2	0	0	1	1	3.0829	0.157285	0.157475	-0.0782802	1	-4.30093e-05	13	-1.23272e-05
2	0	0	1	1	3.0889	0.154284	0.154511	-0.0784203	1	-4.34794e-05	13	-1.21168e-05
2	0	0	1	1	3.0949	0.151283	0.151514	-0.0784925	1	-4.39503e-05	13	-1.18927e-05
2	0	0	1	1	3.1009	0.148282	0.148485	-0.0784549	1	-4.44213e-05	13	-1.16494e-05
2	0	0	1	1	3.1069	0.145281	0.145435	-0.0783713	1	-4.48918e-05	13	-1.13979e-05
2	0	0	1	1	3.1129	0.14228	0.142492	-0.0781505	1	-4.53616e-05	13	-1.11358e-05
2	0	0	1	1	3.1189	0.139279	0.139498	-0.0779154	1	-4.58299e-05	13	-1.0869e-05
2	0	0	1	1	3.1249	0.136278	0.136473	-0.0776601	1	-4.62966e-05	13	-1.05985e-05
2	0	0	1	1	3.1309	0.133277	0.133476	-0.0773141	1	-4.67616e-05	13	-1.03196e-05
2	0	0	1	1	3.1369	0.130276	0.130444	-0.0768914	1	-4.72242e-05	13	-1.003e-05
2	0	0	1	1	3.1429	0.127275	0.127451	-0.0764855	1	-4.76844e-05	13	-9.74816e-06
2	0	0	1	1	3.1489	0.124275	0.124463	-0.0760537	1	-4.8142e-05	13	-9.46583e-06
2	0	0	1	1	3.1549	0.121274	0.121455	-0.0756217	1	-4.85969e-05	13	-9.18462e-06
2	0	0	1	1	3.1609	0.118273	0.118461	-0.0751557	1	-4.90492e-05	13	-8.90302e-06
2	0	0	1	1	3.1669	0.115272	0.115468	-0.0746138	1	-4.94984e-05	13	-8.61551e-06
2	0	0	1	1	3.1729	0.112271	0.112478	-0.074183	1	-4.99446e-05	13	-8.34399e-06
2	0	0	1	1	3.1789	0.10927	0.10948	-0.0736782	1	-5.03882e-05	13	-8.06631e-06
2	0	0	1	1	3.1849	0.106269	0.10645	-0.0731743	1	-5.08287e-05	13	-7.78943e-06
2	0	0	1	1	3.1909	0.103268	0.103481	-0.0726841	1	-5.12662e-05	13	-7.5214e-06
2	0	0	1	1	3.1969	0.100267	0.100461	-0.0721883	1	-5.17008e-05	13	-7.25214e-06
2	0	0	1	1	3.2029	0.0972658	0.0974813	-0.0717176	1	-5.21325e-05	13	-6.99113e-06
2	0	0	1	1	3.2089	0.0942648	0.0944746	-0.0712933	1	-5.25616e-05	13	-6.7354e-06
2	0	0	1	1	3.2149	0.0912638	0.0914637	-0.0707776	1	-5.29879e-05	13	-6.47358e-06
2	0	0	1	1	3.2209	0.0882629	0.088439	-0.0704089	1	-5.34114e-05	13	-6.22689e-06
2	0	0	1	1	3.2269	0.0852619	0.0854642	-0.0700049	1	-5.38324e-05	13	-5.98292e-06
2	0	0	1	1	3.2329	0.0822609	0.082465	-0.0695572	1	-5.42509e-05	13	-5.73604e-06
2	0	0	1	1	3.2389	0.0792599	0.0794499	-0.0691259	1	-5.4667e-05	13	-5.49204e-06
2	0	0	1	1	3.2449	0.076259	0.076456	-0.0687384	1	-5.50806e-05	13	-5.25546e-06
2	0	0	1	1	3.2509	0.073258	0.0734631	-0.0683417	1	-5.54919e-05	13	-5.0206e-06
2	0	0	1	1	3.2569	0.070257	0.0704278	-0.0680299	1	-5.59011e-05	13	-4.7912e-06
2	0	0	1	1	3.2629	0.0672561	0.0673968	-0.0676686	1	-5.63081e-05	13	-4.56065e-06
2	0	0	1	1	3.2689	0.0642551	0.0644665	-0.0673247	1	-5.67128e-05	13	-4.34019e-06
2	0	0	1	1	3.2749	0.0612541	0.061445	-0.0670143	1	-5.71157e-05	13	-4.1177e-06
2	0	0	1	1	3.2809	0.0582531	0.0584405	-0.0666735	1	-5.75167e-05	13	-3.89643e-06
2	0	0	1	1	3.2869	0.0552522	0.055454	-0.0663465	1	-5.79157e-05	13	-3.67918e-06
2	0	0	1	1	3.2929	0.0522512	0.0524548	-0.0660581	1	-5.83129e-05	13	-3.46507e-06
2	0	0	1	1	3.2989	0.0492502	0.0494291	-0.0657564	1	-5.87083e-05	13	-3.25028e-06
2	0	0	1	1	3.3049	0.0462493	0.0464723	-0.065504	1	-5.91021e-05	13	-3.04412e-06
2	0	0	1	1	3.3109	0.0432483	0.0434455	-0.0652361	1	-5.94942e-05	13	-2.83422e-06
2	0	0	1	1	3.3169	0.0402473	0.0404516	-0.0648982	1	-5.98847e-05	13	-2.62524e-06
2	0	0	1	1	3.3229	0.0372463	0.0374396	-0.0647147	1	-6.02736e-05	13	-2.42289e-06
2	0	0	1	1	3.3289	0.0342454	0.0344531	-0.0644663	1	-6.06612e-05	13	-2.22107e-06
2	0	0	1	1	3.3349	0.0312444	0.0314338	-0.0642061	1	-6.10473e-05	13	-2.01824e-06
2	0	0	1	1	3.3409	0.0282434	0.0284261	-0.0640058	1	-6.1432e-05	13	-1.81943e-06
2	0	0	1	1	3.3469	0.0252425	0.0254682	-0.0637611	1	-6.18154e-05	13	-1.62388e-06
2	0	0	1	1	3.3529	0.0222415	0.0224287	-0.0635639	1	-6.21974e-05	13	-1.42566e-06
2	0	0	1	1	3.3589	0.0192405	0.0194019	-0.0634111	1	-6.25783e-05	13	-1.2303e-06
2	0	0	1	1	3.3649	0.0162395	0.0164218	-0.0631863	1	-6.2958e-05	13	-1.03763e-06
2	0	0	1	1	3.3709	0.0132386	0.0134427	-0.0630147	1	-6.33364e-05	13	-8.47089e-07
2	0	0	1	1	3.3769	0.0102376	0.0104658	-0.0628104	1	-6.37138e-05	13	-6.57359e-07
2	0	0	1	1	3.3829	0.00723663	0.00742942	-0.0626326	1	-6.40901e-05	13	-4.65324e-07
2	0	0	1	1	3.3889	0.00423566	0.00442915	-0.0624539	1	-6.44653e-05	13	-2.76618e-07
2	0	0	1	1	3.3949	0.00123468	0.00147873	-0.0622969	1	-6.48396e-05	13	-9.21204e-08
2	0	0	1	1	3.3976	-0.000115752	0.000132426	-0.0622276	1	-6.50076e-05	13	-8.24058e-09