File: Data/2025-02-10 exp 1 CV with stirring_C05.mpt
EC-Lab ASCII FILE
Nb header lines : 59

Cyclic Voltammetry

Run on channel : 5 (SN 39658)
User :
CE vs. WE compliance from -10 V to 10 V
Electrode connection : standard
Potential control : Ewe
Ewe ctrl range : min = -2.50 V, max = 2.50 V
Safety Limits :
	Do not start on E overload
Acquisition started on : 02/10/2025 12:36:52.263
Loaded Setting File :  NONE
Saved on :
	File : 2025-02-10 exp 1 CV with stirring_C05.mpr
	Directory : C:\Users\thefo\OneDrive\Documents\EC-Lab\Data\CHEM 451\
	Host : 172.24.113.132
Device : VSP (SN 1910)
Address : USB
EC-Lab for windows v11.46 (software)
Internet server v11.40 (firmware)
Command interpretor v11.40 (firmware)
Electrode material : Au/Pd
Initial state :
Electrolyte : NaCl (0.2M)
Comments : Fe(CN)63-/Fe(CN)64- 5.10-3 M
Current amplifier : VSPB-4A
Reference electrode : SCE Saturated Calomel Electrode (0.241 V)
Electrode surface area : 0.001 cm²
Characteristic mass : 0.001 g
Equivalent Weight : 0.000 g/eq.
Density : 0.000 g/cm3
Volume (V) : 0.001 cm³
Cycle Definition : Charge/Discharge alternance
Ei (V)              0.000
vs.                 Eoc
dE/dt               100.000
dE/dt unit          mV/s
E1 (V)              -0.500
vs.                 Ref
Step percent        50
N                   10
E range min (V)     -2.500
E range max (V)     2.500
I Range             Auto
I Range min         Unset
I Range max         Unset
I Range init        Unset
Bandwidth           4
E2 (V)              1.000
vs.                 Ref
nc cycles           2
Reverse Scan        1
Ef (V)              0.000
vs.                 Eoc

mode	ox/red	error	control changes	counter inc.	time/s	control/V	Ewe/V	<I>/mA	cycle number	(Q-Qo)/C	I Range	P/W
2	1	0	0	0	0.000000000000000E+000	0.377106	0.377117	1.5505e-05	1	0.0000000E+000	14	5.84719e-09
2	0	0	1	0	0.1157	0.365553	0.36572	-0.00180793	1	-1.37334e-07	14	-6.61197e-07
2	0	0	1	0	0.2357	0.353549	0.353743	-0.00274861	1	-3.91486e-07	14	-9.72301e-07
2	0	0	1	0	0.3557	0.341545	0.341686	-0.00345357	1	-7.31488e-07	14	-1.18003e-06
2	0	0	1	0	0.4757	0.329541	0.329628	-0.00406125	1	-1.15782e-06	14	-1.3387e-06
2	0	0	1	0	0.5957	0.317537	0.317692	-0.00496589	1	-1.68681e-06	14	-1.57762e-06
2	0	0	1	0	0.7159	0.305533	0.30573	-0.00624107	1	-2.34521e-06	14	-1.90808e-06
2	0	0	1	0	0.8359	0.293529	0.293754	-0.0080381	1	-3.16993e-06	14	-2.36123e-06
2	0	0	1	0	0.9559	0.281525	0.281695	-0.0102963	1	-4.21498e-06	14	-2.90043e-06
2	0	0	1	0	1.1059	0.266521	0.266732	-0.0130864	1	-5.91963e-06	13	-3.49055e-06
2	0	0	1	0	1.2259	0.254517	0.25468	-0.0166403	1	-7.75281e-06	13	-4.23796e-06
2	0	0	1	0	1.3461	0.242513	0.242679	-0.0212129	1	-1.00922e-05	13	-5.14792e-06
2	0	0	1	0	1.4661	0.230509	0.230722	-0.0269634	1	-1.30481e-05	13	-6.22105e-06
2	0	0	1	0	1.5861	0.218505	0.218682	-0.0326699	1	-1.66793e-05	13	-7.14432e-06
2	0	0	1	0	1.7061	0.206501	0.206647	-0.0392179	1	-2.10327e-05	13	-8.10425e-06
2	0	0	1	0	1.8261	0.194497	0.194668	-0.044476	1	-2.6135e-05	13	-8.65804e-06
2	0	0	1	0	1.9463	0.182493	0.182652	-0.0496301	1	-3.18936e-05	13	-9.06502e-06
2	0	0	1	0	2.0663	0.170489	0.170643	-0.0539875	1	-3.81917e-05	13	-9.21261e-06
2	0	0	1	0	2.1863	0.158486	0.158624	-0.0589136	1	-4.49713e-05	13	-9.34512e-06
2	0	0	1	0	2.3063	0.146482	0.146619	-0.0600209	1	-5.22186e-05	13	-8.80019e-06
2	0	0	1	0	2.4263	0.134478	0.134621	-0.0603755	1	-5.95091e-05	13	-8.12781e-06
2	0	0	1	0	2.5465	0.122474	0.122662	-0.0627876	1	-6.69184e-05	13	-7.70166e-06
2	0	0	1	0	2.6665	0.11047	0.110591	-0.0642287	1	-7.45213e-05	13	-7.10312e-06
2	0	0	1	0	2.7865	0.0984662	0.0986228	-0.0642686	1	-8.2275e-05	13	-6.33835e-06
2	0	0	1	0	2.9065	0.0864623	0.0866196	-0.0691948	1	-9.03883e-05	13	-5.99362e-06
2	0	0	1	0	3.0265	0.0744584	0.0746821	-0.0688774	1	-9.86839e-05	13	-5.14391e-06
2	0	0	1	0	3.1467	0.0624545	0.062594	-0.0686797	1	-0.000106898	13	-4.29894e-06
2	0	0	1	0	3.2667	0.0504506	0.0505876	-0.071277	1	-0.000115286	13	-3.60573e-06
2	0	0	1	0	3.3867	0.0384467	0.0385727	-0.0689253	1	-0.000123583	13	-2.65863e-06
2	0	0	1	0	3.5067	0.0264428	0.0266087	-0.0669234	1	-0.000131688	13	-1.78075e-06
2	0	0	1	0	3.6267	0.014439	0.0145991	-0.0702932	1	-0.000139959	13	-1.02622e-06
2	0	0	1	0	3.7469	0.00243507	0.00266484	-0.076503	1	-0.000148737	13	-2.03868e-07
2	0	0	1	0	3.8669	-0.00956882	-0.00951345	-0.0705556	1	-0.00015763	13	6.71227e-07
2	0	0	1	0	3.9869	-0.0215727	-0.0215305	-0.0672828	1	-0.000165826	13	1.44863e-06
2	0	0	1	0	4.1069	-0.0335766	-0.0335358	-0.070367	1	-0.000173941	13	2.35982e-06
2	0	0	1	0	4.2269	-0.0455805	-0.0454956	-0.0704467	1	-0.000182402	13	3.20501e-06
2	0	0	1	0	4.3471	-0.0575844	-0.0575126	-0.0733945	1	-0.000191094	13	4.22111e-06
2	0	0	1	0	4.4671	-0.0695883	-0.0694819	-0.0750588	1	-0.00019999	13	5.21523e-06
2	0	0	1	0	4.5871	-0.0815922	-0.0815286	-0.0732336	1	-0.000208829	13	5.97063e-06
2	0	0	1	0	4.7071	-0.0935961	-0.0935287	-0.0746005	1	-0.000217759	13	6.97729e-06
2	0	0	1	0	4.8271	-0.1056	-0.10548	-0.0712031	1	-0.000226396	13	7.5105e-06
2	0	0	1	0	4.9473	-0.117604	-0.117515	-0.0706097	1	-0.000235049	13	8.2977e-06
2	0	0	1	0	5.0673	-0.129608	-0.129513	-0.0691385	1	-0.000243449	13	8.95433e-06
2	0	0	1	0	5.1873	-0.141612	-0.1415	-0.0730257	1	-0.000251728	13	1.03332e-05
2	0	0	1	0	5.3073	-0.153616	-0.153501	-0.0745117	1	-0.000260637	13	1.14377e-05
2	0	0	1	0	5.4273	-0.165619	-0.165495	-0.0736958	1	-0.000269524	13	1.21963e-05
2	0	0	1	0	5.5473	-0.177623	-0.177538	-0.0755837	1	-0.000278616	13	1.34189e-05
2	0	0	1	0	5.6675	-0.189627	-0.189566	-0.0751459	1	-0.000287711	13	1.42451e-05
2	0	0	1	0	5.7875	-0.201631	-0.20157	-0.0741173	1	-0.000296598	13	1.49398e-05
2	0	0	1	0	5.9075	-0.213635	-0.213538	-0.0782594	1	-0.00030578	13	1.67113e-05
2	0	0	1	0	6.0275	-0.225639	-0.225609	-0.077112	1	-0.000315109	13	1.73971e-05
2	0	0	1	0	6.1475	-0.237643	-0.23757	-0.0794953	1	-0.000324666	13	1.88857e-05
2	0	0	1	0	6.2677	-0.249647	-0.249579	-0.077369	1	-0.000333913	13	1.93097e-05
2	0	0	1	0	6.3877	-0.261651	-0.261622	-0.0765237	1	-0.000343249	13	2.00203e-05
2	0	0	1	0	6.5077	-0.273654	-0.273586	-0.0766893	1	-0.000352385	13	2.09811e-05
2	0	0	1	0	6.6277	-0.285658	-0.285551	-0.0776622	1	-0.000361665	13	2.21765e-05
2	0	0	1	0	6.7477	-0.297662	-0.297553	-0.0810561	1	-0.000371108	13	2.41185e-05
2	0	0	1	0	6.8679	-0.309666	-0.309571	-0.081604	1	-0.000380857	13	2.52622e-05
2	0	0	1	0	6.9879	-0.32167	-0.321589	-0.0822245	1	-0.000390588	13	2.64425e-05
2	0	0	1	0	7.1079	-0.333674	-0.333544	-0.0832014	1	-0.000400541	13	2.77513e-05
2	0	0	1	0	7.2279	-0.345678	-0.34556	-0.0791073	1	-0.000410291	13	2.73363e-05
2	0	0	1	0	7.3479	-0.357682	-0.357599	-0.0809297	1	-0.000419849	13	2.89404e-05
2	0	0	1	0	7.4681	-0.369686	-0.369564	-0.0852058	1	-0.000429818	13	3.1489e-05
2	0	0	1	0	7.5881	-0.381689	-0.381614	-0.0879678	1	-0.000440217	13	3.35697e-05
2	0	0	1	0	7.7081	-0.393693	-0.393658	-0.0879255	1	-0.000450665	13	3.46126e-05
2	0	0	1	0	7.8281	-0.405697	-0.405621	-0.0906078	1	-0.000461352	13	3.67525e-05
2	0	0	1	0	7.9481	-0.417701	-0.417633	-0.088702	1	-0.000472052	13	3.70449e-05
2	0	0	1	0	8.0683	-0.429705	-0.429625	-0.0938794	1	-0.000482992	13	4.03329e-05
2	0	0	1	0	8.1883	-0.441709	-0.44168	-0.0922739	1	-0.000494156	13	4.07555e-05
2	0	0	1	0	8.3083	-0.453713	-0.453616	-0.0952377	1	-0.000505411	13	4.32014e-05
2	0	0	1	0	8.4283	-0.465717	-0.465616	-0.0975514	1	-0.000517136	13	4.54215e-05
2	0	0	1	0	8.5483	-0.477721	-0.477643	-0.100977	1	-0.000529056	13	4.82311e-05
2	0	0	1	0	8.6685	-0.489725	-0.489631	-0.100024	1	-0.000540985	13	4.89751e-05
2	0	0	1	0	8.7769	-0.499428	-0.499243	-0.100479	1	-0.000552024	13	5.01633e-05
2	0	0	1	0	8.897	-0.487422	-0.487249	-0.0918389	1	-0.000563506	13	4.47484e-05
2	0	0	1	0	9.0171	-0.47542	-0.475225	-0.0856188	1	-0.000574056	13	4.06882e-05
2	0	0	1	0	9.1371	-0.463416	-0.463274	-0.0894039	1	-0.000584639	13	4.14185e-05
2	0	0	1	0	9.2571	-0.451412	-0.451263	-0.0798087	1	-0.000594892	13	3.60147e-05
2	0	0	1	0	9.3771	-0.439408	-0.439228	-0.0816376	1	-0.000604537	13	3.58575e-05
2	0	0	1	0	9.4971	-0.427404	-0.42725	-0.0796814	1	-0.000614287	13	3.40439e-05
2	0	0	1	0	9.6173	-0.4154	-0.41527	-0.074591	1	-0.000623414	13	3.09755e-05
2	0	0	1	0	9.7373	-0.403396	-0.403254	-0.0754148	1	-0.000632396	13	3.04114e-05
2	0	0	1	0	9.8573	-0.391393	-0.391245	-0.0699798	1	-0.000641076	13	2.73793e-05
2	0	0	1	0	9.9773	-0.379389	-0.379237	-0.0709388	1	-0.000649566	13	2.69027e-05
2	0	0	1	0	10.0973	-0.367385	-0.367221	-0.0677836	1	-0.00065779	13	2.48916e-05
2	0	0	1	0	10.2175	-0.355381	-0.35525	-0.0646682	1	-0.00066563	13	2.29734e-05
2	0	0	1	0	10.3375	-0.343377	-0.343204	-0.064296	1	-0.000673368	13	2.20667e-05
2	0	0	1	0	10.4575	-0.331373	-0.331197	-0.0623662	1	-0.000680996	13	2.06555e-05
2	0	0	1	0	10.5775	-0.319369	-0.319206	-0.0591235	1	-0.000688321	13	1.88726e-05
2	0	0	1	0	10.6975	-0.307365	-0.307233	-0.0624865	1	-0.000695603	13	1.91979e-05
2	0	0	1	0	10.8177	-0.295361	-0.295177	-0.0567856	1	-0.000702855	13	1.67618e-05
2	0	0	1	0	10.9377	-0.283358	-0.283181	-0.0595141	1	-0.000709925	13	1.68532e-05
2	0	0	1	0	11.0577	-0.271354	-0.271192	-0.0588164	1	-0.000717029	13	1.59506e-05
2	0	0	1	0	11.1777	-0.25935	-0.259153	-0.0603954	1	-0.00072428	13	1.56517e-05
2	0	0	1	0	11.2977	-0.247346	-0.247191	-0.0551374	1	-0.000731244	13	1.36295e-05
2	0	0	1	0	11.4179	-0.235342	-0.235173	-0.0577623	1	-0.000737874	13	1.35841e-05
2	0	0	1	0	11.5379	-0.223338	-0.223192	-0.0589723	1	-0.000744942	13	1.31622e-05
2	0	0	1	0	11.6579	-0.211334	-0.211197	-0.0589268	1	-0.000752122	13	1.24452e-05
2	0	0	1	0	11.7779	-0.19933	-0.199193	-0.0583325	1	-0.000759125	13	1.16194e-05
2	0	0	1	0	11.8979	-0.187326	-0.187201	-0.0563487	1	-0.000766002	13	1.05486e-05
2	0	0	1	0	12.0181	-0.175323	-0.175195	-0.0577634	1	-0.000772764	13	1.01199e-05
2	0	0	1	0	12.1381	-0.163319	-0.163155	-0.0570303	1	-0.000779577	13	9.30475e-06
2	0	0	1	0	12.2581	-0.151315	-0.151119	-0.0558205	1	-0.000786484	13	8.43551e-06
2	0	0	1	0	12.3781	-0.139311	-0.139139	-0.0547574	1	-0.000793065	13	7.61887e-06
2	0	0	1	0	12.4981	-0.127307	-0.127137	-0.0524345	1	-0.000799472	13	6.66633e-06
2	0	0	1	0	12.6183	-0.115303	-0.115106	-0.0523919	1	-0.00080578	13	6.03061e-06
2	0	0	1	0	12.7383	-0.103299	-0.103131	-0.0533113	1	-0.00081205	13	5.49805e-06
2	0	0	1	0	12.8583	-0.0912953	-0.0911395	-0.0530769	1	-0.000818472	13	4.8374e-06
2	0	0	1	0	12.9783	-0.0792914	-0.079115	-0.0527403	1	-0.00082486	13	4.17255e-06
2	0	0	1	0	13.0983	-0.0672875	-0.0671044	-0.0535076	1	-0.000831009	13	3.5906e-06
2	0	0	1	0	13.2184	-0.0552858	-0.0551373	-0.0532834	1	-0.000837608	13	2.9379e-06
2	0	0	1	0	13.3385	-0.0432797	-0.043117	-0.0480622	1	-0.000843595	13	2.0723e-06
2	0	0	1	0	13.4585	-0.0312759	-0.0311148	-0.0509224	1	-0.000849512	13	1.58444e-06
2	0	0	1	0	13.5785	-0.019272	-0.0191296	-0.0526829	1	-0.000855669	13	1.0078e-06
2	0	0	1	0	13.6985	-0.00726807	-0.00708819	-0.0515917	1	-0.000861976	13	3.65692e-07
2	0	0	1	0	13.8185	0.00473582	0.00498613	-0.0469992	1	-0.000867817	13	-2.34344e-07
2	0	0	1	0	13.9387	0.0167397	0.0169193	-0.0502152	1	-0.000873786	13	-8.49608e-07
2	0	0	1	0	14.0587	0.0287436	0.0290096	-0.0459116	1	-0.00087945	13	-1.33188e-06
2	0	0	1	0	14.1787	0.0407475	0.0409566	-0.0468468	1	-0.000885187	13	-1.91868e-06
2	0	0	1	0	14.2987	0.0527514	0.0529778	-0.0476428	1	-0.000890749	13	-2.52401e-06
2	0	0	1	0	14.4187	0.0647553	0.0650076	-0.0474322	1	-0.000896488	13	-3.08345e-06
2	0	0	1	0	14.5389	0.0767591	0.077031	-0.0476291	1	-0.000902267	13	-3.66891e-06
2	0	0	1	0	14.6589	0.088763	0.0890332	-0.0488559	1	-0.000908031	13	-4.3498e-06
2	0	0	1	0	14.7789	0.100767	0.100976	-0.0453425	1	-0.000913738	13	-4.5785e-06
2	0	0	1	0	14.8989	0.112771	0.112997	-0.0403297	1	-0.000918694	13	-4.55714e-06
2	0	0	1	0	15.0189	0.124775	0.124997	-0.0400962	1	-0.000923525	13	-5.01192e-06
2	0	0	1	0	15.1391	0.136779	0.137039	-0.0367754	1	-0.000928222	13	-5.03965e-06
2	0	0	1	0	15.2591	0.148782	0.149026	-0.0346296	1	-0.000932612	13	-5.16071e-06
2	0	0	1	0	15.3791	0.160786	0.161053	-0.0317404	1	-0.000936624	13	-5.11188e-06
2	0	0	1	0	15.4991	0.17279	0.173024	-0.0285082	1	-0.000940313	13	-4.9326e-06
2	0	0	1	0	15.6191	0.184794	0.185027	-0.0217785	1	-0.000943351	13	-4.02961e-06
2	0	0	1	0	15.7393	0.196798	0.197022	-0.0157479	1	-0.000945508	13	-3.10268e-06
2	0	0	1	0	15.8593	0.208802	0.209082	-0.0106971	1	-0.000947049	13	-2.23657e-06
2	0	0	1	0	15.9793	0.220806	0.221034	-0.00549643	1	-0.000947863	13	-1.2149e-06
2	0	0	1	0	16.0993	0.23281	0.232999	-0.000362612	1	-0.00094816	13	-8.44882e-08
2	1	0	1	0	16.2493	0.247814	0.248089	0.00452422	1	-0.00094777	14	1.12241e-06
2	1	0	1	0	16.3695	0.259818	0.260015	0.00820825	1	-0.000946954	14	2.13427e-06
2	1	0	1	0	16.5195	0.274823	0.275036	0.0114136	1	-0.000945452	13	3.13915e-06
2	1	0	1	0	16.6395	0.286827	0.287109	0.0122143	1	-0.000944083	13	3.50683e-06
2	1	0	1	0	16.7595	0.298831	0.299108	0.0120978	1	-0.000942653	13	3.61856e-06
2	1	0	1	0	16.8795	0.310835	0.311042	0.0124358	1	-0.000941158	13	3.86807e-06
2	1	0	1	0	16.9997	0.322839	0.323024	0.0127599	1	-0.000939613	13	4.12175e-06
2	1	0	1	0	17.1197	0.334843	0.335109	0.013018	1	-0.000938037	13	4.36243e-06
2	1	0	1	0	17.2397	0.346847	0.347084	0.0133322	1	-0.000936434	13	4.6274e-06
2	1	0	1	0	17.3597	0.35885	0.359091	0.0133401	1	-0.000934812	13	4.79029e-06
2	1	0	1	0	17.4797	0.370854	0.371099	0.0134741	1	-0.000933181	13	5.00022e-06
2	1	0	1	0	17.5999	0.382858	0.38312	0.0139129	1	-0.000931541	13	5.33031e-06
2	1	0	1	0	17.7199	0.394862	0.395108	0.0139216	1	-0.000929903	13	5.50056e-06
2	1	0	1	0	17.8399	0.406866	0.407128	0.0138932	1	-0.000928266	13	5.65631e-06
2	1	0	1	0	17.9599	0.41887	0.419175	0.013618	1	-0.000926631	13	5.70831e-06
2	1	0	1	0	18.0799	0.430874	0.431121	0.0133835	1	-0.000925001	13	5.76993e-06
2	1	0	1	0	18.2001	0.442878	0.443108	0.0135089	1	-0.000923373	13	5.98591e-06
2	1	0	1	0	18.3201	0.454882	0.455095	0.0134309	1	-0.00092175	13	6.11233e-06
2	1	0	1	0	18.4401	0.466885	0.467117	0.0132849	1	-0.000920128	13	6.20562e-06
2	1	0	1	0	18.5601	0.478889	0.47913	0.0133298	1	-0.000918506	13	6.38672e-06
2	1	0	1	0	18.6801	0.490893	0.491137	0.0133704	1	-0.000916883	13	6.56669e-06
2	1	0	1	0	18.8003	0.502897	0.503179	0.0138543	1	-0.000915253	13	6.97117e-06
2	1	0	1	0	18.9203	0.514901	0.515109	0.0139604	1	-0.00091362	13	7.19113e-06
2	1	0	1	0	19.0403	0.526905	0.527153	0.0137825	1	-0.000911984	13	7.26549e-06
2	1	0	1	0	19.1603	0.538909	0.539203	0.0137577	1	-0.000910341	13	7.4182e-06
2	1	0	1	0	19.2803	0.550913	0.551139	0.0136037	1	-0.000908691	13	7.49755e-06
2	1	0	1	0	19.4005	0.562917	0.563187	0.0137728	1	-0.00090703	13	7.75668e-06
2	1	0	1	0	19.5205	0.57492	0.575172	0.0138789	1	-0.000905363	13	7.98275e-06
2	1	0	1	0	19.6405	0.586924	0.587235	0.0137324	1	-0.000903685	13	8.06417e-06
2	1	0	1	0	19.7605	0.598928	0.599207	0.013981	1	-0.000901994	13	8.37749e-06
2	1	0	1	0	19.8805	0.610932	0.611178	0.014208	1	-0.000900289	13	8.68359e-06
2	1	0	1	0	20.0005	0.622936	0.623232	0.0146272	1	-0.000898571	13	9.11614e-06
2	1	0	1	0	20.1207	0.63494	0.635194	0.0149282	1	-0.000896831	13	9.48231e-06
2	1	0	1	0	20.2407	0.646944	0.647239	0.0147575	1	-0.000895075	13	9.55166e-06
2	1	0	1	0	20.3607	0.658948	0.659235	0.0148534	1	-0.000893302	13	9.7919e-06
2	1	0	1	0	20.4807	0.670952	0.671231	0.014999	1	-0.00089151	13	1.00678e-05
2	1	0	1	0	20.6007	0.682955	0.68322	0.0151295	1	-0.000889696	13	1.03368e-05
2	1	0	1	0	20.7209	0.694959	0.695235	0.0153321	1	-0.000887858	13	1.06594e-05
2	1	0	1	0	20.8409	0.706963	0.707234	0.0151901	1	-0.000885997	13	1.07429e-05
2	1	0	1	0	20.9609	0.718967	0.719245	0.0154499	1	-0.000884112	13	1.11123e-05
2	1	0	1	0	21.0809	0.730971	0.731194	0.0160109	1	-0.000882197	13	1.17071e-05
2	1	0	1	0	21.2009	0.742975	0.743215	0.0163772	1	-0.000880253	13	1.21718e-05
2	1	0	1	0	21.3211	0.754979	0.755277	0.0168722	1	-0.000878275	13	1.27432e-05
2	1	0	1	0	21.4411	0.766983	0.767288	0.0170022	1	-0.000876263	13	1.30455e-05
2	1	0	1	0	21.5611	0.778987	0.779283	0.0171559	1	-0.000874219	13	1.33693e-05
2	1	0	1	0	21.6811	0.79099	0.791221	0.0176252	1	-0.000872143	13	1.39454e-05
2	1	0	1	0	21.8011	0.802994	0.803267	0.0177555	1	-0.00087003	13	1.42624e-05
2	1	0	1	0	21.9213	0.814998	0.815285	0.0179704	1	-0.000867878	13	1.4651e-05
2	1	0	1	0	22.0413	0.827002	0.827272	0.0181035	1	-0.000865687	13	1.49765e-05
2	1	0	1	0	22.1613	0.839006	0.839228	0.0183836	1	-0.00086345	13	1.5428e-05
2	1	0	1	0	22.2813	0.85101	0.851301	0.019199	1	-0.000861171	13	1.63441e-05
2	1	0	1	0	22.4013	0.863014	0.863291	0.0197047	1	-0.000858837	13	1.70109e-05
2	1	0	1	0	22.5215	0.875018	0.875319	0.0201739	1	-0.000856451	13	1.76586e-05
2	1	0	1	0	22.6415	0.887021	0.887287	0.0206413	1	-0.000854018	13	1.83148e-05
2	1	0	1	0	22.7615	0.899025	0.899311	0.0210093	1	-0.000851532	13	1.88939e-05
2	1	0	1	0	22.8815	0.911029	0.911338	0.0217329	1	-0.000848989	13	1.9806e-05
2	1	0	1	0	23.0015	0.923033	0.923329	0.0220739	1	-0.000846388	13	2.03815e-05
2	1	0	1	0	23.1217	0.935037	0.935365	0.0222432	1	-0.000843728	13	2.08055e-05
2	1	0	1	0	23.2417	0.947041	0.947332	0.0227161	1	-0.000841007	13	2.15196e-05
2	1	0	1	0	23.3617	0.959045	0.959375	0.0230558	1	-0.000838221	13	2.21191e-05
2	1	0	1	0	23.4817	0.971049	0.971365	0.0240122	1	-0.000835369	13	2.33246e-05
2	1	0	1	0	23.6017	0.983053	0.983314	0.024651	1	-0.000832455	13	2.42397e-05
2	1	0	1	0	23.7219	0.995056	0.995372	0.0252149	1	-0.000829463	13	2.50982e-05
2	1	0	1	1	23.8273	0.994456	0.994707	0.0209497	1	-0.000826944	13	2.08388e-05
2	1	0	1	1	23.9475	0.982452	0.982692	0.0175804	1	-0.000824641	13	1.72761e-05
2	1	0	1	1	24.0675	0.970448	0.970696	0.0150274	1	-0.000822719	13	1.4587e-05
2	1	0	1	1	24.1875	0.958445	0.958686	0.0128919	1	-0.00082108	13	1.23592e-05
2	1	0	1	1	24.3075	0.946441	0.946643	0.0111255	1	-0.00081967	13	1.05319e-05
2	1	0	1	1	24.4275	0.934437	0.934712	0.00951714	1	-0.000818444	13	8.89578e-06
2	1	0	1	1	24.5477	0.922433	0.922668	0.00845745	1	-0.000817382	13	7.80342e-06
2	1	0	1	1	24.6677	0.910429	0.910676	0.00728581	1	-0.000816455	13	6.63501e-06
2	1	0	1	1	24.7877	0.898425	0.898638	0.00605864	1	-0.000815654	13	5.44452e-06
2	1	0	1	1	24.9077	0.886421	0.886641	0.00516661	1	-0.000814962	13	4.58093e-06
2	1	0	1	1	25.0277	0.874417	0.874594	0.0043042	1	-0.000814365	13	3.76442e-06
2	1	0	1	1	25.1779	0.859413	0.859662	0.00376792	1	-0.000813733	14	3.23914e-06
2	1	0	1	1	25.2979	0.847409	0.847596	0.00333168	1	-0.000813318	14	2.82392e-06
2	1	0	1	1	25.4179	0.835405	0.835616	0.00269556	1	-0.000812974	14	2.25245e-06
2	1	0	1	1	25.5379	0.823401	0.823664	0.00198069	1	-0.000812695	14	1.63143e-06
2	1	0	1	1	25.6579	0.811397	0.811563	0.00127809	1	-0.000812472	14	1.03725e-06
2	1	0	1	1	25.7781	0.799393	0.799556	0.000901919	1	-0.000812301	14	7.21135e-07
2	1	0	1	1	25.8981	0.787389	0.787522	0.000834346	1	-0.000812179	14	6.57065e-07
2	1	0	1	1	26.0181	0.775385	0.775577	0.000546489	1	-0.000812102	14	4.23844e-07
2	1	0	1	1	26.1381	0.763381	0.763628	0.000181487	1	-0.000812066	14	1.38588e-07
2	0	0	1	1	26.2581	0.751378	0.751568	-0.00018137	1	-0.000812068	14	-1.36312e-07
2	0	0	1	1	26.3783	0.739374	0.739534	-0.000344717	1	-0.000812107	14	-2.5493e-07
2	0	0	1	1	26.4983	0.72737	0.727514	-0.000413935	1	-0.000812179	14	-3.01144e-07
2	0	0	1	1	26.6183	0.715366	0.715595	-0.000754716	1	-0.000812283	14	-5.40071e-07
2	0	0	1	1	26.7383	0.703362	0.70367	-0.00125277	1	-0.000812418	14	-8.81533e-07
2	0	0	1	1	26.8583	0.691358	0.691527	-0.00169025	1	-0.000812583	14	-1.16886e-06
2	0	0	1	1	26.9785	0.679354	0.679494	-0.00191946	1	-0.000812777	14	-1.30426e-06
2	0	0	1	1	27.0985	0.66735	0.667538	-0.00193785	1	-0.000812996	14	-1.29359e-06
2	0	0	1	1	27.2185	0.655346	0.655555	-0.00219945	1	-0.00081324	14	-1.44186e-06
2	0	0	1	1	27.3385	0.643343	0.643628	-0.00257925	1	-0.000813508	14	-1.66008e-06
2	0	0	1	1	27.4585	0.631339	0.631498	-0.00279484	1	-0.000813799	14	-1.76494e-06
2	0	0	1	1	27.5787	0.619335	0.619427	-0.00280873	1	-0.000814112	14	-1.7398e-06
2	0	0	1	1	27.6987	0.607331	0.607536	-0.00270081	1	-0.000814446	14	-1.64084e-06
2	0	0	1	1	27.8187	0.595327	0.595476	-0.00282555	1	-0.0008148	14	-1.68255e-06
2	0	0	1	1	27.9387	0.583323	0.583571	-0.00315039	1	-0.000815174	14	-1.83847e-06
2	0	0	1	1	28.0587	0.571319	0.571507	-0.00329973	1	-0.000815566	14	-1.88582e-06
2	0	0	1	1	28.1789	0.559315	0.559423	-0.00335952	1	-0.00081598	14	-1.87939e-06
2	0	0	1	1	28.2989	0.547311	0.547493	-0.00340416	1	-0.000816413	14	-1.86375e-06
2	0	0	1	1	28.4189	0.535308	0.535497	-0.00369207	1	-0.000816865	14	-1.9771e-06
2	0	0	1	1	28.5389	0.523304	0.523528	-0.00417484	1	-0.000817336	14	-2.18565e-06
2	0	0	1	1	28.6589	0.5113	0.511461	-0.00441837	1	-0.000817825	14	-2.25982e-06
2	0	0	1	1	28.7791	0.499296	0.499388	-0.0044709	1	-0.000818334	14	-2.23271e-06
2	0	0	1	1	28.8991	0.487292	0.487524	-0.00449354	1	-0.000818861	14	-2.19071e-06
2	0	0	1	1	29.0191	0.475288	0.475501	-0.00464915	1	-0.000819407	14	-2.21068e-06
2	0	0	1	1	29.1391	0.463284	0.463483	-0.00495273	1	-0.00081997	14	-2.29551e-06
2	0	0	1	1	29.2591	0.45128	0.451399	-0.00498417	1	-0.000820552	14	-2.24985e-06
2	0	0	1	1	29.3791	0.439276	0.439335	-0.00490105	1	-0.000821152	14	-2.1532e-06
2	0	0	1	1	29.4993	0.427273	0.427443	-0.00490803	1	-0.000821774	14	-2.0979e-06
2	0	0	1	1	29.6193	0.415269	0.415466	-0.005187	1	-0.000822414	14	-2.15502e-06
2	0	0	1	1	29.7393	0.403265	0.403394	-0.00568147	1	-0.000823077	14	-2.29187e-06
2	0	0	1	1	29.8593	0.391261	0.391464	-0.00597938	1	-0.000823765	14	-2.34071e-06
2	0	0	1	1	29.9793	0.379257	0.379349	-0.00613251	1	-0.00082448	14	-2.32636e-06
2	0	0	1	1	30.0865	0.368554	0.368804	-0.00626337	2	-0.000825147	14	-2.30995e-06
2	0	0	1	1	30.2065	0.35655	0.356743	-0.00691035	2	-0.000825929	14	-2.46522e-06
2	0	0	1	1	30.3265	0.344546	0.344693	-0.00744553	2	-0.000826759	14	-2.56642e-06
2	0	0	1	1	30.4465	0.332542	0.332724	-0.00784712	2	-0.00082765	14	-2.61093e-06
2	0	0	1	1	30.5665	0.320538	0.320652	-0.00858098	2	-0.000828622	14	-2.75151e-06
2	0	0	1	1	30.6867	0.308534	0.308758	-0.00969168	2	-0.000829704	14	-2.99238e-06
2	0	0	1	1	30.8367	0.293529	0.293739	-0.0113098	2	-0.000831255	13	-3.32213e-06
2	0	0	1	1	30.9567	0.281525	0.281729	-0.0135784	2	-0.000832729	13	-3.82544e-06
2	0	0	1	1	31.0767	0.269522	0.269681	-0.0165429	2	-0.0008345	13	-4.4613e-06
2	0	0	1	1	31.1967	0.257518	0.2577	-0.019971	2	-0.000836638	13	-5.14652e-06
2	0	0	1	1	31.3169	0.245514	0.245706	-0.0243456	2	-0.00083925	13	-5.98187e-06
2	0	0	1	1	31.4369	0.23351	0.233676	-0.0306305	2	-0.000842488	13	-7.15761e-06
2	0	0	1	1	31.5569	0.221506	0.221687	-0.0365458	2	-0.000846427	13	-8.10174e-06
2	0	0	1	1	31.6769	0.209502	0.209638	-0.0436754	2	-0.000851165	13	-9.15605e-06
2	0	0	1	1	31.7969	0.197498	0.197661	-0.0491042	2	-0.000856748	13	-9.70597e-06
2	0	0	1	1	31.9171	0.185494	0.18562	-0.0532983	2	-0.000862937	13	-9.89324e-06
2	0	0	1	1	32.0371	0.17349	0.173666	-0.0601482	2	-0.000869874	13	-1.04457e-05
2	0	0	1	1	32.1571	0.161487	0.161655	-0.0634595	2	-0.000877361	13	-1.02586e-05
2	0	0	1	1	32.2771	0.149483	0.149602	-0.0660906	2	-0.000885153	13	-9.8873e-06
2	0	0	1	1	32.3971	0.137479	0.137623	-0.0685659	2	-0.000893264	13	-9.43625e-06
2	0	0	1	1	32.5173	0.125475	0.125643	-0.0706866	2	-0.000901612	13	-8.88129e-06
2	0	0	1	1	32.6373	0.113471	0.113637	-0.069134	2	-0.000909993	13	-7.85617e-06
2	0	0	1	1	32.7573	0.101467	0.101594	-0.0682773	2	-0.000918155	13	-6.93659e-06
2	0	0	1	1	32.8773	0.0894633	0.0896209	-0.0718706	2	-0.000926552	13	-6.44111e-06
2	0	0	1	1	32.9973	0.0774594	0.077606	-0.0721407	2	-0.000935192	13	-5.59855e-06
2	0	0	1	1	33.1175	0.0654555	0.0655985	-0.0767355	2	-0.000944202	13	-5.03374e-06
2	0	0	1	1	33.2375	0.0534516	0.0535911	-0.0748333	2	-0.000953373	13	-4.01039e-06
2	0	0	1	1	33.3575	0.0414477	0.0416122	-0.0751879	2	-0.000962417	13	-3.12874e-06
2	0	0	1	1	33.4775	0.0294438	0.029574	-0.0715155	2	-0.000971232	13	-2.115e-06
2	0	0	1	1	33.5975	0.0174399	0.017576	-0.0758516	2	-0.000980021	13	-1.33317e-06
2	0	0	1	1	33.7177	0.00543605	0.00556539	-0.0756155	2	-0.000989251	13	-4.2083e-07
2	0	0	1	1	33.8377	-0.00656784	-0.00650999	-0.0757868	2	-0.000998409	13	4.93371e-07
2	0	0	1	1	33.9577	-0.0185717	-0.0185185	-0.0762683	2	-0.00100746	13	1.41238e-06
2	0	0	1	1	34.0777	-0.0305756	-0.0304878	-0.0772613	2	-0.00101658	13	2.35553e-06
2	0	0	1	1	34.1977	-0.0425795	-0.042542	-0.0775464	2	-0.00102586	13	3.29898e-06
2	0	0	1	1	34.3177	-0.0545834	-0.0545282	-0.0728872	2	-0.00103489	13	3.97441e-06
2	0	0	1	1	34.4379	-0.0665873	-0.0664838	-0.0716621	2	-0.00104351	13	4.76436e-06
2	0	0	1	1	34.5579	-0.0785912	-0.0785231	-0.0738301	2	-0.00105217	13	5.79737e-06
2	0	0	1	1	34.6779	-0.0905951	-0.0905602	-0.0757525	2	-0.00106118	13	6.86016e-06
2	0	0	1	1	34.7979	-0.102599	-0.102542	-0.0811779	2	-0.00107074	13	8.32417e-06
2	0	0	1	1	34.9179	-0.114603	-0.114483	-0.0734781	2	-0.00108007	13	8.41198e-06
2	0	0	1	1	35.0381	-0.126607	-0.126499	-0.068886	2	-0.00108869	13	8.714e-06
2	0	0	1	1	35.1581	-0.138611	-0.138562	-0.0764962	2	-0.00109743	13	1.05994e-05
2	0	0	1	1	35.2781	-0.150615	-0.150551	-0.0786143	2	-0.0011067	13	1.18355e-05
2	0	0	1	1	35.3981	-0.162618	-0.162535	-0.0756655	2	-0.00111588	13	1.22983e-05
2	0	0	1	1	35.5181	-0.174622	-0.174569	-0.0769068	2	-0.00112501	13	1.34256e-05
2	0	0	1	1	35.6383	-0.186626	-0.186564	-0.0769099	2	-0.00113431	13	1.43486e-05
2	0	0	1	1	35.7583	-0.19863	-0.198575	-0.0787293	2	-0.0011436	13	1.56336e-05
2	0	0	1	1	35.8783	-0.210634	-0.21054	-0.0772302	2	-0.00115293	13	1.626e-05
2	0	0	1	1	35.9983	-0.222638	-0.222558	-0.0766406	2	-0.00116226	13	1.70569e-05
2	0	0	1	1	36.1183	-0.234642	-0.234561	-0.0748028	2	-0.00117141	13	1.75458e-05
2	0	0	1	1	36.2385	-0.246646	-0.246581	-0.0735665	2	-0.0011804	13	1.81401e-05
2	0	0	1	1	36.3585	-0.25865	-0.258557	-0.0782578	2	-0.00118958	13	2.02341e-05
2	0	0	1	1	36.4785	-0.270653	-0.270624	-0.0756771	2	-0.00119898	13	2.048e-05
2	0	0	1	1	36.5985	-0.282657	-0.282552	-0.0807122	2	-0.00120812	13	2.28054e-05
2	0	0	1	1	36.7185	-0.294661	-0.294578	-0.081972	2	-0.00121789	13	2.41472e-05
2	0	0	1	1	36.8387	-0.306665	-0.306557	-0.0804168	2	-0.00122752	13	2.46523e-05
2	0	0	1	1	36.9587	-0.318669	-0.318608	-0.0771968	2	-0.00123703	13	2.45955e-05
2	0	0	1	1	37.0787	-0.330673	-0.330569	-0.0780681	2	-0.00124635	13	2.58069e-05
2	0	0	1	1	37.1987	-0.342677	-0.34255	-0.0836921	2	-0.00125603	13	2.86687e-05
2	0	0	1	1	37.3187	-0.354681	-0.35465	-0.0832992	2	-0.00126619	13	2.9542e-05
2	0	0	1	1	37.4389	-0.366685	-0.366616	-0.0858761	2	-0.00127621	13	3.14835e-05
2	0	0	1	1	37.5589	-0.378688	-0.378621	-0.0835105	2	-0.00128637	13	3.16188e-05
2	0	0	1	1	37.6789	-0.390692	-0.390616	-0.0850661	2	-0.00129659	13	3.32282e-05
2	0	0	1	1	37.7989	-0.402696	-0.402634	-0.0836559	2	-0.00130677	13	3.36827e-05
2	0	0	1	1	37.9189	-0.4147	-0.414606	-0.0869849	2	-0.00131714	13	3.60645e-05
2	0	0	1	1	38.0391	-0.426704	-0.426579	-0.0883916	2	-0.00132745	13	3.7706e-05
2	0	0	1	1	38.1591	-0.438708	-0.438624	-0.0903729	2	-0.00133814	13	3.96398e-05
2	0	0	1	1	38.2791	-0.450712	-0.450616	-0.0908749	2	-0.00134887	13	4.09497e-05
2	0	0	1	1	38.3991	-0.462716	-0.462634	-0.0939486	2	-0.00135994	13	4.34638e-05
2	0	0	1	1	38.5191	-0.47472	-0.474649	-0.0952655	2	-0.00137135	13	4.52177e-05
2	0	0	1	1	38.6391	-0.486723	-0.486643	-0.0973674	2	-0.00138271	13	4.73832e-05
2	0	0	1	1	38.7593	-0.498727	-0.498666	-0.0984429	2	-0.00139459	13	4.90902e-05
2	0	0	1	1	38.8677	-0.490425	-0.49027	-0.0888643	2	-0.00140461	13	4.35675e-05
2	0	0	1	1	38.9879	-0.478421	-0.47826	-0.0851658	2	-0.00141505	13	4.07315e-05
2	0	0	1	1	39.1079	-0.466417	-0.466251	-0.0778463	2	-0.00142482	13	3.62959e-05
2	0	0	1	1	39.2279	-0.454413	-0.454259	-0.0732637	2	-0.00143377	13	3.32807e-05
2	0	0	1	1	39.3479	-0.442409	-0.442245	-0.0749927	2	-0.00144259	13	3.31652e-05
2	0	0	1	1	39.4679	-0.430405	-0.430303	-0.0776788	2	-0.00145177	13	3.34254e-05
2	0	0	1	1	39.5881	-0.418401	-0.418253	-0.0707241	2	-0.00146084	13	2.95806e-05
2	0	0	1	1	39.7081	-0.406397	-0.406264	-0.0689334	2	-0.00146921	13	2.80052e-05
2	0	0	1	1	39.8281	-0.394394	-0.394272	-0.0659912	2	-0.00147728	13	2.60185e-05
2	0	0	1	1	39.9481	-0.38239	-0.382227	-0.0647995	2	-0.00148514	13	2.47681e-05
2	0	0	1	1	40.0681	-0.370386	-0.370198	-0.0700663	2	-0.0014933	13	2.59384e-05
2	0	0	1	1	40.1883	-0.358382	-0.358286	-0.069945	2	-0.00150187	13	2.50603e-05
2	0	0	1	1	40.3083	-0.346378	-0.346212	-0.0643665	2	-0.00150966	13	2.22845e-05
2	0	0	1	1	40.4283	-0.334374	-0.334249	-0.0605856	2	-0.00151701	13	2.02507e-05
2	0	0	1	1	40.5483	-0.32237	-0.322189	-0.0627068	2	-0.00152442	13	2.02034e-05
2	0	0	1	1	40.6683	-0.310366	-0.310261	-0.0612191	2	-0.00153174	13	1.89939e-05
2	0	0	1	1	40.7885	-0.298362	-0.298237	-0.0620521	2	-0.00153916	13	1.85063e-05
2	0	0	1	1	40.9085	-0.286359	-0.286233	-0.0630413	2	-0.00154667	13	1.80445e-05
2	0	0	1	1	41.0285	-0.274355	-0.274205	-0.060355	2	-0.00155411	13	1.65497e-05
2	0	0	1	1	41.1485	-0.262351	-0.262217	-0.0631789	2	-0.0015614	13	1.65666e-05
2	0	0	1	1	41.2685	-0.250347	-0.250208	-0.0566697	2	-0.00156845	13	1.41792e-05
2	0	0	1	1	41.3887	-0.238343	-0.238219	-0.0573622	2	-0.00157537	13	1.36648e-05
2	0	0	1	1	41.5087	-0.226339	-0.226228	-0.0600958	2	-0.00158239	13	1.35954e-05
2	0	0	1	1	41.6287	-0.214335	-0.21421	-0.0597355	2	-0.00158965	13	1.2796e-05
2	0	0	1	1	41.7487	-0.202331	-0.202202	-0.0653385	2	-0.00159743	13	1.32116e-05
2	0	0	1	1	41.8687	-0.190327	-0.190161	-0.0582853	2	-0.00160477	13	1.10836e-05
2	0	0	1	1	41.9889	-0.178324	-0.178133	-0.0576371	2	-0.00161173	13	1.02671e-05
2	0	0	1	1	42.1089	-0.16632	-0.166139	-0.0579032	2	-0.00161848	13	9.61999e-06
2	0	0	1	1	42.2289	-0.154316	-0.154196	-0.0570035	2	-0.00162554	13	8.78972e-06
2	0	0	1	1	42.3489	-0.142312	-0.14213	-0.0514501	2	-0.00163197	13	7.31262e-06
2	0	0	1	1	42.4689	-0.130308	-0.130192	-0.0541419	2	-0.00163827	13	7.04884e-06
2	0	0	1	1	42.5889	-0.118304	-0.11819	-0.0518884	2	-0.00164462	13	6.13267e-06
2	0	0	1	1	42.7091	-0.1063	-0.106152	-0.0535337	2	-0.00165086	13	5.68268e-06
2	0	0	1	1	42.8291	-0.0942963	-0.0941822	-0.0518306	2	-0.0016571	13	4.88152e-06
2	0	0	1	1	42.9491	-0.0822924	-0.0821556	-0.0553036	2	-0.00166348	13	4.5435e-06
2	0	0	1	1	43.0691	-0.0702885	-0.0701386	-0.0541839	2	-0.00167008	13	3.80039e-06
2	0	0	1	1	43.1891	-0.0582846	-0.0581693	-0.0541898	2	-0.00167656	13	3.15219e-06
2	0	0	1	1	43.3093	-0.0462807	-0.0461491	-0.0526596	2	-0.00168286	13	2.43019e-06
2	0	0	1	1	43.4293	-0.0342768	-0.0341289	-0.0513865	2	-0.00168912	13	1.75376e-06
2	0	0	1	1	43.5493	-0.0222729	-0.0221225	-0.0517724	2	-0.0016954	13	1.14533e-06
2	0	0	1	1	43.6693	-0.010269	-0.0101161	-0.0552744	2	-0.00170174	13	5.59159e-07
2	0	0	1	1	43.7893	0.00173485	0.00193917	-0.0542263	2	-0.00170834	13	-1.05154e-07
2	0	0	1	1	43.9095	0.0137387	0.0139466	-0.051117	2	-0.00171474	13	-7.12911e-07
2	0	0	1	1	44.0295	0.0257426	0.0259573	-0.0470165	2	-0.00172068	13	-1.22042e-06
2	0	0	1	1	44.1495	0.0377465	0.0379351	-0.0446648	2	-0.0017261	13	-1.69436e-06
2	0	0	1	1	44.2695	0.0497504	0.0500285	-0.0510322	2	-0.00173192	13	-2.55306e-06
2	0	0	1	1	44.3895	0.0617543	0.0619681	-0.049649	2	-0.00173792	13	-3.07665e-06
2	0	0	1	1	44.5097	0.0737582	0.0740201	-0.0497732	2	-0.00174385	13	-3.68422e-06
2	0	0	1	1	44.6297	0.0857621	0.0859788	-0.0469655	2	-0.00174978	13	-4.03803e-06
2	0	0	1	1	44.7497	0.0977659	0.0980011	-0.0434411	2	-0.00175511	13	-4.25728e-06
2	0	0	1	1	44.8697	0.10977	0.109997	-0.0450985	2	-0.00176045	13	-4.9607e-06
2	0	0	1	1	44.9897	0.121774	0.121946	-0.0433573	2	-0.00176575	13	-5.28725e-06
2	0	0	1	1	45.1099	0.133778	0.134019	-0.0399746	2	-0.00177068	13	-5.35737e-06
2	0	0	1	1	45.2299	0.145781	0.146051	-0.037577	2	-0.00177538	13	-5.48816e-06
2	0	0	1	1	45.3499	0.157785	0.158002	-0.0332383	2	-0.00177956	13	-5.25174e-06
2	0	0	1	1	45.4699	0.169789	0.170033	-0.0317003	2	-0.00178338	13	-5.39011e-06
2	0	0	1	1	45.5899	0.181793	0.181987	-0.0254668	2	-0.00178681	13	-4.63462e-06
2	0	0	1	1	45.7101	0.193797	0.194007	-0.0174383	2	-0.00178937	13	-3.38315e-06
2	0	0	1	1	45.8301	0.205801	0.20605	-0.0107129	2	-0.00179109	13	-2.20739e-06
2	0	0	1	1	45.9501	0.217805	0.218045	-0.00531807	2	-0.00179206	13	-1.15958e-06
2	1	0	1	1	46.0701	0.229809	0.230041	0.000858435	2	-0.00179235	13	1.97475e-07
2	1	0	1	1	46.1901	0.241813	0.242064	0.00505719	2	-0.00179206	13	1.22417e-06
2	1	0	1	1	46.3103	0.253816	0.254046	0.00829311	2	-0.00179135	13	2.10683e-06
2	1	0	1	1	46.4303	0.26582	0.266086	0.00948756	2	-0.00179032	13	2.5245e-06
2	1	0	1	1	46.5503	0.277824	0.278068	0.0105129	2	-0.00178914	13	2.9233e-06
2	1	0	1	1	46.6703	0.289828	0.290063	0.0110914	2	-0.00178779	13	3.2172e-06
2	1	0	1	1	46.7903	0.301832	0.302069	0.0120997	2	-0.00178636	13	3.65493e-06
2	1	0	1	1	46.9103	0.313836	0.314059	0.0127365	2	-0.00178485	13	4.00003e-06
2	1	0	1	1	47.0305	0.32584	0.326087	0.0129406	2	-0.00178329	13	4.21977e-06
2	1	0	1	1	47.1505	0.337844	0.338079	0.0133101	2	-0.00178169	13	4.49986e-06
2	1	0	1	1	47.2705	0.349848	0.350107	0.0135979	2	-0.00178007	13	4.76071e-06
2	1	0	1	1	47.3905	0.361851	0.362047	0.013945	2	-0.00177844	13	5.04873e-06
2	1	0	1	1	47.5105	0.373855	0.374101	0.0140747	2	-0.0017768	13	5.26535e-06
2	1	0	1	1	47.6307	0.385859	0.386107	0.0137295	2	-0.00177514	13	5.30108e-06
2	1	0	1	1	47.7507	0.397863	0.398129	0.0136352	2	-0.00177349	13	5.42857e-06
2	1	0	1	1	47.8707	0.409867	0.410136	0.0136391	2	-0.00177184	13	5.5939e-06
2	1	0	1	1	47.9907	0.421871	0.422187	0.0135905	2	-0.00177019	13	5.73773e-06
2	1	0	1	1	48.1107	0.433875	0.434151	0.0136237	2	-0.00176855	13	5.91476e-06
2	1	0	1	1	48.2309	0.445879	0.446119	0.0133212	2	-0.0017669	13	5.94284e-06
2	1	0	1	1	48.3509	0.457883	0.458135	0.0133625	2	-0.00176526	13	6.12183e-06
2	1	0	1	1	48.4709	0.469886	0.470153	0.0136268	2	-0.00176361	13	6.4067e-06
2	1	0	1	1	48.5909	0.48189	0.482129	0.0136943	2	-0.00176198	13	6.60244e-06
2	1	0	1	1	48.7109	0.493894	0.494161	0.0138746	2	-0.00176034	13	6.85627e-06
2	1	0	1	1	48.8311	0.505898	0.506183	0.0137082	2	-0.0017587	13	6.93886e-06
2	1	0	1	1	48.9511	0.517902	0.518159	0.0136378	2	-0.00175707	13	7.06655e-06
2	1	0	1	1	49.0711	0.529906	0.530128	0.0138408	2	-0.00175543	13	7.33742e-06
2	1	0	1	1	49.1911	0.54191	0.542173	0.0137312	2	-0.0017538	13	7.44467e-06
2	1	0	1	1	49.3111	0.553914	0.554122	0.0136236	2	-0.00175216	13	7.54916e-06
2	1	0	1	1	49.4313	0.565918	0.566154	0.013357	2	-0.00175052	13	7.56213e-06
2	1	0	1	1	49.5513	0.577921	0.578146	0.0132587	2	-0.00174889	13	7.66547e-06
2	1	0	1	1	49.6713	0.589925	0.59019	0.0135932	2	-0.00174725	13	8.0226e-06
2	1	0	1	1	49.7913	0.601929	0.602195	0.0136499	2	-0.00174561	13	8.21988e-06
2	1	0	1	1	49.9113	0.613933	0.614263	0.0137059	2	-0.00174396	13	8.41904e-06
2	1	0	1	1	50.0315	0.625937	0.626211	0.0137989	2	-0.00174231	13	8.641e-06
2	1	0	1	1	50.1515	0.637941	0.638216	0.0138472	2	-0.00174065	13	8.83751e-06
2	1	0	1	1	50.2715	0.649945	0.65021	0.0142273	2	-0.00173899	13	9.25073e-06
2	1	0	1	1	50.3915	0.661949	0.662222	0.0143061	2	-0.00173732	13	9.47384e-06
2	1	0	1	1	50.5115	0.673952	0.674252	0.0141278	2	-0.00173564	13	9.52568e-06
2	1	0	1	1	50.6317	0.685956	0.686238	0.0141181	2	-0.00173394	13	9.6884e-06
2	1	0	1	1	50.7517	0.69796	0.698222	0.0140037	2	-0.00173224	13	9.77771e-06
2	1	0	1	1	50.8717	0.709964	0.710221	0.0142688	2	-0.00173053	13	1.0134e-05
2	1	0	1	1	50.9917	0.721968	0.722228	0.014323	2	-0.00172881	13	1.03445e-05
2	1	0	1	1	51.1117	0.733972	0.734253	0.0141912	2	-0.00172708	13	1.04199e-05
2	1	0	1	1	51.2317	0.745976	0.746232	0.0143821	2	-0.00172533	13	1.07324e-05
2	1	0	1	1	51.3519	0.75798	0.758288	0.0145727	2	-0.00172356	13	1.10503e-05
2	1	0	1	1	51.4719	0.769984	0.770304	0.0150142	2	-0.00172178	13	1.15655e-05
2	1	0	1	1	51.5919	0.781987	0.782286	0.0153893	2	-0.00171998	13	1.20389e-05
2	1	0	1	1	51.7119	0.793991	0.794278	0.0153365	2	-0.00171815	13	1.21815e-05
2	1	0	1	1	51.8319	0.805995	0.806328	0.01567	2	-0.0017163	13	1.26351e-05
2	1	0	1	1	51.9521	0.817999	0.818295	0.0159041	2	-0.00171442	13	1.30143e-05
2	1	0	1	1	52.0721	0.830003	0.830311	0.0161481	2	-0.00171252	13	1.3408e-05
2	1	0	1	1	52.1921	0.842007	0.842297	0.016411	2	-0.00171058	13	1.38229e-05
2	1	0	1	1	52.3121	0.854011	0.854327	0.0162437	2	-0.00170862	13	1.38774e-05
2	1	0	1	1	52.4321	0.866015	0.866298	0.0164634	2	-0.00170662	13	1.42622e-05
2	1	0	1	1	52.5523	0.878019	0.87833	0.0169544	2	-0.00170457	13	1.48916e-05
2	1	0	1	1	52.6723	0.890022	0.890331	0.0173583	2	-0.00170249	13	1.54547e-05
2	1	0	1	1	52.7923	0.902026	0.902341	0.0179604	2	-0.00170036	13	1.62064e-05
2	1	0	1	1	52.9123	0.91403	0.914258	0.0182012	2	-0.00169818	13	1.66406e-05
2	1	0	1	1	53.0323	0.926034	0.92636	0.0187628	2	-0.00169594	13	1.73811e-05
2	1	0	1	1	53.1525	0.938038	0.938349	0.0195725	2	-0.00169364	13	1.83658e-05
2	1	0	1	1	53.2725	0.950042	0.950332	0.0201066	2	-0.00169129	13	1.9108e-05
2	1	0	1	1	53.3925	0.962046	0.962385	0.0207548	2	-0.00168887	13	1.99741e-05
2	1	0	1	1	53.5125	0.97405	0.974362	0.0211061	2	-0.00168638	13	2.0565e-05
2	1	0	1	1	53.6325	0.986054	0.986339	0.0216163	2	-0.00168382	13	2.1321e-05
2	1	0	1	1	53.7527	0.998057	0.998335	0.0226278	2	-0.00168118	13	2.25901e-05
2	1	0	1	0	53.8583	0.991455	0.99171	0.017804	2	-0.0016791	13	1.76564e-05
2	1	0	1	0	53.9783	0.979451	0.979692	0.0144218	2	-0.00167721	13	1.4129e-05
2	1	0	1	0	54.0983	0.967448	0.967658	0.0122081	2	-0.00167562	13	1.18133e-05
2	1	0	1	0	54.2183	0.955444	0.955651	0.01057	2	-0.00167427	13	1.01012e-05
2	1	0	1	0	54.3383	0.94344	0.943611	0.0090018	2	-0.00167311	13	8.4942e-06
2	1	0	1	0	54.4585	0.931436	0.93172	0.00775593	2	-0.00167211	13	7.22635e-06
2	1	0	1	0	54.5785	0.919432	0.919647	0.00644332	2	-0.00167124	13	5.92558e-06
2	1	0	1	0	54.6985	0.907428	0.907649	0.00542127	2	-0.00167049	13	4.92061e-06
2	1	0	1	0	54.8185	0.895424	0.895673	0.00489698	2	-0.00166985	13	4.38609e-06
2	1	0	1	0	54.9685	0.880419	0.880568	0.00413863	2	-0.00166917	14	3.64434e-06
2	1	0	1	0	55.0887	0.868415	0.868677	0.00358712	2	-0.00166872	14	3.11605e-06
2	1	0	1	0	55.2087	0.856412	0.856704	0.00282396	2	-0.00166835	14	2.4193e-06
2	1	0	1	0	55.3287	0.844408	0.844643	0.00194696	2	-0.00166804	14	1.64449e-06
2	1	0	1	0	55.4487	0.832404	0.832615	0.00145056	2	-0.0016678	14	1.20776e-06
2	1	0	1	0	55.5687	0.8204	0.82054	0.001233	2	-0.00166761	14	1.01173e-06
2	1	0	1	0	55.6888	0.8084	0.808624	0.00109552	2	-0.00166747	14	8.85866e-07
2	1	0	1	0	55.8089	0.796392	0.796571	0.000746733	2	-0.00166738	14	5.94826e-07
2	1	0	1	0	55.9289	0.784388	0.784587	0.000253331	2	-0.00166732	14	1.98761e-07
2	1	0	1	0	56.0489	0.772384	0.772566	2.58872e-05	2	-0.00166731	14	1.99996e-08
2	0	0	1	0	56.1689	0.760381	0.760495	-5.88703e-05	2	-0.00166733	14	-4.47706e-08
2	0	0	1	0	56.2889	0.748377	0.748591	-0.000321564	2	-0.00166739	14	-2.4072e-07
2	0	0	1	0	56.4091	0.736373	0.736665	-0.000780582	2	-0.00166747	14	-5.75027e-07
2	0	0	1	0	56.5291	0.724369	0.724583	-0.0013542	2	-0.0016676	14	-9.81233e-07
2	0	0	1	0	56.6491	0.712365	0.712542	-0.00164396	2	-0.00166775	14	-1.17139e-06
2	0	0	1	0	56.7691	0.700361	0.700533	-0.00167786	2	-0.00166792	14	-1.17539e-06
2	0	0	1	0	56.8891	0.688357	0.688555	-0.00183018	2	-0.00166813	14	-1.26018e-06
2	0	0	1	0	57.0093	0.676353	0.67661	-0.00211171	2	-0.00166835	14	-1.4288e-06
2	0	0	1	0	57.1293	0.664349	0.66454	-0.00238845	2	-0.0016686	14	-1.58722e-06
2	0	0	1	0	57.2493	0.652345	0.65251	-0.00242747	2	-0.00166888	14	-1.58395e-06
2	0	0	1	0	57.3693	0.640342	0.640484	-0.00224413	2	-0.00166917	14	-1.43733e-06
2	0	0	1	0	57.4893	0.628338	0.628554	-0.00238762	2	-0.00166948	14	-1.50075e-06
2	0	0	1	0	57.6095	0.616334	0.616618	-0.00270925	2	-0.00166982	14	-1.67057e-06
2	0	0	1	0	57.7295	0.60433	0.604499	-0.0030042	2	-0.00167017	14	-1.81603e-06
2	0	0	1	0	57.8495	0.592326	0.592454	-0.00313304	2	-0.00167055	14	-1.85618e-06
2	0	0	1	0	57.9695	0.580322	0.580479	-0.00309394	2	-0.00167094	14	-1.79597e-06
2	0	0	1	0	58.0895	0.568318	0.568517	-0.00333129	2	-0.00167135	14	-1.8939e-06
2	0	0	1	0	58.2097	0.556314	0.556571	-0.00379301	2	-0.00167178	14	-2.11108e-06
2	0	0	1	0	58.3297	0.544311	0.544516	-0.00406199	2	-0.00167223	14	-2.21182e-06
2	0	0	1	0	58.4497	0.532307	0.532435	-0.00416796	2	-0.0016727	14	-2.21917e-06
2	0	0	1	0	58.5697	0.520303	0.520457	-0.00414109	2	-0.00167318	14	-2.15526e-06
2	0	0	1	0	58.6897	0.508299	0.508463	-0.00432612	2	-0.00167368	14	-2.19967e-06
2	0	0	1	0	58.8099	0.496295	0.496537	-0.00467798	2	-0.0016742	14	-2.32279e-06
2	0	0	1	0	58.9299	0.484291	0.48447	-0.00478299	2	-0.00167474	14	-2.31722e-06
2	0	0	1	0	59.0499	0.472287	0.472413	-0.00471156	2	-0.00167529	14	-2.2258e-06
2	0	0	1	0	59.1699	0.460283	0.460428	-0.004616	2	-0.00167586	14	-2.12533e-06
2	0	0	1	0	59.2899	0.448279	0.448482	-0.00474481	2	-0.00167645	14	-2.12796e-06
2	0	0	1	0	59.4101	0.436276	0.436464	-0.00510351	2	-0.00167706	14	-2.2275e-06
2	0	0	1	0	59.5301	0.424272	0.424438	-0.0052315	2	-0.00167769	14	-2.22045e-06
2	0	0	1	0	59.6501	0.412268	0.41238	-0.00529422	2	-0.00167834	14	-2.18323e-06
2	0	0	1	0	59.7701	0.400264	0.400491	-0.00545878	2	-0.00167901	14	-2.18619e-06
2	0	0	1	0	59.8901	0.38826	0.388514	-0.00583964	2	-0.00167971	14	-2.26878e-06
2	0	0	0	0	60.0016	0.377106	0.37727	-0.0059831	3	-0.00168038	14	-2.25724e-06
2	0	0	1	0	60.1173	0.365553	0.365671	-0.00627283	3	-0.00168111	14	-2.29379e-06
2	0	0	1	0	60.2373	0.353549	0.353758	-0.00665986	3	-0.00168191	14	-2.35598e-06
2	0	0	1	0	60.3573	0.341545	0.341763	-0.00732013	3	-0.00168276	14	-2.50175e-06
2	0	0	1	0	60.4773	0.329541	0.329706	-0.00824418	3	-0.00168368	14	-2.71815e-06
2	0	0	1	0	60.5973	0.317537	0.317691	-0.0091564	3	-0.00168468	14	-2.9089e-06
2	0	0	1	0	60.7175	0.305533	0.305669	-0.0100375	3	-0.00168579	14	-3.06816e-06
2	0	0	1	0	60.8675	0.290528	0.290731	-0.0112889	3	-0.00168741	13	-3.28202e-06
2	0	0	1	0	60.9875	0.278524	0.278713	-0.0132109	3	-0.00168893	13	-3.68205e-06
2	0	0	1	0	61.1075	0.266521	0.266664	-0.0164388	3	-0.00169076	13	-4.38363e-06
2	0	0	1	0	61.2275	0.254517	0.254691	-0.02047	3	-0.00169299	13	-5.21352e-06
2	0	0	1	0	61.3477	0.242513	0.242686	-0.025699	3	-0.00169576	13	-6.23679e-06
2	0	0	1	0	61.4677	0.230509	0.230686	-0.0311252	3	-0.00169919	13	-7.18014e-06
2	0	0	1	0	61.5877	0.218505	0.218693	-0.037234	3	-0.00170331	13	-8.14283e-06
2	0	0	1	0	61.7077	0.206501	0.206719	-0.0443158	3	-0.00170822	13	-9.16092e-06
2	0	0	1	0	61.8277	0.194497	0.194645	-0.0502658	3	-0.00171385	13	-9.78402e-06
2	0	0	1	0	61.9479	0.182493	0.182636	-0.056363	3	-0.00172022	13	-1.02939e-05
2	0	0	1	0	62.0679	0.170489	0.170648	-0.059134	3	-0.0017271	13	-1.00911e-05
2	0	0	1	0	62.1879	0.158486	0.158633	-0.0604325	3	-0.00173421	13	-9.58656e-06
2	0	0	1	0	62.3079	0.146482	0.146626	-0.0674982	3	-0.00174189	13	-9.89701e-06
2	0	0	1	0	62.4279	0.134478	0.134614	-0.0673556	3	-0.00174985	13	-9.06703e-06
2	0	0	1	0	62.5481	0.122474	0.122585	-0.071136	3	-0.00175813	13	-8.72018e-06
2	0	0	1	0	62.6681	0.11047	0.110621	-0.0698867	3	-0.00176659	13	-7.73092e-06
2	0	0	1	0	62.7881	0.0984662	0.0986175	-0.0742811	3	-0.0017753	13	-7.32542e-06
2	0	0	1	0	62.9081	0.0864623	0.0866068	-0.070977	3	-0.00178398	13	-6.14709e-06
2	0	0	1	0	63.0281	0.0744584	0.0746238	-0.0709899	3	-0.00179253	13	-5.29754e-06
2	0	0	1	0	63.1483	0.0624545	0.0626046	-0.071564	3	-0.00180113	13	-4.48023e-06
2	0	0	1	0	63.2683	0.0504506	0.0505876	-0.0700609	3	-0.00180981	13	-3.54421e-06
2	0	0	1	0	63.3883	0.0384467	0.0385684	-0.0692324	3	-0.00181822	13	-2.67019e-06
2	0	0	1	0	63.5083	0.0264428	0.0265652	-0.0714388	3	-0.00182665	13	-1.89779e-06
2	0	0	1	0	63.6283	0.014439	0.0145737	-0.0736281	3	-0.00183548	13	-1.07303e-06
2	0	0	1	0	63.7485	0.00243507	0.00256299	-0.0715714	3	-0.00184425	13	-1.83437e-07
2	0	0	1	0	63.8685	-0.00956882	-0.0094986	-0.0729116	3	-0.00185307	13	6.92558e-07
2	0	0	1	0	63.9885	-0.0215727	-0.0214817	-0.0723979	3	-0.00186184	13	1.55523e-06
2	0	0	1	0	64.1085	-0.0335766	-0.0334754	-0.074175	3	-0.00187049	13	2.48303e-06
2	0	0	1	0	64.2285	-0.0455805	-0.0454913	-0.071656	3	-0.00187932	13	3.25973e-06
2	0	0	1	0	64.3487	-0.0575844	-0.0575169	-0.0766251	3	-0.00188804	13	4.40724e-06
2	0	0	1	0	64.4687	-0.0695883	-0.0695201	-0.074119	3	-0.00189713	13	5.15276e-06
2	0	0	1	0	64.5887	-0.0815922	-0.0814809	-0.0759231	3	-0.00190617	13	6.18628e-06
2	0	0	1	0	64.7087	-0.0935961	-0.093517	-0.0745534	3	-0.00191518	13	6.97201e-06
2	0	0	1	0	64.8287	-0.1056	-0.105497	-0.075991	3	-0.0019242	13	8.01681e-06
2	0	0	1	0	64.9489	-0.117604	-0.117486	-0.0767155	3	-0.00193348	13	9.01303e-06
2	0	0	1	0	65.0689	-0.129608	-0.129486	-0.0749048	3	-0.00194262	13	9.69915e-06
2	0	0	1	0	65.1889	-0.141612	-0.141519	-0.0790315	3	-0.00195183	13	1.11845e-05
2	0	0	1	0	65.3089	-0.153616	-0.153539	-0.0755286	3	-0.0019612	13	1.15965e-05
2	0	0	1	0	65.4289	-0.165619	-0.165553	-0.0738854	3	-0.00197019	13	1.2232e-05
2	0	0	1	0	65.5489	-0.177623	-0.177534	-0.0697256	3	-0.00197868	13	1.23787e-05
2	0	0	1	0	65.6691	-0.189627	-0.189534	-0.0731887	3	-0.00198747	13	1.38718e-05
2	0	0	1	0	65.7891	-0.201631	-0.201613	-0.0720834	3	-0.00199614	13	1.4533e-05
2	0	0	1	0	65.9091	-0.213635	-0.213584	-0.0740818	3	-0.00200492	13	1.58227e-05
2	0	0	1	0	66.0291	-0.225639	-0.225601	-0.0753133	3	-0.00201391	13	1.69908e-05
2	0	0	1	0	66.1491	-0.237643	-0.237571	-0.0768072	3	-0.0020231	13	1.82471e-05
2	0	0	1	0	66.2693	-0.249647	-0.249579	-0.0781125	3	-0.00203256	13	1.94953e-05
2	0	0	1	0	66.3893	-0.261651	-0.261602	-0.0714101	3	-0.0020414	13	1.8681e-05
2	0	0	1	0	66.5093	-0.273654	-0.273603	-0.0769818	3	-0.00205024	13	2.10624e-05
2	0	0	1	0	66.6293	-0.285658	-0.285577	-0.0772416	3	-0.00205956	13	2.20584e-05
2	0	0	1	0	66.7493	-0.297662	-0.297613	-0.0744601	3	-0.00206867	13	2.21603e-05
2	0	0	1	0	66.8695	-0.309666	-0.309642	-0.0804161	3	-0.00207785	13	2.49002e-05
2	0	0	1	0	66.9895	-0.32167	-0.32158	-0.0823281	3	-0.00208769	13	2.64751e-05
2	0	0	1	0	67.1095	-0.333674	-0.333604	-0.0788402	3	-0.00209744	13	2.63014e-05
2	0	0	1	0	67.2295	-0.345678	-0.345606	-0.0809562	3	-0.00210722	13	2.7979e-05
2	0	0	1	0	67.3495	-0.357682	-0.357576	-0.0810622	3	-0.00211685	13	2.89859e-05
2	0	0	1	0	67.4697	-0.369686	-0.369585	-0.0848543	3	-0.00212687	13	3.13609e-05
2	0	0	1	0	67.5897	-0.381689	-0.381582	-0.0848903	3	-0.00213698	13	3.23926e-05
2	0	0	1	0	67.7097	-0.393693	-0.393646	-0.0829584	3	-0.0021471	13	3.26562e-05
2	0	0	1	0	67.8297	-0.405697	-0.405637	-0.0833177	3	-0.00215694	13	3.37968e-05
2	0	0	1	0	67.9497	-0.417701	-0.417672	-0.0838604	3	-0.00216708	13	3.50262e-05
2	0	0	1	0	68.0699	-0.429705	-0.429664	-0.0838465	3	-0.0021772	13	3.60258e-05
2	0	0	1	0	68.1899	-0.441709	-0.441712	-0.0867591	3	-0.00218738	13	3.83225e-05
2	0	0	1	0	68.3099	-0.453713	-0.453646	-0.0916109	3	-0.00219785	13	4.15589e-05
2	0	0	1	0	68.4299	-0.465717	-0.465667	-0.0933523	3	-0.00220909	13	4.34711e-05
2	0	0	1	0	68.5499	-0.477721	-0.47762	-0.092188	3	-0.0022201	13	4.40308e-05
2	0	0	1	0	68.6701	-0.489725	-0.489642	-0.0937747	3	-0.00223113	13	4.5916e-05
2	0	0	1	0	68.7785	-0.499428	-0.499291	-0.0935245	3	-0.00224138	13	4.66959e-05
2	0	0	1	0	68.8986	-0.487422	-0.487241	-0.083439	3	-0.00225178	13	4.06549e-05
2	0	0	1	0	69.0187	-0.47542	-0.475212	-0.0864839	3	-0.00226192	13	4.10982e-05
2	0	0	1	0	69.1387	-0.463416	-0.463253	-0.0807979	3	-0.00227193	13	3.74298e-05
2	0	0	1	0	69.2587	-0.451412	-0.451225	-0.0770305	3	-0.00228132	13	3.47581e-05
2	0	0	1	0	69.3787	-0.439408	-0.439228	-0.0755374	3	-0.00229048	13	3.31781e-05
2	0	0	1	0	69.4987	-0.427404	-0.427274	-0.0765179	3	-0.00229965	13	3.26941e-05
2	0	0	1	0	69.6189	-0.4154	-0.415233	-0.0706671	3	-0.00230837	13	2.93434e-05
2	0	0	1	0	69.7389	-0.403396	-0.403277	-0.0681755	3	-0.00231673	13	2.74936e-05
2	0	0	1	0	69.8589	-0.391393	-0.391266	-0.0676479	3	-0.00232478	13	2.64683e-05
2	0	0	1	0	69.9789	-0.379389	-0.379268	-0.0688975	3	-0.00233295	13	2.61306e-05
2	0	0	1	0	70.0989	-0.367385	-0.367221	-0.0642001	3	-0.00234092	13	2.35756e-05
2	0	0	1	0	70.2191	-0.355381	-0.355215	-0.0591381	3	-0.00234833	13	2.10067e-05
2	0	0	1	0	70.3391	-0.343377	-0.343241	-0.0589573	3	-0.00235552	13	2.02366e-05
2	0	0	1	0	70.4591	-0.331373	-0.331219	-0.0627661	3	-0.00236276	13	2.07893e-05
2	0	0	1	0	70.5791	-0.319369	-0.319239	-0.0608326	3	-0.00237019	13	1.94202e-05
2	0	0	1	0	70.6991	-0.307365	-0.307211	-0.0568791	3	-0.00237725	13	1.74738e-05
2	0	0	1	0	70.8193	-0.295361	-0.295186	-0.0590797	3	-0.00238423	13	1.74395e-05
2	0	0	1	0	70.9393	-0.283358	-0.283214	-0.0586934	3	-0.00239128	13	1.66228e-05
2	0	0	1	0	71.0593	-0.271354	-0.271221	-0.058795	3	-0.00239828	13	1.59464e-05
2	0	0	1	0	71.1793	-0.25935	-0.259191	-0.0541754	3	-0.00240506	13	1.40418e-05
2	0	0	1	0	71.2993	-0.247346	-0.247184	-0.0565132	3	-0.00241174	13	1.39691e-05
2	0	0	1	0	71.4195	-0.235342	-0.235172	-0.0589129	3	-0.00241857	13	1.38547e-05
2	0	0	1	0	71.5395	-0.223338	-0.22315	-0.0570285	3	-0.00242546	13	1.27259e-05
2	0	0	1	0	71.6595	-0.211334	-0.211225	-0.0555076	3	-0.00243235	13	1.17246e-05
2	0	0	1	0	71.7795	-0.19933	-0.199176	-0.0522627	3	-0.00243879	13	1.04095e-05
2	0	0	1	0	71.8995	-0.187326	-0.187166	-0.0513297	3	-0.00244499	13	9.6072e-06
2	0	0	1	0	72.0197	-0.175323	-0.175152	-0.0547515	3	-0.00245152	13	9.58981e-06
2	0	0	1	0	72.1397	-0.163319	-0.163185	-0.0548442	3	-0.00245819	13	8.94977e-06
2	0	0	1	0	72.2597	-0.151315	-0.151169	-0.0515124	3	-0.00246469	13	7.7871e-06
2	0	0	1	0	72.3797	-0.139311	-0.139102	-0.0543377	3	-0.002471	13	7.55845e-06
2	0	0	1	0	72.4997	-0.127307	-0.127138	-0.0551671	3	-0.00247759	13	7.01381e-06
2	0	0	1	0	72.6199	-0.115303	-0.115125	-0.0563014	3	-0.00248435	13	6.48168e-06
2	0	0	1	0	72.7399	-0.103299	-0.103095	-0.0510319	3	-0.00249063	13	5.26114e-06
2	0	0	1	0	72.8599	-0.0912953	-0.0911448	-0.0520746	3	-0.00249683	13	4.74633e-06
2	0	0	1	0	72.9789	-0.0793915	-0.0792369	-0.0487758	3	-0.00250273	13	3.86484e-06
2	0	0	0	0	72.9828	-0.0789413	-0.0787363	-0.0490991	3	-0.00250293	13	3.86588e-06