File: Lares Oxides/2024-6-18 Ni33Co33Fe33Ox on FTO_1_07mg_02_CV_C05.mpt
EC-Lab ASCII FILE
Nb header lines : 59

Cyclic Voltammetry

Run on channel : 5 (SN 39658)
User :
CE vs. WE compliance from -10 V to 10 V
Electrode connection : standard
Potential control : Ewe
Ewe ctrl range : min = -2.50 V, max = 2.50 V
Safety Limits :
	Do not start on E overload
Acquisition started on : 06/18/2024 16:38:11.272
Technique started on : 06/18/2024 16:38:37.557
Loaded Setting File :  NONE
Saved on :
	File : 2024-6-18 Ni33Co33Fe33Ox on FTO_1_07mg_02_CV_C05.mpr
	Directory : C:\Users\sfolkman\OneDrive - New Mexico State University\Folkman Group Folder\Scott\
	Host : 172.24.124.15
Device : VSP (SN 1910)
Address : USB
EC-Lab for windows v11.46 (software)
Internet server v11.40 (firmware)
Command interpretor v11.40 (firmware)
Electrode material :
Initial state :
Electrolyte :
Comments :
Current amplifier : VSPB-4A
Electrode surface area : 0.001 cm²
Characteristic mass : 0.001 g
Equivalent Weight : 0.000 g/eq.
Density : 0.000 g/cm3
Volume (V) : 0.001 cm³
Cycle Definition : Charge/Discharge alternance
Ei (V)              0.000
vs.                 Eoc
dE/dt               10.000
dE/dt unit          mV/s
E1 (V)              1.000
vs.                 Ref
Step percent        50
N                   10
E range min (V)     -2.500
E range max (V)     2.500
I Range             Auto
I Range min         Unset
I Range max         Unset
I Range init        Unset
Bandwidth           4
E2 (V)              0.000
vs.                 Ref
nc cycles           2
Reverse Scan        1
Ef (V)              0.000
vs.                 Eoc

mode	ox/red	error	control changes	counter inc.	time/s	control/V	Ewe/V	<I>/mA	cycle number	(Q-Qo)/C	I Range	P/W
2	1	0	1	0	26.2848	-0.0593985	-0.0600759	0.00407428	1	0.0000000E+000	13	-2.44766e-07
2	1	0	0	0	27.14	-0.0508459	-0.0506912	2.26906e-05	1	6.30472e-08	13	-1.15021e-09
2	1	0	1	0	28.0402	-0.0418431	-0.0412172	6.90623e-05	1	1.56929e-07	13	-2.84655e-09
2	1	0	1	0	28.9406	-0.0328403	-0.0324551	0.000101761	1	2.63692e-07	13	-3.30266e-09
2	1	0	0	0	29.8408	-0.0238375	-0.0235868	0.000121029	1	3.82497e-07	13	-2.8547e-09
2	1	0	1	0	30.741	-0.0148347	-0.0144438	0.000158036	1	5.1404e-07	13	-2.28265e-09
2	1	0	1	0	31.6414	-0.00583192	-0.00533797	0.000180783	1	6.60079e-07	13	-9.65013e-10
2	1	0	0	0	32.5416	0.00317087	0.00378912	0.000184533	1	8.22311e-07	13	6.99219e-10
2	1	0	0	0	33.442	0.0121737	0.0122839	0.00016701	1	1.00232e-06	13	2.05153e-09
2	1	0	1	0	34.3422	0.0211764	0.0217239	0.000163834	1	1.20207e-06	13	3.55912e-09
2	1	0	0	0	35.2424	0.0301792	0.0308171	0.000142848	1	1.42517e-06	13	4.40216e-09
2	1	0	0	0	36.1428	0.039182	0.0396057	0.000100855	1	1.67548e-06	13	3.99443e-09
2	1	0	1	0	37.043	0.0481848	0.0484644	0.000108312	1	1.95576e-06	13	5.24928e-09
2	1	0	1	0	37.9434	0.0571876	0.0574217	7.0232e-05	1	2.27086e-06	13	4.03284e-09
2	1	0	0	0	38.8436	0.0661904	0.0665435	0.000149637	1	2.62709e-06	13	9.9574e-09
2	1	0	1	0	39.7438	0.0751932	0.075887	0.000217437	1	3.0301e-06	13	1.65006e-08
2	1	0	1	0	40.6442	0.084196	0.0845568	0.000363144	1	3.48844e-06	13	3.07063e-08
2	1	0	0	0	41.5444	0.0931988	0.0935577	0.000466634	1	4.01235e-06	13	4.36572e-08
2	1	0	1	0	42.4447	0.102201	0.102547	0.000595172	1	4.61511e-06	13	6.10332e-08
2	1	0	1	0	43.345	0.111204	0.111813	0.00073603	1	5.31566e-06	13	8.22977e-08
2	1	0	0	0	44.2452	0.120207	0.12045	0.000865711	1	6.14052e-06	13	1.04275e-07
2	1	0	0	0	45.1456	0.12921	0.129826	0.00102901	1	7.12945e-06	13	1.33592e-07
2	1	0	1	0	46.0458	0.138213	0.138462	0.00128325	1	8.34189e-06	13	1.77682e-07
2	1	0	1	0	46.9461	0.147215	0.147512	0.00167454	1	9.87421e-06	13	2.47014e-07
2	1	0	0	0	47.8464	0.156218	0.156635	0.0022957	1	1.1887e-05	13	3.59586e-07
2	1	0	1	0	48.7466	0.165221	0.165388	0.0033043	1	1.46422e-05	13	5.46492e-07
2	1	0	1	0	49.647	0.174224	0.174572	0.00482963	1	1.85349e-05	13	8.43115e-07
2	1	0	0	0	50.5472	0.183227	0.183747	0.00680243	1	2.40239e-05	13	1.24993e-06
2	1	0	1	0	51.4475	0.192229	0.192797	0.00898683	1	3.14491e-05	13	1.73263e-06
2	1	0	1	0	52.3478	0.201232	0.201732	0.0109923	1	4.08717e-05	13	2.2175e-06
2	1	0	0	0	53.248	0.210235	0.21043	0.0126316	1	5.20799e-05	13	2.65805e-06
2	1	0	0	0	54.1484	0.219238	0.219603	0.0138982	1	6.47325e-05	13	3.05209e-06
2	1	0	1	0	55.0486	0.228241	0.228895	0.0148882	1	7.8467e-05	13	3.40782e-06
2	1	0	1	0	55.9789	0.237543	0.237579	0.0149819	1	9.35511e-05	12	3.55939e-06
2	1	0	0	0	56.8792	0.246546	0.24693	0.0156274	1	0.000108517	12	3.85888e-06
2	1	0	1	0	57.7794	0.255549	0.25602	0.0159955	1	0.000123865	12	4.09518e-06
2	1	0	1	0	58.6798	0.264552	0.265071	0.0165533	1	0.000139483	12	4.3878e-06
2	1	0	0	0	59.58	0.273555	0.273916	0.0169797	1	0.000155291	12	4.651e-06
2	1	0	1	0	60.4803	0.282557	0.283076	0.0172131	1	0.000171248	12	4.87263e-06
2	1	0	1	0	61.3806	0.29156	0.291434	0.0172392	1	0.000187307	12	5.02408e-06
2	1	0	0	0	62.2808	0.300563	0.301151	0.0173475	1	0.000203455	12	5.22421e-06
2	1	0	0	0	63.1812	0.309566	0.309734	0.0171615	1	0.000219671	12	5.31548e-06
2	1	0	1	0	64.0814	0.318569	0.319159	0.0169851	1	0.000235962	12	5.42093e-06
2	1	0	1	0	64.9817	0.327571	0.327848	0.0170262	1	0.000252351	12	5.58199e-06
2	1	0	0	0	65.882	0.336574	0.336767	0.0173095	1	0.000268879	12	5.82928e-06
2	1	0	1	0	66.7822	0.345577	0.345785	0.0177708	1	0.000285578	12	6.14486e-06
2	1	0	1	0	67.6826	0.35458	0.354972	0.0185196	1	0.000302505	12	6.57395e-06
2	1	0	0	0	68.5828	0.363583	0.364126	0.0192088	1	0.000319715	12	6.99443e-06
2	1	0	1	0	69.4831	0.372586	0.373279	0.0197545	1	0.000337281	12	7.37392e-06
2	0	0	1	0	70.3834	0.381588	0.382272	0.020304	1	0.000355267	12	7.76166e-06
2	0	0	0	0	71.2836	0.390591	0.390801	0.0208092	1	0.00037372	12	8.13225e-06
2	0	0	0	0	72.184	0.399594	0.400043	0.0211541	1	0.000392718	12	8.46254e-06
2	0	0	1	0	73.0842	0.408596	0.408961	0.0220645	1	0.000412336	12	9.02352e-06
2	0	0	1	0	73.9845	0.4176	0.418012	0.0228964	1	0.000432654	12	9.57095e-06
2	0	0	0	0	74.8848	0.426602	0.427193	0.0243056	1	0.000453771	12	1.03832e-05
2	0	0	1	0	75.785	0.435605	0.435794	0.0257599	1	0.000475822	12	1.1226e-05
2	0	0	1	0	76.6854	0.444608	0.445073	0.0271451	1	0.000498929	12	1.20815e-05
2	0	0	0	0	77.5856	0.45361	0.454061	0.0287561	1	0.000523258	12	1.3057e-05
2	0	0	1	0	78.4859	0.462614	0.463241	0.0303019	1	0.000549019	12	1.40371e-05
2	0	0	1	0	79.3862	0.471616	0.472098	0.0320254	1	0.000576402	12	1.51191e-05
2	0	0	0	0	80.2864	0.480619	0.481283	0.0340134	1	0.000605683	12	1.63701e-05
2	0	0	0	0	81.1868	0.489622	0.489972	0.0364421	1	0.000637139	12	1.78556e-05
2	0	0	1	0	82.087	0.498624	0.49934	0.0392636	1	0.000671034	12	1.96059e-05
2	0	0	0	0	82.9872	0.507627	0.507867	0.0424183	1	0.000707627	12	2.15428e-05
2	0	0	0	0	83.8876	0.51663	0.516231	0.0459671	1	0.000747192	12	2.37297e-05
2	0	0	1	0	84.7878	0.525633	0.526307	0.0498894	1	0.00079002	12	2.62572e-05
2	0	0	1	0	85.6882	0.534635	0.535063	0.0537734	1	0.000836384	12	2.87722e-05
2	1	0	0	0	86.5884	0.543638	0.544063	0.0579996	1	0.000886622	12	3.15554e-05
2	1	0	1	0	87.4886	0.552641	0.553033	0.0626322	1	0.000941125	12	3.46377e-05
2	1	0	1	0	88.389	0.561644	0.562083	0.0675225	1	0.00100039	12	3.79532e-05
2	1	0	0	0	89.2892	0.570647	0.571082	0.0738972	1	0.00106504	12	4.22014e-05
2	1	0	0	0	90.1896	0.579649	0.579998	0.0811673	1	0.00113612	12	4.70769e-05
2	1	0	1	0	91.0898	0.588652	0.588908	0.0910183	1	0.00121509	12	5.36014e-05
2	1	0	0	0	91.99	0.597655	0.598015	0.104111	1	0.00130426	12	6.22599e-05
2	1	0	0	0	92.8904	0.606658	0.606987	0.12181	1	0.00140727	12	7.39374e-05
2	1	0	1	0	93.7906	0.615661	0.616127	0.147569	1	0.00152957	12	9.09211e-05
2	1	0	1	0	94.6909	0.624662	0.625266	0.184023	1	0.00167955	12	0.000115063
2	1	0	0	0	95.5912	0.633666	0.634022	0.236875	1	0.00186961	12	0.000150184
2	1	0	1	0	96.4914	0.642669	0.643155	0.312396	1	0.00211721	12	0.000200919
2	1	0	1	0	97.3918	0.651672	0.652043	0.4164	1	0.00244541	12	0.000271511
2	1	0	0	0	98.292	0.660675	0.661013	0.554483	1	0.00288247	12	0.000366521
2	1	0	1	0	99.1923	0.669676	0.670142	0.729925	1	0.00346112	12	0.000489153
2	1	0	1	0	100.093	0.67868	0.678925	0.944652	1	0.0042157	12	0.000641348
2	1	0	0	0	101.023	0.687983	0.688561	1.20611	1	0.00521818	11	0.000830479
2	1	0	0	0	101.923	0.696986	0.69738	1.49309	1	0.00643356	11	0.00104125
2	1	0	1	0	102.823	0.705989	0.706525	1.81165	1	0.00792157	11	0.00127998
2	1	0	1	0	103.724	0.714991	0.715363	2.15603	1	0.00970825	11	0.00154234
2	1	0	0	0	104.624	0.723994	0.724369	2.52321	1	0.0118151	11	0.00182773
2	1	0	1	0	105.524	0.732997	0.733705	2.90981	1	0.0142621	11	0.00213495
2	1	0	1	0	106.425	0.742	0.742471	3.31392	1	0.0170659	11	0.00246049
2	1	0	0	0	107.325	0.751003	0.751649	3.73209	1	0.0202394	11	0.00280522
2	1	0	1	0	108.225	0.760005	0.760628	4.1623	1	0.0237957	11	0.00316596
2	1	0	1	0	109.125	0.769008	0.769688	4.60316	1	0.0277443	11	0.00354299
2	1	0	0	0	110.026	0.778011	0.778679	5.05241	1	0.0320933	11	0.00393421
2	1	0	0	0	110.926	0.787014	0.787425	5.50949	1	0.0368518	11	0.00433831
2	1	0	1	0	111.826	0.796016	0.796351	5.97445	1	0.0420244	11	0.00475776
2	1	0	1	0	112.726	0.805019	0.805725	6.44447	1	0.0476183	11	0.00519247
2	1	0	0	0	113.627	0.814022	0.814591	6.92101	1	0.0536384	11	0.00563779
2	1	0	1	0	114.527	0.823025	0.823332	7.40139	1	0.0600895	11	0.0060938
2	1	0	1	0	115.427	0.832028	0.832522	7.8883	1	0.0669774	11	0.00656718
2	1	0	0	0	116.328	0.84103	0.841504	8.37771	1	0.0743026	11	0.00704988
2	1	0	1	0	117.228	0.850033	0.850466	8.8703	1	0.0820709	11	0.00754389
2	1	0	1	0	118.128	0.859036	0.859661	9.36769	1	0.0902849	11	0.00805304
2	1	0	0	0	119.028	0.868039	0.868561	9.86604	1	0.098946	11	0.00856925
2	1	0	0	0	119.929	0.877042	0.877582	10.3675	1	0.108059	11	0.00909834
2	1	0	1	0	120.844	0.886194	0.886563	10.8797	1	0.117789	11	0.00964557
2	1	0	1	0	121.759	0.895346	0.896064	11.3902	1	0.127982	10	0.0102064
2	1	0	0	0	122.66	0.90435	0.904843	11.897	1	0.138467	10	0.0107649
2	1	0	1	0	123.56	0.913353	0.913911	12.4062	1	0.14941	10	0.0113381
2	1	0	1	0	124.46	0.922356	0.922736	12.9176	1	0.160814	10	0.0119195
2	1	0	0	0	125.36	0.931358	0.931894	13.4315	1	0.172677	10	0.0125167
2	1	0	1	0	126.261	0.940361	0.941071	13.9449	1	0.185005	10	0.0131231
2	1	0	1	0	127.161	0.949364	0.949872	14.4613	1	0.197798	10	0.0137364
2	1	0	0	0	128.061	0.958367	0.958648	14.9759	1	0.211051	10	0.0143566
2	1	0	0	0	128.962	0.967369	0.967985	15.4942	1	0.224773	10	0.0149982
2	1	0	1	0	129.862	0.976372	0.976783	16.0088	1	0.238956	10	0.0156371
2	1	0	1	0	130.762	0.985375	0.985867	16.5274	1	0.253605	10	0.0162938
2	1	0	0	0	131.662	0.994378	0.994946	17.0435	1	0.268721	10	0.0169574
2	1	0	1	0	132.383	0.998479	0.998932	17.2862	1	0.281144	10	0.0172678
2	1	0	1	0	133.283	0.989476	0.990084	16.76	1	0.296466	10	0.0165938
2	1	0	0	0	134.184	0.980474	0.98098	16.2414	1	0.311315	10	0.0159325
2	1	0	0	0	135.084	0.971471	0.971998	15.724	1	0.325702	10	0.0152837
2	1	0	1	0	135.984	0.962468	0.962908	15.205	1	0.339618	10	0.014641
2	1	0	1	0	136.884	0.953464	0.953956	14.6914	1	0.353072	10	0.014015
2	1	0	0	0	137.785	0.944463	0.944845	14.18	1	0.366064	10	0.0133979
2	1	0	1	0	138.685	0.93546	0.936243	13.6717	1	0.378596	10	0.0128001
2	1	0	1	0	139.585	0.926457	0.927004	13.1639	1	0.390672	10	0.012203
2	1	0	0	0	140.486	0.917454	0.917986	12.6598	1	0.402291	10	0.0116216
2	1	0	1	0	141.386	0.90845	0.908713	12.1591	1	0.413459	10	0.0110492
2	1	0	1	0	142.286	0.899449	0.900141	11.6582	1	0.424176	10	0.0104941
2	1	0	0	0	143.186	0.890446	0.890589	11.1618	1	0.434443	10	0.00994062
2	1	0	0	0	144.087	0.881443	0.88202	10.6716	1	0.444268	10	0.00941256
2	1	0	1	0	144.987	0.87244	0.872528	10.1813	1	0.453649	10	0.00888344
2	1	0	0	0	145.887	0.863437	0.863666	9.69236	1	0.46259	10	0.00837096
2	1	0	0	0	146.788	0.854434	0.854979	9.20874	1	0.471095	10	0.00787328
2	1	0	1	0	147.688	0.845432	0.846013	8.7296	1	0.479165	10	0.00738536
2	1	0	1	0	148.588	0.836429	0.836976	8.2552	1	0.486808	10	0.00690941
2	1	0	0	0	149.488	0.827426	0.828013	7.78444	1	0.494024	10	0.00644562
2	1	0	1	0	150.389	0.818423	0.818938	7.31653	1	0.500816	10	0.00599179
2	1	0	1	0	151.289	0.809421	0.80984	6.855	1	0.507192	10	0.00555145
2	1	0	0	0	152.189	0.800418	0.800782	6.40002	1	0.513155	10	0.00512502
2	1	0	0	0	153.09	0.791415	0.791921	5.95125	1	0.518711	10	0.00471292
2	1	0	1	0	153.99	0.782412	0.782832	5.50763	1	0.523863	10	0.00431155
2	1	0	0	0	154.89	0.773409	0.773896	5.07103	1	0.52862	10	0.00392445
2	1	0	0	0	155.79	0.764407	0.764831	4.64401	1	0.532989	10	0.00355188
2	1	0	1	0	156.721	0.755104	0.755364	4.22279	1	0.537109	11	0.00318974
2	1	0	1	0	157.621	0.746101	0.746524	3.81418	1	0.540722	11	0.00284738
2	1	0	0	0	158.521	0.737098	0.737521	3.41808	1	0.543974	11	0.00252091
2	1	0	1	0	159.421	0.728095	0.728518	3.03506	1	0.546873	11	0.0022111
2	1	0	1	0	160.322	0.719093	0.719644	2.66491	1	0.549434	11	0.00191779
2	1	0	0	0	161.222	0.71009	0.710724	2.3112	1	0.551669	11	0.00164263
2	1	0	0	0	162.122	0.701087	0.701395	1.97685	1	0.553595	11	0.00138655
2	1	0	1	0	163.023	0.692084	0.692547	1.66268	1	0.555227	11	0.00115148
2	1	0	0	0	163.923	0.683082	0.683533	1.37126	1	0.556587	11	0.000937304
2	1	0	0	0	164.823	0.674079	0.67439	1.10738	1	0.557697	11	0.00074681
2	1	0	1	0	165.723	0.665076	0.665424	0.872109	1	0.558581	11	0.000580322
2	1	0	1	0	166.624	0.656073	0.656538	0.667421	1	0.559267	11	0.000438187
2	1	0	0	0	167.524	0.64707	0.647519	0.495173	1	0.559784	11	0.000320634
2	1	0	1	0	168.454	0.637767	0.638368	0.349439	1	0.560172	12	0.000223071
2	1	0	1	0	169.355	0.628765	0.629383	0.240806	1	0.560434	12	0.000151559
2	1	0	0	0	170.255	0.619762	0.620076	0.158046	1	0.56061	12	9.80007e-05
2	1	0	0	0	171.155	0.610759	0.611366	0.098055	1	0.560723	12	5.99474e-05
2	1	0	1	0	172.055	0.601756	0.602155	0.0553333	1	0.560789	12	3.33192e-05
2	1	0	0	0	172.956	0.592753	0.593207	0.0256516	1	0.560824	12	1.52167e-05
2	1	0	0	0	173.856	0.583751	0.584185	0.00595388	1	0.560836	12	3.47817e-06
2	1	0	1	0	174.756	0.574748	0.575351	-0.0073899	1	0.560834	12	-4.25179e-06
2	1	0	1	0	175.657	0.565745	0.566434	-0.0159924	1	0.560821	12	-9.05862e-06
2	0	0	0	0	176.557	0.556742	0.557125	-0.0219258	1	0.560802	12	-1.22154e-05
2	0	0	1	0	177.457	0.54774	0.548172	-0.0257119	1	0.560779	12	-1.40945e-05
2	0	0	1	0	178.357	0.538737	0.539194	-0.0276574	1	0.560753	12	-1.49127e-05
2	0	0	0	0	179.258	0.529734	0.530165	-0.0289778	1	0.560726	12	-1.5363e-05
2	0	0	1	0	180.158	0.520732	0.521177	-0.0295174	1	0.560698	12	-1.53838e-05
2	0	0	1	0	181.058	0.511728	0.511969	-0.0292324	1	0.56067	12	-1.49661e-05
2	0	0	0	0	181.958	0.502726	0.503166	-0.0290084	1	0.560642	12	-1.4596e-05
2	0	0	0	0	182.859	0.493723	0.494374	-0.0285968	1	0.560615	12	-1.41375e-05
2	0	0	1	0	183.759	0.48472	0.485615	-0.0277161	1	0.560588	12	-1.34594e-05
2	0	0	1	0	184.659	0.475718	0.476088	-0.026811	1	0.560561	12	-1.27644e-05
2	0	0	0	0	185.56	0.466714	0.466866	-0.0259868	1	0.560536	12	-1.21324e-05
2	0	0	1	0	186.46	0.457712	0.457922	-0.0250208	1	0.560511	12	-1.14576e-05
2	0	0	1	0	187.36	0.448709	0.449167	-0.0238246	1	0.560487	12	-1.07012e-05
2	0	0	0	0	188.26	0.439706	0.440117	-0.0227483	1	0.560464	12	-1.00119e-05
2	0	0	1	0	189.161	0.430703	0.431204	-0.0216848	1	0.560442	12	-9.35057e-06
2	0	0	1	0	190.061	0.4217	0.42251	-0.0206025	1	0.560421	12	-8.70477e-06
2	0	0	0	0	190.961	0.412698	0.413084	-0.0196802	1	0.560401	12	-8.12959e-06
2	0	0	0	0	191.862	0.403695	0.403746	-0.0185749	1	0.560381	12	-7.49953e-06
2	0	0	1	0	192.762	0.394692	0.394933	-0.0176265	1	0.560363	12	-6.96127e-06
2	0	0	1	0	193.662	0.385689	0.386083	-0.0166421	1	0.560345	12	-6.42524e-06
2	0	0	0	0	194.562	0.376687	0.37679	-0.015547	1	0.560327	12	-5.85794e-06
2	0	0	1	0	195.463	0.367684	0.368143	-0.014801	1	0.56031	12	-5.44886e-06
2	0	0	1	0	196.363	0.358681	0.358871	-0.0141909	1	0.560294	12	-5.0927e-06
2	0	0	0	0	197.263	0.349678	0.349855	-0.0132955	1	0.560278	12	-4.65151e-06
2	0	0	1	0	198.163	0.340675	0.341272	-0.012777	1	0.560264	12	-4.36043e-06
2	0	0	1	0	199.064	0.331673	0.332196	-0.0124468	1	0.560249	12	-4.13478e-06
2	0	0	0	0	199.964	0.32267	0.323435	-0.0121935	1	0.560235	12	-3.94381e-06
2	0	0	0	0	200.864	0.313667	0.314047	-0.0119389	1	0.560222	12	-3.74938e-06
2	0	0	1	0	201.765	0.304664	0.304887	-0.0115605	1	0.560209	12	-3.52466e-06
2	0	0	1	0	202.665	0.295661	0.296117	-0.0111213	1	0.560197	12	-3.29319e-06
2	0	0	0	0	203.565	0.286659	0.287146	-0.0107014	1	0.560185	12	-3.07286e-06
2	0	0	1	0	204.465	0.277656	0.277922	-0.0101784	1	0.560173	12	-2.8288e-06
2	0	0	1	0	205.366	0.268653	0.269236	-0.00992216	1	0.560162	12	-2.6714e-06
2	0	0	0	0	206.266	0.25965	0.260179	-0.00963839	1	0.560151	12	-2.50771e-06
2	0	0	1	0	207.166	0.250648	0.251294	-0.00952755	1	0.56014	12	-2.39422e-06
2	0	0	1	0	208.067	0.241645	0.242136	-0.00966263	1	0.56013	12	-2.33967e-06
2	0	0	0	0	208.967	0.232642	0.233265	-0.00982979	1	0.56012	12	-2.29294e-06
2	0	0	0	0	209.867	0.223639	0.223846	-0.0101416	1	0.56011	12	-2.27017e-06
2	0	0	1	0	210.767	0.214636	0.215005	-0.0103246	1	0.5601	12	-2.21984e-06
2	0	0	0	0	211.668	0.205634	0.205738	-0.0104928	1	0.56009	12	-2.15876e-06
2	1	0	0	0	212.568	0.196631	0.197171	-0.0106343	1	0.560081	12	-2.09678e-06
2	1	0	1	0	213.468	0.187628	0.188046	-0.0109515	1	0.560071	12	-2.05939e-06
2	1	0	1	0	214.369	0.178625	0.179259	-0.0116684	1	0.56006	12	-2.09166e-06
2	1	0	0	0	215.269	0.169622	0.169897	-0.0126722	1	0.560049	12	-2.15297e-06
2	1	0	1	0	216.169	0.16062	0.161307	-0.0145342	1	0.560036	12	-2.34447e-06
2	1	0	1	0	217.069	0.151617	0.152102	-0.017115	1	0.560022	12	-2.60323e-06
2	1	0	0	0	217.97	0.142614	0.143039	-0.0204878	1	0.560006	12	-2.93055e-06
2	1	0	0	0	218.87	0.133611	0.133532	-0.0240116	1	0.559986	12	-3.20631e-06
2	1	0	1	0	219.77	0.124608	0.125571	-0.0249567	1	0.559965	12	-3.13384e-06
2	1	0	0	0	220.67	0.115606	0.116423	-0.021575	1	0.559944	12	-2.51182e-06
2	1	0	0	0	221.571	0.106603	0.107072	-0.0171009	1	0.559928	12	-1.83102e-06
2	1	0	1	0	222.471	0.0976001	0.0977929	-0.0156909	1	0.559914	12	-1.53446e-06
2	1	0	1	0	223.371	0.0885973	0.0890382	-0.0156933	1	0.5599	12	-1.3973e-06
2	1	0	0	0	224.272	0.0795945	0.080136	-0.0163413	1	0.559886	12	-1.30953e-06
2	1	0	1	0	225.172	0.0705918	0.0711224	-0.0173628	1	0.559871	12	-1.23489e-06
2	1	0	1	0	226.072	0.061589	0.0620908	-0.0182274	1	0.559855	12	-1.13175e-06
2	1	0	0	0	226.972	0.0525862	0.0529775	-0.0192	1	0.559838	12	-1.01717e-06
2	0	0	1	0	227.873	0.0435841	0.0437697	-0.0197289	1	0.559821	12	-8.63529e-07
2	0	0	1	0	228.773	0.0345806	0.0348825	-0.0199069	1	0.559803	12	-6.94401e-07
2	0	0	0	0	229.673	0.0255778	0.0259273	-0.0197536	1	0.559784	12	-5.12159e-07
2	1	0	0	0	230.574	0.016575	0.0167981	-0.0192752	1	0.559767	12	-3.23787e-07
2	1	0	1	0	231.474	0.00757223	0.00762434	-0.0188405	1	0.559749	12	-1.43646e-07
2	0	0	1	1	232.285	0.000570063	0.00137128	-0.0165376	2	0.559734	13	-2.26778e-08
2	0	0	0	1	233.185	0.00957285	0.0101419	-0.0113842	2	0.559722	13	-1.15458e-07
2	0	0	0	1	234.085	0.0185756	0.0191724	-0.00906991	2	0.559713	13	-1.73892e-07
2	0	0	1	1	234.985	0.0275784	0.0279696	-0.00740752	2	0.559706	13	-2.07185e-07
2	0	0	0	1	235.886	0.0365812	0.0370829	-0.0061066	2	0.5597	13	-2.2645e-07
2	0	0	0	1	236.786	0.045584	0.0463118	-0.0050246	2	0.559695	13	-2.32698e-07
2	0	0	1	1	237.716	0.0548869	0.0554092	-0.00372205	2	0.559691	12	-2.06236e-07
2	0	0	1	1	238.617	0.0638897	0.0636705	-0.00290377	2	0.559688	12	-1.84885e-07
2	0	0	0	1	239.517	0.0728925	0.0733047	-0.00213237	2	0.559686	12	-1.56313e-07
2	0	0	1	1	240.417	0.0818952	0.0821348	-0.00147786	2	0.559684	12	-1.21384e-07
2	0	0	1	1	241.317	0.090898	0.0911897	-0.000978522	2	0.559682	12	-8.92311e-08
2	0	0	0	1	242.218	0.0999008	0.100459	-0.000203838	2	0.559682	12	-2.04773e-08
2	0	0	0	1	243.118	0.108904	0.109441	0.000803272	2	0.559682	12	8.79107e-08
2	0	0	1	1	244.018	0.117906	0.118479	0.00316276	2	0.559683	12	3.74719e-07
2	0	0	0	1	244.918	0.126909	0.12733	0.00515587	2	0.559686	12	6.56496e-07
2	0	0	0	1	245.819	0.135912	0.136288	0.00555679	2	0.55969	12	7.57325e-07
2	0	0	1	1	246.719	0.144915	0.145227	0.00534244	2	0.559695	12	7.75864e-07
2	0	0	1	1	247.619	0.153918	0.15502	0.00473771	2	0.559699	12	7.34439e-07
2	0	0	0	1	248.52	0.16292	0.163475	0.0040985	2	0.559703	12	6.70005e-07
2	0	0	1	1	249.42	0.171923	0.172265	0.00382997	2	0.559706	12	6.5977e-07
2	0	0	1	1	250.32	0.180926	0.180865	0.00356813	2	0.55971	12	6.45349e-07
2	0	0	0	1	251.22	0.189929	0.19034	0.00348241	2	0.559713	12	6.62842e-07
2	0	0	1	1	252.121	0.198931	0.199561	0.00337974	2	0.559716	12	6.74464e-07
2	0	0	1	1	253.021	0.207934	0.208525	0.00319498	2	0.55972	12	6.66234e-07
2	0	0	0	1	253.921	0.216937	0.217447	0.0032031	2	0.559723	12	6.96506e-07
2	0	0	0	1	254.822	0.22594	0.226107	0.00333288	2	0.559727	12	7.53586e-07
2	0	0	1	1	255.722	0.234943	0.235152	0.00343421	2	0.55973	12	8.07563e-07
2	0	0	1	1	256.622	0.243945	0.244424	0.00352203	2	0.559734	12	8.60869e-07
2	0	0	0	1	257.522	0.252948	0.253528	0.0037104	2	0.559738	12	9.4069e-07
2	0	0	1	1	258.423	0.261951	0.262273	0.00392836	2	0.559742	12	1.03031e-06
2	0	0	1	1	259.323	0.270954	0.271226	0.00429351	2	0.559746	12	1.16451e-06
2	0	0	0	1	260.223	0.279957	0.280103	0.00457599	2	0.55975	12	1.28175e-06
2	0	0	1	1	261.123	0.288959	0.289587	0.00488378	2	0.559755	12	1.41428e-06
2	0	0	1	1	262.024	0.297962	0.298554	0.00519723	2	0.55976	12	1.55165e-06
2	0	0	0	1	262.924	0.306965	0.307595	0.00560747	2	0.559765	12	1.72483e-06
2	0	0	0	1	263.824	0.315968	0.316408	0.00582245	2	0.559771	12	1.84227e-06
2	0	0	1	1	264.725	0.324971	0.325872	0.00626364	2	0.559777	12	2.04115e-06
2	0	0	1	1	265.625	0.333973	0.33496	0.00676013	2	0.559783	12	2.26437e-06
2	0	0	0	1	266.525	0.342976	0.343153	0.00732431	2	0.55979	12	2.51336e-06
2	0	0	1	1	267.425	0.351979	0.352703	0.00793264	2	0.559797	12	2.79787e-06
2	0	0	1	1	268.326	0.360982	0.361578	0.0085526	2	0.559805	12	3.09243e-06
2	0	0	0	1	269.226	0.369984	0.370691	0.00934428	2	0.559814	12	3.46384e-06
2	0	0	1	1	270.126	0.378987	0.379646	0.0102291	2	0.559823	12	3.88344e-06
2	0	0	1	1	271.027	0.38799	0.387897	0.0111493	2	0.559833	12	4.3248e-06
2	0	0	0	1	271.927	0.396993	0.39813	0.0121923	2	0.559844	12	4.85411e-06
2	0	0	0	1	272.827	0.405996	0.406718	0.0133945	2	0.559856	12	5.44777e-06
2	0	0	1	1	273.727	0.414998	0.415369	0.01469	2	0.559868	12	6.10176e-06
2	0	0	1	1	274.628	0.424002	0.42442	0.0161192	2	0.559882	12	6.84131e-06
2	0	0	0	1	275.528	0.433004	0.433355	0.0176681	2	0.559898	12	7.65655e-06
2	0	0	1	1	276.428	0.442007	0.44276	0.0193746	2	0.559914	12	8.5783e-06
2	0	0	1	1	277.329	0.45101	0.451367	0.0212968	2	0.559933	12	9.6127e-06
2	0	0	0	1	278.229	0.460012	0.46054	0.0235099	2	0.559952	12	1.08273e-05
2	0	0	1	1	279.129	0.469016	0.469502	0.0257347	2	0.559974	12	1.20825e-05
2	0	0	1	1	280.029	0.478018	0.478665	0.0283418	2	0.559999	12	1.35662e-05
2	0	0	0	1	280.93	0.487021	0.487702	0.0311854	2	0.560025	12	1.52091e-05
2	0	0	0	1	281.83	0.496024	0.496554	0.0341761	2	0.560054	12	1.69703e-05
2	0	0	1	1	282.73	0.505026	0.505719	0.0375059	2	0.560086	12	1.89675e-05
2	0	0	0	1	283.63	0.514029	0.514657	0.0410679	2	0.560121	12	2.11359e-05
2	0	0	0	1	284.531	0.523032	0.523665	0.0449038	2	0.56016	12	2.35146e-05
2	0	0	1	1	285.431	0.532035	0.532528	0.0492225	2	0.560202	12	2.62124e-05
2	1	0	1	1	286.331	0.541037	0.541712	0.0533001	2	0.560248	12	2.88733e-05
2	1	0	0	1	287.232	0.55004	0.550696	0.0583993	2	0.560299	12	3.21603e-05
2	1	0	1	1	288.132	0.559043	0.559197	0.0642081	2	0.560354	12	3.5905e-05
2	1	0	1	1	289.032	0.568046	0.568801	0.0702948	2	0.560416	12	3.99838e-05
2	1	0	0	1	289.932	0.577049	0.577636	0.0782655	2	0.560483	12	4.52089e-05
2	1	0	0	1	290.833	0.586051	0.586519	0.0879401	2	0.560559	12	5.15785e-05
2	1	0	1	1	291.733	0.595054	0.595021	0.101171	2	0.560645	12	6.01991e-05
2	1	0	0	1	292.633	0.604057	0.604644	0.11923	2	0.560745	12	7.20914e-05
2	1	0	0	1	293.534	0.61306	0.613812	0.145254	2	0.560865	12	8.91585e-05
2	1	0	1	1	294.434	0.622063	0.622767	0.183285	2	0.561014	12	0.000114144
2	1	0	1	1	295.334	0.631064	0.631588	0.238378	2	0.561204	12	0.000150557
2	1	0	0	1	296.234	0.640068	0.640539	0.31718	2	0.561453	12	0.000203166
2	1	0	1	1	297.135	0.649071	0.64983	0.425567	2	0.561787	12	0.000276546
2	1	0	1	1	298.035	0.658074	0.658346	0.567878	2	0.562233	12	0.00037386
2	1	0	0	1	298.935	0.667077	0.667273	0.748117	2	0.562825	12	0.000499198
2	1	0	1	1	299.835	0.676079	0.676346	0.966105	2	0.563596	12	0.000653421
2	1	0	1	1	300.766	0.685382	0.685832	1.23092	2	0.564618	11	0.000844202
2	1	0	0	1	301.666	0.694385	0.694626	1.52114	2	0.565855	11	0.00105662
2	1	0	0	1	302.566	0.703388	0.703846	1.84255	2	0.567367	11	0.00129687
2	1	0	1	1	303.467	0.712391	0.712799	2.19058	2	0.569181	11	0.00156144
2	1	0	1	1	304.367	0.721392	0.72181	2.56129	2	0.57132	11	0.00184877
2	1	0	0	1	305.267	0.730396	0.730951	2.95318	2	0.573801	11	0.00215863
2	1	0	1	1	306.167	0.739399	0.73982	3.36427	2	0.576644	11	0.00248896
2	1	0	1	1	307.068	0.748402	0.748743	3.78602	2	0.579862	11	0.00283476
2	1	0	0	1	307.968	0.757405	0.757807	4.22359	2	0.583467	11	0.00320067
2	1	0	1	1	308.868	0.766407	0.767141	4.67101	2	0.587471	11	0.00358333
2	1	0	1	1	309.769	0.77541	0.775753	5.12731	2	0.591882	11	0.00397752
2	1	0	0	1	310.669	0.784413	0.784835	5.59282	2	0.596708	11	0.00438944
2	1	0	0	1	311.569	0.793416	0.793925	6.06591	2	0.601957	11	0.00481588
2	1	0	1	1	312.469	0.802419	0.802674	6.544	2	0.607633	11	0.0052527
2	1	0	1	1	313.37	0.811421	0.811933	7.02774	2	0.613743	11	0.00570606
2	1	0	0	1	314.27	0.820424	0.82084	7.51612	2	0.620289	11	0.00616953
2	1	0	1	1	315.17	0.829427	0.829852	8.00612	2	0.627276	11	0.00664389
2	1	0	1	1	316.071	0.83843	0.839043	8.49989	2	0.634707	11	0.00713177
2	1	0	0	1	316.971	0.847432	0.847896	8.99734	2	0.642584	11	0.00762881
2	1	0	1	1	317.871	0.856435	0.856976	9.49668	2	0.650909	11	0.00813843
2	1	0	1	1	318.771	0.865438	0.86585	9.99901	2	0.659686	11	0.00865764
2	1	0	0	1	319.672	0.874441	0.874931	10.5021	2	0.668915	11	0.00918862
2	1	0	0	1	320.602	0.883744	0.884078	11.0158	2	0.678931	10	0.00973882
2	1	0	1	1	321.502	0.892746	0.893212	11.5207	2	0.689074	10	0.0102905
2	1	0	1	1	322.402	0.901748	0.902053	12.0316	2	0.699677	10	0.0108532
2	1	0	0	1	323.303	0.910752	0.911393	12.5418	2	0.710739	10	0.0114305
2	1	0	1	1	324.203	0.919755	0.920151	13.0561	2	0.722258	10	0.0120136
2	1	0	1	1	325.103	0.928758	0.929202	13.5626	2	0.734244	10	0.0126024
2	1	0	0	1	326.004	0.93776	0.938243	14.0683	2	0.746682	10	0.0131995
2	1	0	1	1	326.904	0.946763	0.947164	14.5745	2	0.759577	10	0.0138044
2	1	0	1	1	327.804	0.955766	0.956109	15.0727	2	0.772923	10	0.0144111
2	1	0	0	1	328.704	0.964769	0.96517	15.5724	2	0.786717	10	0.01503
2	1	0	0	1	329.605	0.973772	0.974585	16.0816	2	0.800966	10	0.0156728
2	1	0	1	1	330.505	0.982774	0.983491	16.5779	2	0.815667	10	0.0163042
2	1	0	1	1	331.405	0.991777	0.992363	17.0735	2	0.830817	10	0.0169431
2	1	0	0	1	332.231	1.00003	1.00063	17.4596	2	0.845101	10	0.0174706
2	1	0	1	1	333.086	0.991478	0.992024	16.9921	2	0.859856	10	0.0168566
2	1	0	1	1	333.987	0.982474	0.98296	16.4469	2	0.874903	10	0.0161666
2	1	0	0	1	334.887	0.973471	0.974147	15.9104	2	0.88946	10	0.015499
2	1	0	0	1	335.787	0.964469	0.964513	15.3848	2	0.903545	10	0.0148388
2	1	0	1	1	336.687	0.955466	0.955945	14.8596	2	0.917154	10	0.014205
2	1	0	1	1	337.588	0.946463	0.946759	14.3381	2	0.930294	10	0.0135747
2	1	0	0	1	338.488	0.93746	0.938202	13.8221	2	0.942967	10	0.0129679
2	1	0	1	1	339.388	0.928458	0.928882	13.3169	2	0.955177	10	0.0123698
2	1	0	1	1	340.289	0.919455	0.920045	12.809	2	0.966935	10	0.0117849
2	1	0	0	1	341.189	0.910452	0.911073	12.3031	2	0.978233	10	0.011209
2	1	0	1	1	342.089	0.901449	0.90193	11.8029	2	0.989079	10	0.0106454
2	1	0	1	1	342.989	0.892446	0.892674	11.3047	2	0.999477	10	0.0100914
2	1	0	0	1	343.89	0.883444	0.883944	10.8099	2	1.00943	10	0.00955535
2	1	0	0	1	344.79	0.874441	0.874874	10.3207	2	1.01893	10	0.00902933
2	1	0	1	1	345.69	0.865438	0.865936	9.83655	2	1.028	10	0.00851783
2	1	0	1	1	346.59	0.856435	0.856888	9.35789	2	1.03664	10	0.00801866
2	1	0	0	1	347.491	0.847432	0.848133	8.88013	2	1.04484	10	0.00753153
2	1	0	1	1	348.391	0.83843	0.838517	8.40568	2	1.05262	10	0.0070483
2	1	0	1	1	349.291	0.829427	0.829715	7.93656	2	1.05997	10	0.00658509
2	1	0	0	1	350.192	0.820424	0.820989	7.46938	2	1.0669	10	0.00613228
2	1	0	1	1	351.092	0.811421	0.811793	7.00879	2	1.07341	10	0.00568968
2	1	0	1	1	351.992	0.802418	0.802964	6.55429	2	1.07951	10	0.00526286
2	1	0	0	1	352.892	0.793416	0.793946	6.11195	2	1.08521	10	0.00485256
2	1	0	0	1	353.793	0.784413	0.784881	5.66546	2	1.09051	10	0.00444671
2	1	0	1	1	354.693	0.77541	0.775782	5.22898	2	1.09541	10	0.00405655
2	1	0	1	1	355.593	0.766407	0.767107	4.80131	2	1.09992	10	0.00368312
2	1	0	0	1	356.524	0.757104	0.757729	4.37621	2	1.10418	11	0.00331598
2	1	0	1	1	357.424	0.748102	0.748559	3.96325	2	1.10793	11	0.00296672
2	1	0	1	1	358.324	0.739099	0.739487	3.56304	2	1.11131	11	0.00263482
2	1	0	0	1	359.224	0.730096	0.730524	3.17326	2	1.11434	11	0.00231814
2	1	0	1	1	360.125	0.721093	0.721717	2.79622	2	1.11703	11	0.00201808
2	1	0	1	1	361.025	0.71209	0.71269	2.43594	2	1.11938	11	0.00173607
2	1	0	0	1	361.925	0.703088	0.703656	2.09292	2	1.12141	11	0.00147269
2	1	0	0	1	362.826	0.694085	0.694226	1.76776	2	1.12315	11	0.00122722
2	1	0	1	1	363.726	0.685082	0.685515	1.4661	2	1.1246	11	0.00100504
2	1	0	1	1	364.626	0.676079	0.676461	1.1892	2	1.12579	11	0.000804444
2	1	0	0	1	365.526	0.667077	0.667705	0.940651	2	1.12674	11	0.000628077
2	1	0	1	1	366.427	0.658074	0.658327	0.72123	2	1.12748	11	0.000474805
2	1	0	1	1	367.327	0.649071	0.649879	0.535726	2	1.12804	11	0.000348157
2	1	0	0	1	368.257	0.639768	0.640363	0.377636	2	1.12846	12	0.000241824
2	1	0	1	1	369.157	0.630765	0.631237	0.257436	2	1.12874	12	0.000162503
2	1	0	1	1	370.058	0.621763	0.622366	0.166044	2	1.12893	12	0.00010334
2	1	0	0	1	370.958	0.61276	0.613027	0.0991482	2	1.12904	12	6.07805e-05
2	1	0	0	1	371.858	0.603757	0.604203	0.0521972	2	1.12911	12	3.15377e-05
2	1	0	1	1	372.759	0.594754	0.595319	0.0192741	2	1.12914	12	1.14742e-05
2	0	0	1	1	373.659	0.585751	0.586089	-0.00233934	2	1.12914	12	-1.37106e-06
2	0	0	0	1	374.559	0.576748	0.577386	-0.0164409	2	1.12913	12	-9.49273e-06
2	0	0	1	1	375.459	0.567746	0.56801	-0.0254806	2	1.12911	12	-1.44732e-05
2	0	0	1	1	376.36	0.558743	0.559076	-0.0309984	2	1.12908	12	-1.73305e-05
2	0	0	0	1	377.26	0.54974	0.550015	-0.0342519	2	1.12905	12	-1.8839e-05
2	0	0	1	1	378.16	0.540737	0.54107	-0.0360484	2	1.12901	12	-1.95047e-05
2	0	0	1	1	379.061	0.531735	0.53249	-0.0368984	2	1.12898	12	-1.9648e-05
2	0	0	0	1	379.961	0.522732	0.523222	-0.0369675	2	1.12894	12	-1.93422e-05
2	0	0	0	1	380.861	0.513729	0.514459	-0.0366542	2	1.1289	12	-1.88571e-05
2	0	0	1	1	381.761	0.504726	0.505308	-0.0361249	2	1.12887	12	-1.82542e-05
2	0	0	0	1	382.662	0.495723	0.495914	-0.0352254	2	1.12883	12	-1.74688e-05
2	0	0	0	1	383.562	0.486721	0.487005	-0.0341386	2	1.1288	12	-1.66256e-05
2	0	0	1	1	384.462	0.477718	0.478339	-0.0328692	2	1.12877	12	-1.57226e-05
2	0	0	1	1	385.363	0.468715	0.469226	-0.031581	2	1.12874	12	-1.48186e-05
2	0	0	0	1	386.263	0.459712	0.459901	-0.030028	2	1.12871	12	-1.38099e-05
2	0	0	1	1	387.163	0.450709	0.451045	-0.028464	2	1.12868	12	-1.28385e-05
2	0	0	1	1	388.063	0.441707	0.442081	-0.0270878	2	1.12865	12	-1.1975e-05
2	0	0	0	1	388.964	0.432704	0.432711	-0.0256808	2	1.12862	12	-1.11124e-05
2	0	0	0	1	389.864	0.423701	0.424343	-0.0241835	2	1.1286	12	-1.02621e-05
2	0	0	1	1	390.764	0.414698	0.415169	-0.0230313	2	1.12858	12	-9.56187e-06
2	0	0	0	1	391.664	0.405695	0.406144	-0.0219963	2	1.12855	12	-8.93364e-06
2	0	0	0	1	392.565	0.396693	0.397236	-0.0209765	2	1.12853	12	-8.33262e-06
2	0	0	1	1	393.465	0.38769	0.387866	-0.020044	2	1.12851	12	-7.77438e-06
2	0	0	1	1	394.365	0.378687	0.37918	-0.0193786	2	1.12849	12	-7.34798e-06
2	0	0	0	1	395.266	0.369684	0.370219	-0.0185004	2	1.12847	12	-6.84919e-06
2	0	0	1	1	396.166	0.360682	0.361335	-0.0180715	2	1.12845	12	-6.52986e-06
2	0	0	1	1	397.066	0.351679	0.351683	-0.0172267	2	1.12844	12	-6.05836e-06
2	0	0	0	1	397.966	0.342676	0.342988	-0.0164691	2	1.12842	12	-5.6487e-06
2	0	0	1	1	398.867	0.333674	0.334111	-0.0159432	2	1.12841	12	-5.32679e-06
2	0	0	1	1	399.767	0.32467	0.325337	-0.0154443	2	1.12839	12	-5.02458e-06
2	0	0	0	1	400.667	0.315668	0.316339	-0.0148761	2	1.12838	12	-4.70588e-06
2	0	0	0	1	401.568	0.306665	0.307028	-0.0146854	2	1.12836	12	-4.50882e-06
2	0	0	1	1	402.468	0.297662	0.298026	-0.0141969	2	1.12835	12	-4.23105e-06
2	0	0	1	1	403.368	0.28866	0.288966	-0.0137454	2	1.12834	12	-3.97195e-06
2	0	0	0	1	404.268	0.279656	0.279662	-0.0133197	2	1.12833	12	-3.72501e-06
2	0	0	1	1	405.169	0.270654	0.270914	-0.0129286	2	1.12831	12	-3.50253e-06
2	1	0	1	1	406.069	0.261651	0.262055	-0.0127195	2	1.1283	12	-3.33322e-06
2	1	0	0	1	406.969	0.252648	0.253051	-0.0123341	2	1.12829	12	-3.12115e-06
2	1	0	1	1	407.869	0.243646	0.244219	-0.0118456	2	1.12828	12	-2.89292e-06
2	1	0	1	1	408.77	0.234643	0.235135	-0.0115299	2	1.12827	12	-2.71109e-06
2	1	0	0	1	409.67	0.22564	0.22631	-0.0113054	2	1.12826	12	-2.55853e-06
2	1	0	0	1	410.57	0.216637	0.217078	-0.0110537	2	1.12825	12	-2.39951e-06
2	1	0	1	1	411.471	0.207634	0.208081	-0.0109212	2	1.12824	12	-2.27248e-06
2	1	0	1	1	412.371	0.198631	0.1989	-0.0109302	2	1.12823	12	-2.17401e-06
2	1	0	0	1	413.271	0.189629	0.189753	-0.0108628	2	1.12822	12	-2.06126e-06
2	1	0	1	1	414.171	0.180626	0.180686	-0.0109604	2	1.12821	12	-1.98039e-06
2	1	0	1	1	415.072	0.171623	0.172055	-0.0110205	2	1.1282	12	-1.89613e-06
2	1	0	0	1	415.972	0.16262	0.163125	-0.0115854	2	1.12819	12	-1.88987e-06
2	1	0	1	1	416.872	0.153617	0.153993	-0.0124891	2	1.12818	12	-1.92324e-06
2	1	0	1	1	417.773	0.144615	0.144643	-0.0136854	2	1.12817	12	-1.97949e-06
2	1	0	0	1	418.673	0.135612	0.135924	-0.0152131	2	1.12815	12	-2.06783e-06
2	1	0	0	1	419.573	0.126609	0.126598	-0.0173553	2	1.12814	12	-2.19715e-06
2	1	0	1	1	420.473	0.117606	0.118207	-0.0176846	2	1.12812	12	-2.09045e-06
2	1	0	1	1	421.374	0.108603	0.108986	-0.014361	2	1.12811	12	-1.56515e-06
2	1	0	0	1	422.274	0.0996007	0.0996102	-0.0121646	2	1.1281	12	-1.21172e-06
2	1	0	1	1	423.174	0.0905979	0.0909881	-0.0114897	2	1.12809	12	-1.04543e-06
2	1	0	1	1	424.075	0.0815952	0.0819449	-0.0109297	2	1.12808	12	-8.95634e-07
2	1	0	0	1	424.975	0.0725924	0.0730841	-0.0108859	2	1.12807	12	-7.95582e-07
2	1	0	1	1	425.875	0.0635889	0.063913	-0.0107387	2	1.12806	12	-6.86342e-07
2	1	0	1	1	426.775	0.0545868	0.0548288	-0.0110526	2	1.12805	12	-6.06003e-07
2	1	0	0	1	427.676	0.045584	0.046036	-0.0112076	2	1.12804	12	-5.15951e-07
2	0	0	0	1	428.576	0.0365812	0.0367678	-0.011429	2	1.12803	12	-4.20219e-07
2	0	0	1	1	429.476	0.0275784	0.0280163	-0.0115884	2	1.12801	12	-3.24663e-07
2	0	0	0	1	430.376	0.0185756	0.0185295	-0.0115064	2	1.128	12	-2.13209e-07
2	1	0	0	1	431.307	0.00927276	0.00967297	-0.0114987	2	1.12799	13	-1.11226e-07
2	1	0	1	1	432.192	0.000420017	0.000430778	-0.0113972	2	1.12798	13	-4.90965e-09
2	0	0	1	0	432.988	0.00757223	0.00815267	-0.0075791	3	1.12798	13	-6.17899e-08
2	1	0	0	0	433.888	0.016575	0.017197	-0.00606737	3	1.12797	13	-1.04341e-07
2	1	0	0	0	434.788	0.0255778	0.0260228	-0.0051141	3	1.12797	13	-1.33083e-07
2	1	0	1	0	435.689	0.0345806	0.03524	-0.00450436	3	1.12796	13	-1.58734e-07
2	1	0	1	0	436.589	0.0435838	0.0437816	-0.00405833	3	1.12796	13	-1.7768e-07
2	1	0	0	0	437.489	0.0525862	0.0530932	-0.00379008	3	1.12796	13	-2.01228e-07
2	1	0	1	0	438.389	0.061589	0.0618426	-0.00357452	3	1.12796	13	-2.21058e-07
2	1	0	1	0	439.29	0.0705918	0.0710715	-0.00339514	3	1.12795	13	-2.41298e-07
2	1	0	0	0	440.22	0.0798946	0.0804882	-0.0030942	3	1.12795	12	-2.49046e-07
2	1	0	1	0	441.12	0.0888976	0.0893445	-0.00277819	3	1.12795	12	-2.48216e-07
2	1	0	1	0	442.021	0.0979002	0.0984994	-0.00257117	3	1.12795	12	-2.53259e-07
2	1	0	0	0	442.921	0.106903	0.107038	-0.00233435	3	1.12795	12	-2.49864e-07
2	1	0	0	0	443.821	0.115906	0.116545	-0.00171244	3	1.12795	12	-1.99575e-07
2	1	0	1	0	444.721	0.124909	0.1254	-0.00121343	3	1.12795	12	-1.52165e-07
2	1	0	1	0	445.622	0.133912	0.134302	-0.00100475	3	1.12795	12	-1.3494e-07
2	1	0	0	0	446.522	0.142914	0.143339	-0.000987081	3	1.12795	12	-1.41487e-07
2	1	0	1	0	447.422	0.151917	0.152392	-0.000857286	3	1.12795	12	-1.30644e-07
2	1	0	1	0	448.323	0.16092	0.161388	-0.0011238	3	1.12795	12	-1.81368e-07
2	1	0	0	0	449.223	0.169923	0.170286	-0.00102076	3	1.12795	12	-1.73822e-07
2	1	0	1	0	450.123	0.178926	0.179182	-0.000903492	3	1.12795	12	-1.6189e-07
2	1	0	1	0	451.023	0.187928	0.188302	-0.000868935	3	1.12796	12	-1.63622e-07
2	1	0	0	0	451.924	0.196931	0.197297	-0.00072727	3	1.12796	12	-1.43489e-07
2	1	0	0	0	452.824	0.205934	0.206676	-0.000715107	3	1.12796	12	-1.47795e-07
2	1	0	1	0	453.724	0.214936	0.215016	-0.000497389	3	1.12796	12	-1.06946e-07
2	1	0	1	0	454.624	0.22394	0.224216	-0.000417539	3	1.12796	12	-9.36189e-08
2	1	0	0	0	455.525	0.232942	0.233476	-0.000278318	3	1.12796	12	-6.49805e-08
2	1	0	1	0	456.425	0.241945	0.242251	2.76087e-06	3	1.12797	12	6.68822e-10
2	1	0	1	0	457.325	0.250948	0.251495	0.000112289	3	1.12797	12	2.82402e-08
2	1	0	0	0	458.226	0.25995	0.260406	0.000382896	3	1.12797	12	9.97086e-08
2	1	0	1	0	459.126	0.268953	0.268969	0.000649974	3	1.12797	12	1.74823e-07
2	1	0	1	0	460.026	0.277956	0.278658	0.000733234	3	1.12797	12	2.04322e-07
2	1	0	0	0	460.926	0.286959	0.287558	0.000976852	3	1.12798	12	2.80902e-07
2	1	0	0	0	461.827	0.295962	0.296163	0.000973117	3	1.12798	12	2.88202e-07
2	1	0	1	0	462.727	0.304964	0.3054	0.00123796	3	1.12798	12	3.78072e-07
2	1	0	0	0	463.627	0.313967	0.314541	0.00154436	3	1.12799	12	4.85765e-07
2	1	0	0	0	464.528	0.32297	0.323423	0.00197162	3	1.12799	12	6.37667e-07
2	1	0	1	0	465.428	0.331973	0.332446	0.00238785	3	1.12799	12	7.93831e-07
2	1	0	1	0	466.328	0.340975	0.341351	0.00293907	3	1.128	12	1.00325e-06
2	1	0	0	0	467.228	0.349978	0.350088	0.00346204	3	1.128	12	1.21202e-06
2	1	0	1	0	468.129	0.358981	0.359398	0.00409243	3	1.12801	12	1.47081e-06
2	1	0	1	0	469.029	0.367984	0.368433	0.00485788	3	1.12801	12	1.7898e-06
2	1	0	0	0	469.929	0.376987	0.377245	0.00564397	3	1.12802	12	2.12916e-06
2	1	0	1	0	470.829	0.385989	0.386595	0.00645555	3	1.12803	12	2.49568e-06
2	1	0	1	0	471.73	0.394992	0.395444	0.00722035	3	1.12804	12	2.85524e-06
2	1	0	0	0	472.63	0.403995	0.404615	0.00798123	3	1.12804	12	3.22932e-06
2	1	0	0	0	473.53	0.412998	0.413331	0.00896116	3	1.12805	12	3.70393e-06
2	1	0	1	0	474.431	0.422001	0.422968	0.00986073	3	1.12806	12	4.17077e-06
2	1	0	1	0	475.331	0.431003	0.431598	0.0109245	3	1.12807	12	4.715e-06
2	1	0	0	0	476.231	0.440006	0.440535	0.0119686	3	1.12809	12	5.27257e-06
2	1	0	1	0	477.131	0.449009	0.448952	0.0133667	3	1.1281	12	6.001e-06
2	1	0	1	0	478.032	0.458012	0.458324	0.0151594	3	1.12811	12	6.94793e-06
2	1	0	0	0	478.932	0.467015	0.467024	0.0170609	3	1.12813	12	7.96784e-06
2	1	0	1	0	479.832	0.476017	0.476563	0.0194972	3	1.12815	12	9.29163e-06
2	1	0	1	0	480.733	0.48502	0.485414	0.0220876	3	1.12817	12	1.07216e-05
2	1	0	0	0	481.633	0.494023	0.494648	0.0249869	3	1.12819	12	1.23597e-05
2	1	0	0	0	482.533	0.503026	0.503431	0.0278859	3	1.12821	12	1.40386e-05
2	1	0	1	0	483.433	0.512028	0.512249	0.0310122	3	1.12824	12	1.5886e-05
2	1	0	1	0	484.334	0.521031	0.521218	0.0341095	3	1.12827	12	1.77785e-05
2	1	0	0	0	485.234	0.530034	0.530745	0.0375058	3	1.1283	12	1.9906e-05
2	1	0	1	0	486.134	0.539037	0.539548	0.0411157	3	1.12834	12	2.21839e-05
2	1	0	1	0	487.035	0.54804	0.548457	0.0456051	3	1.12838	12	2.50124e-05
2	1	0	0	0	487.935	0.557042	0.557538	0.0501021	3	1.12842	12	2.79338e-05
2	1	0	1	0	488.835	0.566045	0.56634	0.0556858	3	1.12847	12	3.15371e-05
2	1	0	1	0	489.735	0.575048	0.575459	0.062206	3	1.12852	12	3.5797e-05
2	1	0	0	0	490.636	0.584051	0.584621	0.0698098	3	1.12858	12	4.08123e-05
2	1	0	0	0	491.536	0.593054	0.593651	0.0792823	3	1.12865	12	4.7066e-05
2	1	0	1	0	492.436	0.602056	0.602325	0.0920333	3	1.12872	12	5.5434e-05
2	1	0	1	0	493.336	0.61106	0.611644	0.109658	3	1.12881	12	6.70719e-05
2	1	0	0	0	494.237	0.620062	0.620493	0.135441	3	1.12892	12	8.40403e-05
2	1	0	1	0	495.137	0.629065	0.629456	0.173665	3	1.12906	12	0.000109315
2	1	0	1	0	496.037	0.638068	0.638373	0.229947	3	1.12924	12	0.000146792
2	1	0	0	0	496.938	0.64707	0.647262	0.310117	3	1.12948	12	0.000200727
2	1	0	1	0	497.838	0.656074	0.656674	0.42042	3	1.12981	12	0.000276079
2	1	0	1	0	498.738	0.665076	0.665534	0.565795	3	1.13025	12	0.000376556
2	1	0	0	0	499.638	0.674079	0.674451	0.748096	3	1.13084	12	0.000504554
2	1	0	0	0	500.539	0.683082	0.683543	0.968527	3	1.13161	12	0.00066203
2	1	0	1	0	501.469	0.692384	0.692813	1.2352	3	1.13263	11	0.000855765
2	1	0	1	0	502.369	0.701388	0.701688	1.52828	3	1.13388	11	0.00107238
2	1	0	0	0	503.27	0.71039	0.710833	1.85129	3	1.1354	11	0.00131596
2	1	0	1	0	504.17	0.719393	0.719815	2.19988	3	1.13722	11	0.00158351
2	1	0	1	0	505.07	0.728396	0.728936	2.57128	3	1.13936	11	0.0018743
2	1	0	0	0	505.97	0.737398	0.738098	2.9607	3	1.14185	11	0.00218529
2	1	0	1	0	506.871	0.746402	0.7468	3.36543	3	1.1447	11	0.00251331
2	1	0	1	0	507.771	0.755404	0.755847	3.78507	3	1.14792	11	0.00286093
2	1	0	0	0	508.671	0.764407	0.764841	4.2142	3	1.15152	11	0.0032232
2	1	0	0	0	509.572	0.773409	0.773889	4.65305	3	1.15552	11	0.00360095
2	1	0	1	0	510.472	0.782412	0.783398	5.09943	3	1.15991	11	0.00399488
2	1	0	0	0	511.372	0.791415	0.791824	5.54965	3	1.1647	11	0.00439435
2	1	0	0	0	512.272	0.800418	0.80089	5.99802	3	1.16991	11	0.00480375
2	1	0	1	0	513.173	0.809421	0.809599	6.45097	3	1.17551	11	0.0052227
2	1	0	1	0	514.073	0.818423	0.818638	6.90519	3	1.18153	11	0.00565285
2	1	0	0	0	514.973	0.827426	0.827785	7.36147	3	1.18795	11	0.00609372
2	1	0	1	0	515.873	0.83643	0.836986	7.82261	3	1.19479	11	0.00654741
2	1	0	1	0	516.774	0.845432	0.845912	8.29208	3	1.20205	11	0.00701438
2	1	0	0	0	517.674	0.854434	0.854799	8.76562	3	1.20973	11	0.00749284
2	1	0	0	0	518.574	0.863437	0.86387	9.24084	3	1.21784	11	0.00798289
2	1	0	1	0	519.475	0.87244	0.872793	9.71178	3	1.22638	11	0.00847637
2	1	0	0	0	520.375	0.881443	0.882123	10.1804	3	1.23533	11	0.00898038
2	1	0	0	0	521.275	0.890446	0.890991	10.6477	3	1.24471	11	0.00948697
2	1	0	1	0	522.205	0.899749	0.899863	11.1084	3	1.25484	10	0.009996
2	1	0	1	0	523.106	0.908751	0.909257	11.5631	3	1.26504	10	0.0105138
2	1	0	0	0	524.006	0.917754	0.918298	12.0272	3	1.27567	10	0.0110445
2	1	0	1	0	524.906	0.926757	0.927004	12.4776	3	1.2867	10	0.0115668
2	1	0	1	0	525.807	0.93576	0.936325	12.9036	3	1.29814	10	0.012082
2	1	0	0	0	526.707	0.944763	0.945309	13.3311	3	1.30995	10	0.012602
2	1	0	0	0	527.607	0.953765	0.954199	13.8142	3	1.32217	10	0.0131815
2	1	0	1	0	528.507	0.962768	0.963274	14.2313	3	1.3348	10	0.0137086
2	1	0	0	0	529.408	0.971771	0.972429	14.6506	3	1.3478	10	0.0142467
2	1	0	0	0	530.308	0.980774	0.981241	15.1038	3	1.36119	10	0.0148204
2	1	0	1	0	531.208	0.989776	0.990366	15.5484	3	1.37501	10	0.0153986
2	1	0	1	0	532.108	0.998778	0.99922	15.9711	3	1.38918	10	0.0159586
2	1	0	0	0	532.889	0.993478	0.993832	15.5644	3	1.40154	10	0.0154684
2	1	0	0	0	533.79	0.984475	0.985418	15.0007	3	1.41529	10	0.0147819
2	1	0	1	0	534.69	0.975472	0.975994	14.4617	3	1.42854	10	0.0141146
2	1	0	0	0	535.59	0.966469	0.966787	13.961	3	1.44132	10	0.0134973
2	1	0	0	0	536.49	0.957466	0.957837	13.4551	3	1.45367	10	0.0128878
2	1	0	1	0	537.391	0.948464	0.94903	12.9057	3	1.46553	10	0.0122479
2	1	0	1	0	538.291	0.939461	0.93983	12.411	3	1.47691	10	0.0116642
2	1	0	0	0	539.191	0.930458	0.930912	11.8572	3	1.48783	10	0.011038
2	1	0	1	0	540.091	0.921455	0.922102	11.3046	3	1.49826	10	0.010424
2	1	0	1	0	540.992	0.912453	0.913002	10.7694	3	1.50819	10	0.00983251
2	1	0	0	0	541.892	0.90345	0.903884	10.2334	3	1.51764	10	0.0092498
2	1	0	0	0	542.792	0.894447	0.89501	9.72864	3	1.52663	10	0.00870722
2	1	0	1	0	543.693	0.885444	0.886002	9.21604	3	1.53515	10	0.00816543
2	1	0	0	0	544.593	0.876441	0.877342	8.71136	3	1.54322	10	0.00764284
2	1	0	0	0	545.493	0.867439	0.867788	8.20575	3	1.55083	10	0.00712085
2	1	0	1	0	546.393	0.858436	0.859231	7.71891	3	1.558	10	0.00663233
2	1	0	1	0	547.294	0.849434	0.849948	7.25617	3	1.56473	10	0.00616737
2	1	0	0	0	548.194	0.84043	0.841051	6.83591	3	1.57109	10	0.00574935
2	1	0	1	0	549.094	0.831427	0.831792	6.41368	3	1.57704	10	0.00533484
2	1	0	1	0	549.995	0.822425	0.822867	5.97439	3	1.58262	10	0.00491613
2	1	0	0	0	550.895	0.813422	0.813693	5.52642	3	1.5878	10	0.00449681
2	1	0	0	0	551.795	0.804419	0.804808	5.08967	3	1.59257	10	0.00409621
2	1	0	1	0	552.695	0.795416	0.795898	4.65249	3	1.59696	10	0.00370291
2	1	0	0	0	553.626	0.786113	0.786525	4.21934	3	1.60108	11	0.00331861
2	1	0	0	0	554.526	0.777111	0.777277	3.79711	3	1.60469	11	0.00295141
2	1	0	1	0	555.426	0.768108	0.768494	3.38432	3	1.60791	11	0.00260083
2	1	0	1	0	556.327	0.759105	0.759498	2.98566	3	1.61078	11	0.00226761
2	1	0	0	0	557.227	0.750102	0.750625	2.60156	3	1.61329	11	0.0019528
2	1	0	1	0	558.127	0.741099	0.74194	2.23742	3	1.61546	11	0.00166003
2	1	0	1	0	559.027	0.732097	0.732416	1.88912	3	1.61731	11	0.00138362
2	1	0	0	0	559.928	0.723094	0.723582	1.56509	3	1.61886	11	0.00113247
2	1	0	1	0	560.828	0.714092	0.714653	1.26447	3	1.62013	11	0.00090366
2	1	0	1	0	561.728	0.705088	0.705533	0.996434	3	1.62115	11	0.000703016
2	1	0	0	0	562.628	0.696085	0.696195	0.758271	3	1.62193	11	0.000527905
2	1	0	0	0	563.529	0.687083	0.687758	0.556955	3	1.62252	11	0.00038305
2	1	0	1	0	564.459	0.67778	0.678134	0.391783	3	1.62296	12	0.000265681
2	1	0	1	0	565.359	0.668777	0.669138	0.266206	3	1.62325	12	0.000178128
2	1	0	0	0	566.26	0.659774	0.660589	0.174489	3	1.62345	12	0.000115266
2	1	0	1	0	567.16	0.650771	0.651092	0.110573	3	1.62357	12	7.19932e-05
2	1	0	1	0	568.06	0.641769	0.642192	0.0683484	3	1.62365	12	4.38927e-05
2	1	0	0	0	568.96	0.632766	0.633393	0.0413731	3	1.62369	12	2.62055e-05
2	0	0	0	0	569.861	0.623763	0.624494	0.0244324	3	1.62372	12	1.52579e-05
2	0	0	1	0	570.761	0.61476	0.615273	0.0139404	3	1.62374	12	8.57714e-06
2	0	0	0	0	571.661	0.605758	0.606105	0.00749817	3	1.62374	12	4.54468e-06
2	0	0	0	0	572.562	0.596755	0.597023	0.00313627	3	1.62375	12	1.87242e-06
2	1	0	1	0	573.462	0.587752	0.588282	0.000658519	3	1.62375	12	3.87395e-07
2	0	0	1	0	574.362	0.57875	0.579345	-0.00128561	3	1.62375	12	-7.4481e-07
2	1	0	0	0	575.262	0.569746	0.569698	-0.00218011	3	1.62375	12	-1.24201e-06
2	1	0	1	0	576.163	0.560744	0.560952	-0.00287773	3	1.62374	12	-1.61427e-06
2	1	0	1	0	577.063	0.551741	0.552046	-0.00288583	3	1.62374	12	-1.59311e-06
2	1	0	0	0	577.963	0.542738	0.543182	-0.00307474	3	1.62374	12	-1.67014e-06
2	1	0	1	0	578.863	0.533736	0.534175	-0.00291228	3	1.62374	12	-1.55567e-06
2	1	0	1	0	579.764	0.524732	0.52537	-0.00287393	3	1.62373	12	-1.50988e-06
2	1	0	0	0	580.664	0.51573	0.516077	-0.00285368	3	1.62373	12	-1.47272e-06
2	1	0	0	0	581.564	0.506727	0.506714	-0.002957	3	1.62373	12	-1.49836e-06
2	1	0	1	0	582.465	0.497724	0.498391	-0.00299192	3	1.62372	12	-1.49115e-06
2	1	0	1	0	583.365	0.488721	0.489254	-0.00292237	3	1.62372	12	-1.42978e-06
2	1	0	0	0	584.265	0.479719	0.479902	-0.00285561	3	1.62372	12	-1.37041e-06
2	1	0	1	0	585.165	0.470716	0.471199	-0.00287977	3	1.62372	12	-1.35695e-06
2	1	0	1	0	586.066	0.461713	0.462125	-0.00272944	3	1.62371	12	-1.26134e-06
2	1	0	0	0	586.966	0.45271	0.452587	-0.00289777	3	1.62371	12	-1.3115e-06
2	1	0	1	0	587.866	0.443707	0.44436	-0.00272608	3	1.62371	12	-1.21136e-06
2	1	0	1	0	588.767	0.434705	0.435022	-0.00261634	3	1.62371	12	-1.13817e-06
2	1	0	0	0	589.667	0.425702	0.426352	-0.00262276	3	1.6237	12	-1.11822e-06
2	1	0	0	0	590.567	0.416699	0.417125	-0.00290576	3	1.6237	12	-1.21207e-06
2	1	0	1	0	591.467	0.407696	0.408429	-0.00230442	3	1.6237	12	-9.41192e-07
2	1	0	1	0	592.368	0.398693	0.398681	-0.0021289	3	1.6237	12	-8.48752e-07
2	1	0	0	0	593.268	0.389691	0.390525	-0.0022972	3	1.62369	12	-8.97114e-07
2	1	0	1	0	594.168	0.380688	0.381348	-0.00214336	3	1.62369	12	-8.17365e-07
2	1	0	1	0	595.069	0.371685	0.372125	-0.0018918	3	1.62369	12	-7.03985e-07
2	1	0	0	0	595.969	0.362682	0.36381	-0.00188407	3	1.62369	12	-6.85445e-07
2	1	0	1	0	596.869	0.353679	0.354514	-0.00202115	3	1.62369	12	-7.16527e-07
2	1	0	1	0	597.769	0.344677	0.345195	-0.00189033	3	1.62368	12	-6.52531e-07
2	1	0	0	0	598.67	0.335674	0.336114	-0.00165118	3	1.62368	12	-5.54985e-07
2	1	0	0	0	599.57	0.326671	0.326859	-0.00195655	3	1.62368	12	-6.39517e-07
2	1	0	1	0	600.47	0.317668	0.318065	-0.00201667	3	1.62368	12	-6.41431e-07
2	1	0	1	0	601.37	0.308665	0.309117	-0.00186226	3	1.62368	12	-5.75657e-07
2	1	0	0	0	602.271	0.299663	0.300331	-0.00169168	3	1.62367	12	-5.08065e-07
2	1	0	1	0	603.171	0.29066	0.290981	-0.00184841	3	1.62367	12	-5.37852e-07
2	1	0	1	0	604.071	0.281657	0.282281	-0.0018771	3	1.62367	12	-5.29871e-07
2	1	0	0	0	604.972	0.272654	0.2731	-0.00162079	3	1.62367	12	-4.42639e-07
2	1	0	1	0	605.872	0.263652	0.264106	-0.00167227	3	1.62367	12	-4.41656e-07
2	1	0	1	0	606.772	0.254649	0.255171	-0.00196022	3	1.62367	12	-5.0019e-07
2	1	0	0	0	607.672	0.245646	0.246155	-0.00178739	3	1.62366	12	-4.39974e-07
2	1	0	0	0	608.573	0.236643	0.237066	-0.00179915	3	1.62366	12	-4.26518e-07
2	1	0	1	0	609.473	0.22764	0.228172	-0.00194532	3	1.62366	12	-4.43868e-07
2	1	0	0	0	610.373	0.218638	0.219289	-0.00206489	3	1.62366	12	-4.52809e-07
2	1	0	0	0	611.274	0.209635	0.210283	-0.00205505	3	1.62366	12	-4.32143e-07
2	1	0	1	0	612.174	0.200632	0.201133	-0.00200912	3	1.62366	12	-4.041e-07
2	1	0	1	0	613.074	0.191629	0.192094	-0.00255888	3	1.62365	12	-4.91545e-07
2	1	0	0	0	613.974	0.182626	0.183176	-0.00260284	3	1.62365	12	-4.76777e-07
2	1	0	1	0	614.875	0.173624	0.174109	-0.00237914	3	1.62365	12	-4.14229e-07
2	1	0	1	0	615.775	0.164621	0.165142	-0.00283815	3	1.62365	12	-4.68698e-07
2	1	0	0	0	616.675	0.155618	0.156172	-0.00352906	3	1.62364	12	-5.5114e-07
2	1	0	0	0	617.576	0.146615	0.146838	-0.00407588	3	1.62364	12	-5.98494e-07
2	1	0	1	0	618.476	0.137613	0.1378	-0.00400404	3	1.62364	12	-5.51758e-07
2	1	0	0	0	619.376	0.12861	0.128945	-0.00489812	3	1.62363	12	-6.31587e-07
2	1	0	0	0	620.276	0.119607	0.119824	-0.00563898	3	1.62363	12	-6.75685e-07
2	1	0	1	0	621.177	0.110604	0.110751	-0.00413584	3	1.62363	12	-4.58048e-07
2	1	0	1	0	622.077	0.101602	0.101464	-0.00288184	3	1.62362	12	-2.92404e-07
2	1	0	0	0	622.977	0.0925986	0.0924936	-0.00270388	3	1.62362	12	-2.50092e-07
2	1	0	1	0	623.877	0.0835958	0.0840709	-0.00264405	3	1.62362	12	-2.22288e-07
2	1	0	1	0	624.778	0.074593	0.0747858	-0.00254754	3	1.62362	12	-1.9052e-07
2	1	0	0	0	625.678	0.0655902	0.0660491	-0.0025929	3	1.62361	12	-1.71259e-07
2	1	0	1	0	626.578	0.0565879	0.0572554	-0.0028238	3	1.62361	12	-1.61678e-07
2	1	0	1	0	627.479	0.0475846	0.0483838	-0.0028105	3	1.62361	12	-1.35983e-07
2	1	0	0	0	628.379	0.0385818	0.0382531	-0.002689	3	1.62361	12	-1.02862e-07
2	1	0	0	0	629.279	0.029579	0.029858	-0.00287011	3	1.6236	12	-8.56957e-08
2	0	0	1	0	630.209	0.0202762	0.0209505	-0.00246394	3	1.6236	13	-5.16209e-08
2	0	0	1	0	631.11	0.0112743	0.0114546	-0.00250318	3	1.6236	13	-2.8673e-08
2	0	0	0	0	632.01	0.00227059	0.00251177	-0.00272943	3	1.6236	13	-6.85571e-09
2	0	0	1	1	632.791	-0.00553183	-0.00535176	-0.00271078	3	1.62359	13	1.45074e-08
2	0	0	1	1	633.691	-0.0145337	-0.0138819	-0.00279325	3	1.62359	13	3.87754e-08
2	0	0	0	1	634.591	-0.0235374	-0.0231158	-0.00302239	3	1.62359	13	6.98648e-08
2	0	0	1	1	635.491	-0.0325402	-0.0319469	-0.00314458	3	1.62358	13	1.0046e-07
2	0	0	1	1	636.392	-0.041543	-0.0410241	-0.00311708	3	1.62358	13	1.27875e-07
2	0	0	0	1	637.292	-0.0505458	-0.0501862	-0.00309175	3	1.62358	13	1.55163e-07
2	0	0	1	1	638.167	-0.0592988	-0.0587118	-0.00291104	3	1.62358	13	1.70913e-07
2	0	0	0	1	638.188	-0.0595986	-0.059744	-0.000908289	3	1.62358	13	5.42648e-08