File: Lares Oxides/2024-6-21 Co80Fe20Ox on FTO_1_00mg_01_PEIS_C05.mpt
EC-Lab ASCII FILE
Nb header lines : 65

Potentio Electrochemical Impedance Spectroscopy

Run on channel : 5 (SN 39658)
User :
CE vs. WE compliance from -10 V to 10 V
Electrode connection : standard
Potential control : Ewe
Ewe ctrl range : min = -2.50 V, max = 2.50 V
Safety Limits :
	Do not start on E overload
Acquisition started on : 06/21/2024 09:40:48.362
Technique started on : 06/21/2024 09:40:49.899
Loaded Setting File :  NONE
Saved on :
	File : 2024-6-21 Co80Fe20Ox on FTO_1_00mg_01_PEIS_C05.mpr
	Directory : C:\Users\sfolkman\OneDrive - New Mexico State University\Folkman Group Folder\Scott\
	Host : 172.24.124.15
Device : VSP (SN 1910)
Address : USB
EC-Lab for windows v11.46 (software)
Internet server v11.40 (firmware)
Command interpretor v11.40 (firmware)
Electrode material :
Initial state :
Electrolyte :
Comments :
Current amplifier : VSPB-4A
Electrode surface area : 0.001 cm²
Characteristic mass : 0.001 g
Equivalent Weight : 0.000 g/eq.
Density : 0.000 g/cm3
Volume (V) : 0.001 cm³
Cycle Definition : Charge/Discharge alternance
Mode                Single sine
E (V)               0.0000
vs.                 Eoc
tE (h:m:s)          0:00:0.0000
record              0
dI                  0.000
unit dI             mA
dt (s)              0.000
fi                  200.000
unit fi             kHz
ff                  100.000
unit ff             mHz
Nd                  6
Points              per decade
spacing             Logarithmic
Va (mV)             10.0
pw                  0.10
Na                  2
corr                0
E range min (V)     -2.500
E range max (V)     2.500
I Range             Auto
Bandwidth           4
nc cycles           0
goto Ns'            0
nr cycles           0
inc. cycle          0

freq/Hz	Re(Z)/Ohm	-Im(Z)/Ohm	|Z|/Ohm	Phase(Z)/deg	time/s	<Ewe>/V	<I>/mA	Cs/µF	Cp/µF	cycle number	I Range	|Ewe|/V	|I|/A	Ns	(Q-Qo)/mA.h	Re(Y)/Ohm-1	Im(Y)/Ohm-1	|Y|/Ohm-1	Phase(Y)/deg	Re(C)/nF	Im(C)/nF	|C|/nF	Phase(C)/deg	Re(M)	Im(M)	|M|	Phase(M)/deg	Re(Permittivity)	Im(Permittivity)	|Permittivity|	Phase(Permittivity)/deg	Re(Resistivity)/Ohm.cm	Im(Resistivity)/Ohm.cm	|Resistivity|/Ohm.cm	Phase(Resistivity)/deg	Re(Conductivity)/mS/cm	Im(Conductivity)/mS/cm	|Conductivity|/mS/cm	Phase(Conductivity)/deg	Tan(Delta)	Loss Angle(Delta)/deg	dq/mA.h
199998	7.27317	13.7002	15.5111	-62.037	1.53748	0.0625003	-0.0123918	0.0580856	0.0453144	1	10	0.00995296	0.000641668	0	-2.1805e-06	0.0302301	0.0569432	0.0644701	62.037	45.3144	24.0566	51.3041	-27.963	0.0000000E+000	0.0000000E+000	0.0000000E+000	27.963	0.0000000E+000	0.0000000E+000	0.0000000E+000	-27.963	0.0000000E+000	0.0000000E+000	0.0000000E+000	-62.037	0.0000000E+000	0.0000000E+000	0.0000000E+000	62.037	0.530882	62.037	-2.1805e-06
135123	10.2418	11.4046	15.3284	-48.0748	2.13249	0.0625651	-0.0121945	0.103278	0.0571711	1	10	0.0101277	0.00066071	0	-1.08313e-05	0.0435895	0.0485384	0.0652382	48.0748	57.1711	51.3421	76.841	-41.9252	0.0000000E+000	0.0000000E+000	0.0000000E+000	41.9252	0.0000000E+000	0.0000000E+000	0.0000000E+000	-41.9252	0.0000000E+000	0.0000000E+000	0.0000000E+000	-48.0748	0.0000000E+000	0.0000000E+000	0.0000000E+000	48.0748	0.898042	48.0748	-8.65077e-06
91291.2	13.0037	8.85004	15.7295	-34.2385	2.72749	0.0625786	-0.0122634	0.196991	0.0623598	1	10	0.010107	0.000642547	0	-7.65998e-06	0.0525574	0.0357695	0.0635747	34.2385	62.3598	91.6273	110.835	-55.7615	0.0000000E+000	0.0000000E+000	0.0000000E+000	55.7615	0.0000000E+000	0.0000000E+000	0.0000000E+000	-55.7615	0.0000000E+000	0.0000000E+000	0.0000000E+000	-34.2385	0.0000000E+000	0.0000000E+000	0.0000000E+000	34.2385	1.46933	34.2385	3.17129e-06
61674.2	14.2727	5.89462	15.442	-22.4406	3.17348	0.0625774	-0.0114705	0.437785	0.0637915	1	10	0.0107016	0.000693016	0	-4.19831e-06	0.0598545	0.0247199	0.0647583	22.4406	63.7915	154.459	167.114	-67.5594	0.0000000E+000	0.0000000E+000	0.0000000E+000	67.5594	0.0000000E+000	0.0000000E+000	0.0000000E+000	-67.5594	0.0000000E+000	0.0000000E+000	0.0000000E+000	-22.4406	0.0000000E+000	0.0000000E+000	0.0000000E+000	22.4406	2.42131	22.4406	3.46166e-06
41669.8	14.3264	4.12637	14.9088	-16.0678	3.61949	0.0626023	-0.0121945	0.925617	0.0709057	1	10	0.0105453	0.000707317	0	-6.73423e-07	0.0644542	0.0185645	0.0670744	16.0678	70.9057	246.179	256.187	-73.9323	0.0000000E+000	0.0000000E+000	0.0000000E+000	73.9323	0.0000000E+000	0.0000000E+000	0.0000000E+000	-73.9323	0.0000000E+000	0.0000000E+000	0.0000000E+000	-16.0678	0.0000000E+000	0.0000000E+000	0.0000000E+000	16.0678	3.47191	16.0678	3.52489e-06
28151	14.3335	3.40423	14.7322	-13.3603	4.06548	0.0626061	-0.0119302	1.66077	0.0886766	1	10	0.0104094	0.000706573	0	-2.72877e-06	0.0660414	0.0156849	0.0678785	13.3603	88.6766	373.373	383.759	-76.6397	0.0000000E+000	0.0000000E+000	0.0000000E+000	76.6397	0.0000000E+000	0.0000000E+000	0.0000000E+000	-76.6397	0.0000000E+000	0.0000000E+000	0.0000000E+000	-13.3603	0.0000000E+000	0.0000000E+000	0.0000000E+000	13.3603	4.2105	13.3603	-2.05535e-06
19020.9	14.5029	3.24826	14.8622	-12.6244	4.51149	0.0626145	-0.0116622	2.57595	0.123047	1	10	0.0101911	0.000685707	0	-6.52302e-06	0.0656581	0.0147056	0.0672847	12.6244	123.047	549.385	562.996	-77.3756	0.0000000E+000	0.0000000E+000	0.0000000E+000	77.3756	0.0000000E+000	0.0000000E+000	0.0000000E+000	-77.3756	0.0000000E+000	0.0000000E+000	0.0000000E+000	-12.6244	0.0000000E+000	0.0000000E+000	0.0000000E+000	12.6244	4.46482	12.6244	-3.79425e-06
12850.7	14.8497	3.30637	15.2133	-12.5525	4.95749	0.0626098	-0.011973	3.74577	0.176927	1	10	0.0103391	0.000679604	0	-1.23273e-05	0.0641606	0.0142857	0.0657318	12.5525	176.927	794.623	814.081	-77.4475	0.0000000E+000	0.0000000E+000	0.0000000E+000	77.4475	0.0000000E+000	0.0000000E+000	0.0000000E+000	-77.4475	0.0000000E+000	0.0000000E+000	0.0000000E+000	-12.5525	0.0000000E+000	0.0000000E+000	0.0000000E+000	12.5525	4.49124	12.5525	-5.80428e-06
8683.37	15.2309	3.68923	15.6714	-13.6159	5.43099	0.0626482	-0.0106925	4.96816	0.275331	1	10	0.010192	0.000650358	0	-1.35446e-05	0.0620173	0.0150218	0.0638107	13.6159	275.331	1136.7	1169.57	-76.3841	0.0000000E+000	0.0000000E+000	0.0000000E+000	76.3841	0.0000000E+000	0.0000000E+000	0.0000000E+000	-76.3841	0.0000000E+000	0.0000000E+000	0.0000000E+000	-13.6159	0.0000000E+000	0.0000000E+000	0.0000000E+000	13.6159	4.12848	13.6159	-1.21727e-06
5865.09	15.5837	4.35792	16.1816	-15.6234	6.06885	0.0625928	-0.0151389	6.22683	0.451631	1	10	0.01016	0.000627874	0	-2.117e-05	0.0595154	0.0166432	0.0617987	15.6234	451.631	1615.01	1676.97	-74.3766	0.0000000E+000	0.0000000E+000	0.0000000E+000	74.3766	0.0000000E+000	0.0000000E+000	0.0000000E+000	-74.3766	0.0000000E+000	0.0000000E+000	0.0000000E+000	-15.6234	0.0000000E+000	0.0000000E+000	0.0000000E+000	15.6234	3.57595	15.6234	-7.62547e-06
3961.2	15.9049	5.48912	16.8255	-19.0406	6.54395	0.062627	-0.0132908	7.31966	0.779041	1	10	0.0106075	0.000630444	0	-2.00242e-05	0.0561818	0.0193895	0.0594336	19.0406	779.041	2257.3	2387.95	-70.9594	0.0000000E+000	0.0000000E+000	0.0000000E+000	70.9594	0.0000000E+000	0.0000000E+000	0.0000000E+000	-70.9594	0.0000000E+000	0.0000000E+000	0.0000000E+000	-19.0406	0.0000000E+000	0.0000000E+000	0.0000000E+000	19.0406	2.89754	19.0406	1.14579e-06
2677.43	16.1461	7.29541	17.7178	-24.3152	7.01797	0.0626179	-0.013274	8.14803	1.38145	1	10	0.0107772	0.000608271	0	-1.93399e-05	0.0514339	0.0232398	0.0564406	24.3152	1381.45	3057.4	3355.01	-65.6848	0.0000000E+000	0.0000000E+000	0.0000000E+000	65.6848	0.0000000E+000	0.0000000E+000	0.0000000E+000	-65.6848	0.0000000E+000	0.0000000E+000	0.0000000E+000	-24.3152	0.0000000E+000	0.0000000E+000	0.0000000E+000	24.3152	2.21319	24.3152	6.84373e-07
1808.26	16.4849	10.2014	19.3861	-31.7507	7.49194	0.0626332	-0.0133112	8.62773	2.38912	1	10	0.0108602	0.000560204	0	-2.22685e-05	0.0438637	0.0271444	0.0515833	31.7507	2389.12	3860.67	4540.12	-58.2493	0.0000000E+000	0.0000000E+000	0.0000000E+000	58.2493	0.0000000E+000	0.0000000E+000	0.0000000E+000	-58.2493	0.0000000E+000	0.0000000E+000	0.0000000E+000	-31.7507	0.0000000E+000	0.0000000E+000	0.0000000E+000	31.7507	1.61594	31.7507	-2.92858e-06
1221.96	16.8955	14.4264	22.2166	-40.4928	7.96543	0.0626104	-0.013475	9.0283	3.80686	1	10	0.0108328	0.000487598	0	-2.3079e-05	0.0342305	0.0292282	0.0450113	40.4928	3806.86	4458.39	5862.55	-49.5072	0.0000000E+000	0.0000000E+000	0.0000000E+000	49.5072	0.0000000E+000	0.0000000E+000	0.0000000E+000	-49.5072	0.0000000E+000	0.0000000E+000	0.0000000E+000	-40.4928	0.0000000E+000	0.0000000E+000	0.0000000E+000	40.4928	1.17115	40.4928	-8.10558e-07
825.264	17.5294	20.7138	27.1356	-49.7599	8.43868	0.0626337	-0.013408	9.3104	5.42511	1	10	0.0107865	0.000397503	0	-2.60572e-05	0.0238061	0.0281308	0.036852	49.7599	5425.11	4591.09	7107.04	-40.2401	0.0000000E+000	0.0000000E+000	0.0000000E+000	40.2401	0.0000000E+000	0.0000000E+000	0.0000000E+000	-40.2401	0.0000000E+000	0.0000000E+000	0.0000000E+000	-49.7599	0.0000000E+000	0.0000000E+000	0.0000000E+000	49.7599	0.846267	49.7599	-2.97822e-06
558.036	18.6115	29.9924	35.2978	-58.1787	9.41246	0.0626342	-0.00169622	9.50925	6.86553	1	11	0.0101549	0.000287693	0	-2.91178e-05	0.0149378	0.0240722	0.0283304	58.1787	6865.53	4260.34	8079.98	-31.8213	0.0000000E+000	0.0000000E+000	0.0000000E+000	31.8213	0.0000000E+000	0.0000000E+000	0.0000000E+000	-31.8213	0.0000000E+000	0.0000000E+000	0.0000000E+000	-58.1787	0.0000000E+000	0.0000000E+000	0.0000000E+000	58.1787	0.620541	58.1787	-3.0606e-06
377.051	20.3344	43.2605	47.8012	-64.8243	9.88367	0.0626418	-0.00177591	9.75728	7.99159	1	11	0.00985389	0.000206143	0	-2.94632e-05	0.00889925	0.0189327	0.02092	64.8243	7991.59	3756.41	8830.41	-25.1757	0.0000000E+000	0.0000000E+000	0.0000000E+000	25.1757	0.0000000E+000	0.0000000E+000	0.0000000E+000	-25.1757	0.0000000E+000	0.0000000E+000	0.0000000E+000	-64.8243	0.0000000E+000	0.0000000E+000	0.0000000E+000	64.8243	0.470046	64.8243	-3.45374e-07
254.755	23.2093	62.3084	66.4907	-69.5701	10.3579	0.0626229	-0.00173011	10.0265	8.80484	1	11	0.00970264	0.000145925	0	-2.84717e-05	0.00524978	0.0140937	0.0150397	69.5701	8804.84	3279.73	9395.84	-20.4299	0.0000000E+000	0.0000000E+000	0.0000000E+000	20.4299	0.0000000E+000	0.0000000E+000	0.0000000E+000	-20.4299	0.0000000E+000	0.0000000E+000	0.0000000E+000	-69.5701	0.0000000E+000	0.0000000E+000	0.0000000E+000	69.5701	0.372491	69.5701	9.91539e-07
172.037	27.6624	89.2912	93.478	-72.787	10.8264	0.0626275	-0.00171652	10.3607	9.45341	1	11	0.00960461	0.000102747	0	-2.86934e-05	0.00316571	0.0102186	0.0106977	72.787	9453.41	2928.67	9896.67	-17.213	0.0000000E+000	0.0000000E+000	0.0000000E+000	17.213	0.0000000E+000	0.0000000E+000	0.0000000E+000	-17.213	0.0000000E+000	0.0000000E+000	0.0000000E+000	-72.787	0.0000000E+000	0.0000000E+000	0.0000000E+000	72.787	0.3098	72.787	-2.21702e-07
116.227	35.1864	127.493	132.259	-74.5711	11.2957	0.0627604	-0.00151024	10.7406	9.98036	1	11	0.00957427	7.23903e-05	0	-2.86025e-05	0.00201152	0.00728844	0.00756092	74.5711	9980.36	2754.46	10353.5	-15.4289	0.0000000E+000	0.0000000E+000	0.0000000E+000	15.4289	0.0000000E+000	0.0000000E+000	0.0000000E+000	-15.4289	0.0000000E+000	0.0000000E+000	0.0000000E+000	-74.5711	0.0000000E+000	0.0000000E+000	0.0000000E+000	74.5711	0.275988	74.5711	9.0922e-08
78.5176	45.3163	180.589	186.188	-75.9133	11.7775	0.0626406	-0.00172211	11.2243	10.5594	1	11	0.00955244	5.13052e-05	0	-2.86789e-05	0.00130722	0.00520939	0.0053709	75.9133	10559.4	2649.73	10886.8	-14.0867	0.0000000E+000	0.0000000E+000	0.0000000E+000	14.0867	0.0000000E+000	0.0000000E+000	0.0000000E+000	-14.0867	0.0000000E+000	0.0000000E+000	0.0000000E+000	-75.9133	0.0000000E+000	0.0000000E+000	0.0000000E+000	75.9133	0.250935	75.9133	-7.64353e-08
53.0478	63.4321	257.193	264.899	-76.1455	12.5361	0.0626491	-0.00029856	11.6652	10.9964	1	12	0.00960972	3.62769e-05	0	-2.90775e-05	0.000903955	0.00366519	0.00377502	76.1455	10996.4	2712.06	11325.9	-13.8545	0.0000000E+000	0.0000000E+000	0.0000000E+000	13.8545	0.0000000E+000	0.0000000E+000	0.0000000E+000	-13.8545	0.0000000E+000	0.0000000E+000	0.0000000E+000	-76.1455	0.0000000E+000	0.0000000E+000	0.0000000E+000	76.1455	0.246633	76.1455	-3.98607e-07
35.8372	89.1864	356.38	367.37	-75.9499	13.0001	0.062644	-0.000194952	12.4616	11.7271	1	12	0.00957974	2.60765e-05	0	-2.89794e-05	0.000660832	0.00264062	0.00272205	75.9499	11727.1	2934.79	12088.8	-14.0501	0.0000000E+000	0.0000000E+000	0.0000000E+000	14.0501	0.0000000E+000	0.0000000E+000	0.0000000E+000	-14.0501	0.0000000E+000	0.0000000E+000	0.0000000E+000	-75.9499	0.0000000E+000	0.0000000E+000	0.0000000E+000	75.9499	0.250257	75.9499	9.81206e-08
24.2323	120.097	507.663	521.676	-76.6903	13.4871	0.0626257	-0.000254686	12.9375	12.2518	1	12	0.00955192	1.83101e-05	0	-2.90583e-05	0.000441299	0.00186541	0.0019169	76.6903	12251.8	2898.4	12590	-13.3097	0.0000000E+000	0.0000000E+000	0.0000000E+000	13.3097	0.0000000E+000	0.0000000E+000	0.0000000E+000	-13.3097	0.0000000E+000	0.0000000E+000	0.0000000E+000	-76.6903	0.0000000E+000	0.0000000E+000	0.0000000E+000	76.6903	0.236569	76.6903	-7.89465e-08
16.367	177.991	699.919	722.196	-75.732	13.926	0.0626704	-0.000176617	13.8933	13.0494	1	12	0.0095151	1.31752e-05	0	-2.91912e-05	0.000341261	0.00134195	0.00138467	75.732	13049.4	3318.48	13464.7	-14.268	0.0000000E+000	0.0000000E+000	0.0000000E+000	14.268	0.0000000E+000	0.0000000E+000	0.0000000E+000	-14.268	0.0000000E+000	0.0000000E+000	0.0000000E+000	-75.732	0.0000000E+000	0.0000000E+000	0.0000000E+000	75.732	0.254302	75.732	-1.32911e-07
11.0502	263.469	976.355	1011.28	-74.8984	14.3617	0.0626185	-4.09923e-05	14.7517	13.7504	1	12	0.00952531	9.41908e-06	0	-2.91695e-05	0.000257625	0.000954698	0.000988847	74.8984	13750.4	3710.55	14242.3	-15.1016	0.0000000E+000	0.0000000E+000	0.0000000E+000	15.1016	0.0000000E+000	0.0000000E+000	0.0000000E+000	-15.1016	0.0000000E+000	0.0000000E+000	0.0000000E+000	-74.8984	0.0000000E+000	0.0000000E+000	0.0000000E+000	74.8984	0.26985	74.8984	2.17515e-08
7.46893	374.536	1346.33	1397.45	-74.4539	14.9026	0.0626273	-1.00566e-05	15.8274	14.6905	1	13	0.00956046	6.84134e-06	0	-2.92798e-05	0.000191786	0.000689407	0.000715587	74.4539	14690.5	4086.76	15248.4	-15.5461	0.0000000E+000	0.0000000E+000	0.0000000E+000	15.5461	0.0000000E+000	0.0000000E+000	0.0000000E+000	-15.5461	0.0000000E+000	0.0000000E+000	0.0000000E+000	-74.4539	0.0000000E+000	0.0000000E+000	0.0000000E+000	74.4539	0.27819	74.4539	-1.10362e-07
5.04683	538.655	1858.53	1935.02	-73.8369	15.3769	0.0626169	-4.51544e-05	16.968	15.6531	1	13	0.00953069	4.92537e-06	0	-2.91981e-05	0.00014386	0.000496364	0.000516791	73.8369	15653.1	4536.71	16297.3	-16.1631	0.0000000E+000	0.0000000E+000	0.0000000E+000	16.1631	0.0000000E+000	0.0000000E+000	0.0000000E+000	-16.1631	0.0000000E+000	0.0000000E+000	0.0000000E+000	-73.8369	0.0000000E+000	0.0000000E+000	0.0000000E+000	73.8369	0.289828	73.8369	8.17475e-08
3.4086	789.849	2574.97	2693.39	-72.9471	16.0452	0.0626226	9.85278e-05	18.1331	16.5737	1	13	0.00953489	3.54011e-06	0	-2.91794e-05	0.000108879	0.000354956	0.000371279	72.9471	16573.7	5083.83	17335.9	-17.0529	0.0000000E+000	0.0000000E+000	0.0000000E+000	17.0529	0.0000000E+000	0.0000000E+000	0.0000000E+000	-17.0529	0.0000000E+000	0.0000000E+000	0.0000000E+000	-72.9471	0.0000000E+000	0.0000000E+000	0.0000000E+000	72.9471	0.306741	72.9471	1.87259e-08
2.30321	1085.1	3522.52	3685.87	-72.8788	17.006	0.0626307	1.00004e-06	19.617	17.9168	1	13	0.00952409	2.58395e-06	0	-2.92332e-05	7.9871e-05	0.000259283	0.000271307	72.8788	17916.8	5519.19	18747.6	-17.1212	0.0000000E+000	0.0000000E+000	0.0000000E+000	17.1212	0.0000000E+000	0.0000000E+000	0.0000000E+000	-17.1212	0.0000000E+000	0.0000000E+000	0.0000000E+000	-72.8788	0.0000000E+000	0.0000000E+000	0.0000000E+000	72.8788	0.308045	72.8788	-5.38285e-08
1.55627	1484.06	4762.37	4988.25	-72.6919	19.1066	0.0626581	-3.15255e-05	21.4739	19.5732	1	14	0.00954153	1.9128e-06	0	-2.92415e-05	5.96423e-05	0.000191393	0.000200471	72.6919	19573.2	6099.41	20501.5	-17.3081	0.0000000E+000	0.0000000E+000	0.0000000E+000	17.3081	0.0000000E+000	0.0000000E+000	0.0000000E+000	-17.3081	0.0000000E+000	0.0000000E+000	0.0000000E+000	-72.6919	0.0000000E+000	0.0000000E+000	0.0000000E+000	72.6919	0.311621	72.6919	-8.33959e-09
1.05233	2196.5	6506.74	6867.48	-71.3467	21.1484	0.0626313	-2.81235e-06	23.2437	20.8659	1	14	0.00952745	1.38733e-06	0	-2.92313e-05	4.65732e-05	0.000137965	0.000145614	71.3467	20865.9	7043.75	22022.7	-18.6533	0.0000000E+000	0.0000000E+000	0.0000000E+000	18.6533	0.0000000E+000	0.0000000E+000	0.0000000E+000	-18.6533	0.0000000E+000	0.0000000E+000	0.0000000E+000	-71.3467	0.0000000E+000	0.0000000E+000	0.0000000E+000	71.3467	0.337573	71.3467	1.02156e-08
0.710357	3217.08	8728.22	9302.22	-69.7669	24.1521	0.0626338	4.04323e-05	25.6696	22.5993	1	14	0.00951674	1.02306e-06	0	-2.91787e-05	3.71782e-05	0.000100868	0.000107501	69.7669	22599.3	8329.75	24085.6	-20.2331	0.0000000E+000	0.0000000E+000	0.0000000E+000	20.2331	0.0000000E+000	0.0000000E+000	0.0000000E+000	-20.2331	0.0000000E+000	0.0000000E+000	0.0000000E+000	-69.7669	0.0000000E+000	0.0000000E+000	0.0000000E+000	69.7669	0.368584	69.7669	5.26126e-08
0.480355	4721.67	11935.7	12835.7	-68.4166	28.5707	0.0626265	8.82128e-07	27.7594	24.0031	1	14	0.00952089	7.41751e-07	0	-2.91257e-05	2.86587e-05	7.24452e-05	7.79078e-05	68.4166	24003.1	9495.42	25813	-21.5834	0.0000000E+000	0.0000000E+000	0.0000000E+000	21.5834	0.0000000E+000	0.0000000E+000	0.0000000E+000	-21.5834	0.0000000E+000	0.0000000E+000	0.0000000E+000	-68.4166	0.0000000E+000	0.0000000E+000	0.0000000E+000	68.4166	0.395592	68.4166	5.29988e-08
0.324439	6358.13	16206.9	17409.5	-68.5794	35.0902	0.0626303	-6.4554e-06	30.2682	26.2311	1	14	0.00952335	5.47021e-07	0	-2.91102e-05	2.09778e-05	5.34724e-05	5.74401e-05	68.5794	26231.1	10290.7	28177.4	-21.4206	0.0000000E+000	0.0000000E+000	0.0000000E+000	21.4206	0.0000000E+000	0.0000000E+000	0.0000000E+000	-21.4206	0.0000000E+000	0.0000000E+000	0.0000000E+000	-68.5794	0.0000000E+000	0.0000000E+000	0.0000000E+000	68.5794	0.39231	68.5794	1.54918e-08
0.218838	9093.39	21803.7	23624	-67.3611	44.7349	0.0626319	-1.7795e-05	33.3555	28.4134	1	14	0.00952427	4.03161e-07	0	-2.91986e-05	1.62937e-05	3.90683e-05	4.23299e-05	67.3611	28413.4	11850	30785.4	-22.6389	0.0000000E+000	0.0000000E+000	0.0000000E+000	22.6389	0.0000000E+000	0.0000000E+000	0.0000000E+000	-22.6389	0.0000000E+000	0.0000000E+000	0.0000000E+000	-67.3611	0.0000000E+000	0.0000000E+000	0.0000000E+000	67.3611	0.417057	67.3611	-8.83999e-08
0.147897	13142.4	28416.2	31308.2	-65.1797	58.9863	0.0626322	-1.09396e-05	37.87	31.1969	1	14	0.00952557	3.04252e-07	0	-2.93131e-05	1.34078e-05	2.89901e-05	3.19405e-05	65.1797	31196.9	14428.4	34371.9	-24.8203	0.0000000E+000	0.0000000E+000	0.0000000E+000	24.8203	0.0000000E+000	0.0000000E+000	0.0000000E+000	-24.8203	0.0000000E+000	0.0000000E+000	0.0000000E+000	-65.1797	0.0000000E+000	0.0000000E+000	0.0000000E+000	65.1797	0.462495	65.1797	-1.14508e-07
0.0999041	19848.9	37241.9	42201.1	-61.9437	80.0612	0.0626376	-1.7044e-05	42.7765	33.3135	1	14	0.00952182	2.25629e-07	0	-2.93745e-05	1.11452e-05	2.09114e-05	2.3696e-05	61.9437	33313.5	17755.1	37749.6	-28.0563	0.0000000E+000	0.0000000E+000	0.0000000E+000	28.0563	0.0000000E+000	0.0000000E+000	0.0000000E+000	-28.0563	0.0000000E+000	0.0000000E+000	0.0000000E+000	-61.9437	0.0000000E+000	0.0000000E+000	0.0000000E+000	61.9437	0.532971	61.9437	-6.13869e-08