File: Lares Oxides/2024-6-19 FeOx on FTO_1_03mg_02_CV_C05.mpt
EC-Lab ASCII FILE
Nb header lines : 59

Cyclic Voltammetry

Run on channel : 5 (SN 39658)
User :
CE vs. WE compliance from -10 V to 10 V
Electrode connection : standard
Potential control : Ewe
Ewe ctrl range : min = -2.50 V, max = 2.50 V
Safety Limits :
	Do not start on E overload
Acquisition started on : 06/19/2024 15:35:49.269
Technique started on : 06/19/2024 15:37:09.285
Loaded Setting File :  NONE
Saved on :
	File : 2024-6-19 FeOx on FTO_1_03mg_02_CV_C05.mpr
	Directory : C:\Users\sfolkman\OneDrive - New Mexico State University\Folkman Group Folder\Scott\
	Host : 172.24.124.15
Device : VSP (SN 1910)
Address : USB
EC-Lab for windows v11.46 (software)
Internet server v11.40 (firmware)
Command interpretor v11.40 (firmware)
Electrode material :
Initial state :
Electrolyte :
Comments :
Current amplifier : VSPB-4A
Electrode surface area : 0.001 cm²
Characteristic mass : 0.001 g
Equivalent Weight : 0.000 g/eq.
Density : 0.000 g/cm3
Volume (V) : 0.001 cm³
Cycle Definition : Charge/Discharge alternance
Ei (V)              0.000
vs.                 Eoc
dE/dt               10.000
dE/dt unit          mV/s
E1 (V)              1.000
vs.                 Ref
Step percent        50
N                   10
E range min (V)     -2.500
E range max (V)     2.500
I Range             Auto
I Range min         Unset
I Range max         Unset
I Range init        Unset
Bandwidth           4
E2 (V)              0.000
vs.                 Ref
nc cycles           2
Reverse Scan        1
Ef (V)              0.000
vs.                 Eoc

mode	ox/red	error	control changes	counter inc.	time/s	control/V	Ewe/V	<I>/mA	cycle number	(Q-Qo)/C	I Range	P/W
2	1	0	0	0	80.0156	0.042433	0.0397299	0.00140026	1	0.0000000E+000	14	5.5632e-08
2	0	0	0	0	80.901	0.0512858	0.0519166	0.00017108	1	4.09115e-07	13	8.88187e-09
2	0	0	1	0	81.8012	0.0602886	0.0607053	0.000171518	1	4.70626e-07	13	1.0412e-08
2	0	0	1	0	82.7016	0.0692914	0.0696849	0.000102499	1	5.33009e-07	13	7.14265e-09
2	0	0	0	0	83.6018	0.0782941	0.0787313	8.74451e-05	1	5.97128e-07	13	6.88467e-09
2	0	0	1	0	84.502	0.0872969	0.087747	5.34109e-05	1	6.62089e-07	13	4.68665e-09
2	0	0	1	0	85.4024	0.0962997	0.0968508	4.56639e-05	1	7.27538e-07	13	4.42258e-09
2	0	0	0	0	86.3026	0.105302	0.10557	8.82614e-05	1	7.94728e-07	13	9.3178e-09
2	0	0	0	0	87.203	0.114305	0.114785	0.000129841	1	8.63544e-07	13	1.49037e-08
2	0	0	1	0	88.1032	0.123308	0.123605	0.000152994	1	9.3356e-07	13	1.89108e-08
2	0	0	0	0	89.0034	0.132311	0.132927	0.000141867	1	1.00529e-06	13	1.8858e-08
2	0	0	0	0	89.9038	0.141314	0.141766	8.47299e-05	1	1.07929e-06	13	1.20118e-08
2	0	0	1	0	90.804	0.150316	0.150664	3.83464e-05	1	1.15551e-06	13	5.77741e-09
2	0	0	1	0	91.7044	0.159319	0.159511	-1.42589e-05	1	1.23448e-06	13	-2.27444e-09
2	1	0	0	0	92.6046	0.168322	0.168775	-1.28704e-05	1	1.31684e-06	13	-2.17219e-09
2	1	0	1	0	93.5048	0.177325	0.177515	4.07115e-05	1	1.40299e-06	13	7.22688e-09
2	1	0	1	0	94.4052	0.186328	0.186946	9.01338e-05	1	1.49349e-06	13	1.68502e-08
2	1	0	0	0	95.3054	0.19533	0.19574	5.80338e-05	1	1.58796e-06	13	1.13595e-08
2	1	0	0	0	96.2058	0.204333	0.204736	-3.11769e-05	1	1.68711e-06	13	-6.38303e-09
2	1	0	1	0	97.106	0.213336	0.213943	-7.16562e-05	1	1.79223e-06	13	-1.53304e-08
2	1	0	0	0	98.0062	0.222339	0.223021	-7.59599e-05	1	1.90368e-06	13	-1.69406e-08
2	1	0	0	0	98.9066	0.231342	0.231503	1.25858e-05	1	2.02248e-06	13	2.91363e-09
2	1	0	1	0	99.8068	0.240344	0.240826	6.91123e-05	1	2.14894e-06	13	1.6644e-08
2	1	0	1	0	100.707	0.249346	0.249678	7.16135e-05	1	2.28381e-06	13	1.78803e-08
2	1	0	0	0	101.607	0.25835	0.258724	3.46619e-05	1	2.4287e-06	13	8.96784e-09
2	1	0	1	0	102.508	0.267353	0.267977	4.31217e-06	1	2.58249e-06	13	1.15556e-09
2	1	0	1	0	103.408	0.276355	0.27674	4.75716e-05	1	2.7451e-06	13	1.3165e-08
2	1	0	0	0	104.308	0.285358	0.285887	0.000135938	1	2.91607e-06	13	3.88629e-08
2	1	0	1	0	105.209	0.29436	0.294851	0.000198836	1	3.09562e-06	13	5.86269e-08
2	1	0	1	0	106.109	0.303364	0.303964	0.00020281	1	3.28305e-06	13	6.16471e-08
2	0	0	0	0	107.009	0.312367	0.312684	0.000169528	1	3.47818e-06	13	5.30086e-08
2	0	0	0	0	107.909	0.321369	0.32155	0.000167033	1	3.68269e-06	13	5.37095e-08
2	0	0	1	0	108.81	0.330372	0.33076	0.000240214	1	3.89746e-06	13	7.94533e-08
2	0	0	1	0	109.71	0.339375	0.339583	0.000326069	1	4.12112e-06	13	1.10727e-07
2	0	0	0	0	110.61	0.348378	0.34875	0.000362619	1	4.35421e-06	13	1.26463e-07
2	0	0	1	0	111.51	0.357381	0.357917	0.000313541	1	4.59661e-06	13	1.12222e-07
2	0	0	1	0	112.411	0.366383	0.366831	0.000269658	1	4.84764e-06	13	9.89189e-08
2	0	0	0	0	113.311	0.375386	0.376009	0.000283259	1	5.10733e-06	13	1.06508e-07
2	0	0	1	0	114.211	0.384389	0.384839	0.000341844	1	5.37461e-06	13	1.31555e-07
2	0	0	1	0	115.112	0.393392	0.393852	0.000370298	1	5.64234e-06	13	1.45843e-07
2	0	0	0	0	116.012	0.402394	0.402798	0.000332683	1	5.90516e-06	13	1.34004e-07
2	0	0	0	0	116.912	0.411397	0.411753	0.000235861	1	6.16782e-06	13	9.71162e-08
2	0	0	1	0	117.812	0.4204	0.4207	0.000186341	1	6.43269e-06	13	7.83938e-08
2	0	0	1	0	118.713	0.429403	0.429706	0.000192277	1	6.70145e-06	13	8.26225e-08
2	0	0	0	0	119.613	0.438406	0.438895	0.00024763	1	6.97424e-06	13	1.08684e-07
2	1	0	1	0	120.513	0.447408	0.448138	0.000252739	1	7.25151e-06	13	1.13262e-07
2	1	0	1	0	121.414	0.456411	0.457122	0.00019877	1	7.53286e-06	13	9.0862e-08
2	1	0	0	0	122.314	0.465414	0.466009	0.000135436	1	7.81878e-06	13	6.31145e-08
2	1	0	1	0	123.214	0.474417	0.475066	9.2338e-05	1	8.11342e-06	13	4.38666e-08
2	1	0	1	0	124.114	0.48342	0.483926	0.000113998	1	8.42171e-06	13	5.51668e-08
2	1	0	0	0	125.015	0.492422	0.492722	0.000166104	1	8.74022e-06	13	8.18429e-08
2	1	0	0	0	125.915	0.501425	0.50209	0.000215392	1	9.06649e-06	13	1.08146e-07
2	1	0	1	0	126.815	0.510428	0.510767	0.000259213	1	9.39883e-06	13	1.32398e-07
2	1	0	1	0	127.716	0.519432	0.520048	0.000260568	1	9.73752e-06	13	1.35508e-07
2	1	0	0	0	128.616	0.528434	0.52906	0.000267644	1	1.00854e-05	13	1.416e-07
2	1	0	1	0	129.516	0.537436	0.537839	0.000232519	1	1.04365e-05	13	1.25058e-07
2	1	0	1	0	130.416	0.546439	0.547164	0.000225834	1	1.07951e-05	13	1.23568e-07
2	1	0	0	0	131.317	0.555442	0.55579	0.000236765	1	1.11646e-05	13	1.31592e-07
2	1	0	1	0	132.217	0.564445	0.564874	0.000264698	1	1.15457e-05	13	1.49521e-07
2	1	0	1	0	133.117	0.573448	0.57379	0.000336298	1	1.19413e-05	13	1.92964e-07
2	1	0	0	0	134.017	0.58245	0.582755	0.000395269	1	1.23562e-05	13	2.30345e-07
2	1	0	0	0	134.918	0.591453	0.592006	0.000466348	1	1.27961e-05	13	2.76081e-07
2	1	0	1	0	135.818	0.600456	0.600775	0.000524203	1	1.3269e-05	13	3.14928e-07
2	1	0	0	0	136.718	0.609459	0.609831	0.000605812	1	1.37845e-05	13	3.69443e-07
2	1	0	0	0	137.619	0.618461	0.618887	0.000700293	1	1.43697e-05	13	4.33402e-07
2	1	0	1	0	138.519	0.627464	0.627836	0.000848142	1	1.50641e-05	13	5.32494e-07
2	1	0	1	0	139.419	0.636467	0.637271	0.00104798	1	1.59228e-05	13	6.67845e-07
2	1	0	0	0	140.319	0.64547	0.646003	0.00138259	1	1.70368e-05	13	8.9316e-07
2	1	0	1	0	141.22	0.654473	0.655041	0.00187872	1	1.85336e-05	13	1.23064e-06
2	1	0	1	0	142.12	0.663475	0.664001	0.00259553	1	2.05851e-05	13	1.72343e-06
2	1	0	0	0	143.02	0.672478	0.672943	0.00317536	1	2.31813e-05	13	2.13684e-06
2	1	0	1	0	143.921	0.68148	0.682095	0.00417294	1	2.65208e-05	13	2.84634e-06
2	1	0	1	0	144.821	0.690484	0.690731	0.00542037	1	3.0933e-05	13	3.74401e-06
2	1	0	0	0	145.721	0.699486	0.699856	0.00712722	1	3.66309e-05	13	4.98803e-06
2	1	0	0	0	146.621	0.708489	0.708858	0.0087505	1	4.37708e-05	13	6.20286e-06
2	1	0	1	0	147.522	0.717492	0.717706	0.0111765	1	5.27663e-05	13	8.02144e-06
2	1	0	1	0	148.422	0.726494	0.726983	0.0142561	1	6.42535e-05	13	1.03639e-05
2	1	0	0	0	149.322	0.735498	0.736066	0.0180249	1	7.88024e-05	13	1.32675e-05
2	1	0	1	0	150.222	0.744501	0.745274	0.022035	1	9.69441e-05	13	1.64221e-05
2	1	0	1	0	151.123	0.753503	0.753931	0.0269238	1	0.000118889	13	2.02987e-05
2	1	0	0	0	152.023	0.762506	0.762848	0.0330073	1	0.000145852	13	2.51796e-05
2	1	0	1	0	152.923	0.771509	0.771936	0.0402652	1	0.000178645	13	3.10822e-05
2	1	0	1	0	153.824	0.780512	0.780915	0.0495025	1	0.000218989	13	3.86572e-05
2	1	0	0	0	154.724	0.789514	0.789748	0.06083	1	0.000268527	13	4.80404e-05
2	1	0	0	0	155.624	0.798517	0.798828	0.0748672	1	0.000329491	13	5.9806e-05
2	1	0	1	0	156.524	0.80752	0.808354	0.0918455	1	0.000404384	13	7.42437e-05
2	1	0	1	0	157.455	0.816822	0.817498	0.113693	1	0.000499912	12	9.29437e-05
2	1	0	0	0	158.355	0.825826	0.826513	0.140121	1	0.000614007	12	0.000115812
2	1	0	1	0	159.255	0.834829	0.835176	0.172891	1	0.000754782	12	0.000144394
2	1	0	1	0	160.156	0.843831	0.844221	0.212839	1	0.000928233	12	0.000179683
2	1	0	0	0	161.056	0.852834	0.853236	0.260988	1	0.00114129	12	0.000222684
2	1	0	1	0	161.956	0.861836	0.862252	0.319082	1	0.00140227	12	0.000275129
2	1	0	1	0	162.856	0.87084	0.871215	0.388127	1	0.00172039	12	0.000338142
2	1	0	0	0	163.757	0.879842	0.880462	0.469542	1	0.00210619	12	0.000413414
2	1	0	0	0	164.657	0.888845	0.889126	0.564174	1	0.00257136	12	0.000501622
2	1	0	1	0	165.557	0.897848	0.898345	0.673127	1	0.00312813	12	0.000604701
2	1	0	1	0	166.458	0.906851	0.907476	0.796072	1	0.00378931	12	0.000722416
2	1	0	0	0	167.358	0.915854	0.916409	0.933629	1	0.00456805	12	0.000855586
2	1	0	1	0	168.288	0.925156	0.925588	1.0895	1	0.00551047	11	0.00100842
2	1	0	1	0	169.188	0.934159	0.934885	1.25661	1	0.0065671	11	0.00117479
2	1	0	0	0	170.089	0.943162	0.943758	1.43601	1	0.00777957	11	0.00135525
2	1	0	1	0	170.989	0.952164	0.952638	1.62803	1	0.00915971	11	0.00155092
2	1	0	1	0	171.889	0.961168	0.961696	1.83205	1	0.0107181	11	0.00176187
2	1	0	0	0	172.789	0.97017	0.970855	2.04569	1	0.0124644	11	0.00198607
2	1	0	0	0	173.69	0.979173	0.979645	2.26923	1	0.0144082	11	0.00222304
2	1	0	1	0	174.59	0.988176	0.988792	2.5014	1	0.0165567	11	0.00247336
2	1	0	1	0	175.49	0.997178	0.997638	2.74078	1	0.0189178	11	0.00273431
2	1	0	0	0	176.231	0.995478	0.996054	2.66328	1	0.020958	11	0.00265277
2	1	0	1	0	177.131	0.986476	0.987	2.36885	1	0.0232191	11	0.00233805
2	1	0	1	0	178.032	0.977473	0.978007	2.0948	1	0.0252249	11	0.00204873
2	1	0	0	0	178.932	0.96847	0.969034	1.84132	1	0.0269936	11	0.0017843
2	1	0	1	0	179.832	0.959467	0.959862	1.60822	1	0.0285431	11	0.00154367
2	1	0	1	0	180.732	0.950464	0.951029	1.39478	1	0.0298921	11	0.00132648
2	1	0	0	0	181.633	0.941461	0.94208	1.20156	1	0.031058	11	0.00113197
2	1	0	1	0	182.533	0.932459	0.933044	1.02875	1	0.0320591	11	0.000959868
2	1	0	1	0	183.433	0.923456	0.924036	0.875085	1	0.0329134	11	0.000808611
2	1	0	0	0	184.333	0.914453	0.914993	0.740249	1	0.033638	11	0.000677322
2	1	0	0	0	185.234	0.90545	0.905979	0.624067	1	0.03425	11	0.000565392
2	1	0	1	0	186.134	0.896448	0.896932	0.523946	1	0.0347645	11	0.000469944
2	1	0	1	0	187.064	0.887145	0.887728	0.437699	1	0.0352094	12	0.000388558
2	1	0	0	0	187.965	0.878142	0.878392	0.366591	1	0.0355698	12	0.00032201
2	1	0	1	0	188.865	0.869139	0.869719	0.306955	1	0.0358715	12	0.000266965
2	1	0	1	0	189.765	0.860136	0.860621	0.257087	1	0.0361243	12	0.000221254
2	1	0	0	0	190.665	0.851134	0.851777	0.215477	1	0.036336	12	0.000183538
2	1	0	1	0	191.566	0.842131	0.842612	0.181017	1	0.0365137	12	0.000152527
2	1	0	1	0	192.466	0.833128	0.833737	0.152219	1	0.036663	12	0.000126911
2	1	0	0	0	193.366	0.824125	0.824406	0.128081	1	0.0367886	12	0.000105591
2	1	0	0	0	194.267	0.815122	0.81582	0.10785	1	0.0368943	12	8.79858e-05
2	1	0	1	0	195.167	0.80612	0.806434	0.0909337	1	0.0369833	12	7.33321e-05
2	1	0	1	0	196.067	0.797117	0.797635	0.076487	1	0.0370582	12	6.10087e-05
2	1	0	0	0	196.967	0.788114	0.788365	0.0642933	1	0.0371212	12	5.06865e-05
2	1	0	1	0	197.868	0.779111	0.779575	0.0539161	1	0.0371742	12	4.20317e-05
2	1	0	1	0	198.768	0.770108	0.770516	0.0451886	1	0.0372187	12	3.48185e-05
2	1	0	0	0	199.698	0.760806	0.761074	0.0377936	1	0.0372572	13	2.87637e-05
2	1	0	1	0	200.599	0.751803	0.752251	0.0314818	1	0.0372882	13	2.36822e-05
2	1	0	1	0	201.499	0.7428	0.743227	0.0261592	1	0.037314	13	1.94422e-05
2	1	0	0	0	202.399	0.733797	0.734261	0.0215673	1	0.0373354	13	1.5836e-05
2	1	0	0	0	203.299	0.724794	0.725411	0.0177497	1	0.037353	13	1.28758e-05
2	1	0	1	0	204.2	0.715792	0.716417	0.014474	1	0.0373674	13	1.03694e-05
2	1	0	1	0	205.1	0.706789	0.707404	0.0116679	1	0.037379	13	8.25393e-06
2	1	0	0	0	206	0.697786	0.69825	0.009269	1	0.0373884	13	6.47208e-06
2	1	0	1	0	206.9	0.688783	0.689221	0.00721498	1	0.0373957	13	4.97272e-06
2	1	0	1	0	207.801	0.67978	0.680427	0.0055011	1	0.0374015	13	3.74309e-06
2	1	0	0	0	208.701	0.670778	0.671014	0.00413291	1	0.0374059	13	2.77324e-06
2	1	0	1	0	209.601	0.661775	0.662179	0.00305919	1	0.0374092	13	2.02573e-06
2	1	0	1	0	210.502	0.652772	0.653238	0.00225257	1	0.0374116	13	1.47146e-06
2	1	0	0	0	211.402	0.643769	0.64437	0.00161564	1	0.0374133	13	1.04107e-06
2	1	0	0	0	212.302	0.634767	0.635335	0.00114773	1	0.0374146	13	7.29192e-07
2	1	0	1	0	213.202	0.625764	0.626218	0.000770116	1	0.0374154	13	4.82261e-07
2	1	0	1	0	214.103	0.616761	0.617344	0.000487869	1	0.0374159	13	3.01183e-07
2	1	0	0	0	215.003	0.607758	0.607974	0.000262676	1	0.0374163	13	1.597e-07
2	1	0	1	0	215.903	0.598755	0.599178	0.000137463	1	0.0374165	13	8.23648e-08
2	1	0	1	0	216.804	0.589753	0.590331	1.88781e-05	1	0.0374166	13	1.11443e-08
2	1	0	0	0	217.704	0.58075	0.580928	-3.65557e-05	1	0.0374167	13	-2.12362e-08
2	1	0	1	0	218.604	0.571746	0.572032	-4.98487e-05	1	0.0374167	13	-2.85151e-08
2	1	0	1	0	219.504	0.562744	0.563176	-4.31347e-05	1	0.0374167	13	-2.42925e-08
2	1	0	0	0	220.405	0.553741	0.554075	-3.56598e-05	1	0.0374166	13	-1.97582e-08
2	1	0	0	0	221.305	0.544739	0.545273	8.7233e-06	1	0.0374166	13	4.75658e-09
2	1	0	1	0	222.205	0.535736	0.536187	1.56054e-05	1	0.0374165	13	8.36743e-09
2	1	0	1	0	223.106	0.526732	0.527197	1.29033e-05	1	0.0374165	13	6.80259e-09
2	1	0	0	0	224.006	0.51773	0.518355	2.45218e-05	1	0.0374164	13	1.2711e-08
2	1	0	1	0	224.906	0.508727	0.509425	2.36099e-05	1	0.0374163	13	1.20275e-08
2	1	0	1	0	225.806	0.499725	0.50013	8.78801e-06	1	0.0374162	13	4.39515e-09
2	1	0	0	0	226.707	0.490722	0.491306	-4.27468e-06	1	0.0374161	13	-2.10017e-09
2	1	0	1	0	227.607	0.481719	0.482312	-1.8478e-06	1	0.037416	13	-8.91214e-10
2	1	0	1	0	228.507	0.472716	0.473307	-4.78709e-05	1	0.0374159	13	-2.26576e-08
2	1	0	0	0	229.407	0.463714	0.464135	-7.02398e-05	1	0.0374158	13	-3.26008e-08
2	1	0	0	0	230.308	0.454711	0.455193	-8.59588e-05	1	0.0374157	13	-3.91278e-08
2	1	0	1	0	231.208	0.445708	0.446142	-9.4525e-05	1	0.0374155	13	-4.21716e-08
2	1	0	0	0	232.108	0.436705	0.436943	-0.000107629	1	0.0374154	13	-4.70277e-08
2	0	0	0	0	233.009	0.427702	0.428126	-0.000136433	1	0.0374153	13	-5.84104e-08
2	0	0	1	0	233.909	0.4187	0.419385	-0.000133685	1	0.0374151	13	-5.60656e-08
2	0	0	1	0	234.809	0.409697	0.410107	-0.000118743	1	0.0374149	13	-4.86974e-08
2	0	0	0	0	235.709	0.400694	0.401074	-0.000116782	1	0.0374148	13	-4.68383e-08
2	0	0	1	0	236.61	0.391691	0.392354	-0.000118338	1	0.0374146	13	-4.64305e-08
2	0	0	1	0	237.51	0.382688	0.383036	-9.17201e-05	1	0.0374144	13	-3.51321e-08
2	0	0	0	0	238.41	0.373686	0.374131	-7.22783e-05	1	0.0374142	13	-2.70416e-08
2	0	0	1	0	239.31	0.364684	0.365197	-4.37982e-05	1	0.0374141	13	-1.5995e-08
2	0	0	1	0	240.211	0.35568	0.356067	-2.82776e-05	1	0.0374139	13	-1.00687e-08
2	0	0	0	0	241.111	0.346677	0.347134	-1.53311e-05	1	0.0374137	13	-5.32195e-09
2	0	0	0	0	242.011	0.337674	0.338076	1.71793e-05	1	0.0374135	13	5.8079e-09
2	0	0	1	0	242.912	0.328672	0.329456	2.22272e-05	1	0.0374133	13	7.3229e-09
2	0	0	1	0	243.812	0.31967	0.320219	1.39797e-05	1	0.0374131	13	4.47658e-09
2	0	0	0	0	244.712	0.310666	0.311401	-1.22114e-05	1	0.037413	13	-3.80265e-09
2	0	0	1	0	245.612	0.301663	0.301947	-3.35286e-05	1	0.0374128	13	-1.01238e-08
2	0	0	1	0	246.513	0.292661	0.29304	-5.51797e-05	1	0.0374126	13	-1.61698e-08
2	0	0	0	0	247.413	0.283658	0.284046	-7.91605e-05	1	0.0374124	13	-2.24852e-08
2	0	0	1	0	248.313	0.274655	0.275016	-0.000103811	1	0.0374123	13	-2.85497e-08
2	0	0	1	0	249.214	0.265652	0.266222	-0.000105917	1	0.0374121	13	-2.81974e-08
2	0	0	0	0	250.114	0.256649	0.256956	-8.87622e-05	1	0.0374119	13	-2.2808e-08
2	0	0	0	0	251.014	0.247647	0.248059	-3.37933e-05	1	0.0374118	13	-8.38274e-09
2	0	0	1	0	251.914	0.238644	0.238813	-1.98128e-05	1	0.0374116	13	-4.73157e-09
2	0	0	1	0	252.815	0.229641	0.230104	-1.06295e-05	1	0.0374115	13	-2.4459e-09
2	0	0	0	0	253.715	0.220638	0.220983	1.07928e-05	1	0.0374113	13	2.38502e-09
2	0	0	1	0	254.615	0.211635	0.212278	2.15521e-05	1	0.0374112	13	4.57503e-09
2	0	0	1	0	255.516	0.202633	0.203039	1.27637e-05	1	0.0374111	13	2.59154e-09
2	0	0	0	0	256.416	0.19363	0.193874	1.09101e-06	1	0.0374109	13	2.11519e-10
2	0	0	1	0	257.316	0.184627	0.185116	-2.28809e-05	1	0.0374108	13	-4.23562e-09
2	0	0	1	0	258.216	0.175624	0.176002	-6.20456e-05	1	0.0374107	13	-1.09201e-08
2	0	0	0	0	259.117	0.166621	0.167263	-8.67075e-05	1	0.0374106	13	-1.45029e-08
2	0	0	0	0	260.017	0.157619	0.158138	-0.000128971	1	0.0374104	13	-2.03952e-08
2	0	0	1	0	260.917	0.148616	0.149184	-0.000139347	1	0.0374103	13	-2.07882e-08
2	0	0	1	0	261.817	0.139613	0.140027	-0.000143389	1	0.0374102	13	-2.00783e-08
2	1	0	0	0	262.718	0.13061	0.130827	-0.000136094	1	0.0374101	13	-1.78048e-08
2	1	0	1	0	263.618	0.121608	0.122071	-9.21541e-05	1	0.03741	13	-1.12493e-08
2	1	0	1	0	264.518	0.112605	0.113131	-5.71006e-05	1	0.0374099	13	-6.45982e-09
2	1	0	0	0	265.419	0.103602	0.104183	-6.33532e-05	1	0.0374097	13	-6.60031e-09
2	1	0	1	0	266.319	0.0945985	0.0948331	-8.73561e-05	1	0.0374096	13	-8.28425e-09
2	1	0	1	0	267.219	0.0855964	0.0860856	-0.000163057	1	0.0374095	13	-1.40368e-08
2	1	0	0	0	268.119	0.0765936	0.0771315	-0.000213144	1	0.0374094	13	-1.64401e-08
2	1	0	0	0	269.02	0.0675908	0.0680277	-0.000239494	1	0.0374093	13	-1.62923e-08
2	1	0	1	0	269.92	0.058588	0.0587543	-0.000212825	1	0.0374092	13	-1.25044e-08
2	1	0	1	0	270.82	0.0495844	0.0499532	-0.000169815	1	0.0374091	13	-8.48278e-09
2	1	0	0	0	271.721	0.0405825	0.0411791	-0.000102657	1	0.037409	13	-4.22734e-09
2	1	0	1	0	272.621	0.0315797	0.0319639	-9.27453e-05	1	0.0374088	13	-2.9645e-09
2	1	0	1	0	273.521	0.0225769	0.0228729	-0.000160161	1	0.0374087	13	-3.66334e-09
2	1	0	0	0	274.421	0.0135741	0.0140397	-0.000183162	1	0.0374086	13	-2.57154e-09
2	1	0	1	0	275.322	0.0045713	0.00480548	-0.000194324	1	0.0374085	13	-9.33821e-10
2	1	0	1	1	276.132	0.00357188	0.00397587	-1.32306e-05	1	0.0374085	13	-5.26033e-11
2	1	0	1	1	277.033	0.0125738	0.013087	2.95948e-05	1	0.0374085	13	3.87307e-10
2	1	0	0	1	277.933	0.0215766	0.0219138	1.28844e-05	1	0.0374085	13	2.82346e-10
2	1	0	0	1	278.833	0.0305794	0.030799	-6.95764e-05	1	0.0374086	13	-2.14289e-09
2	1	0	1	1	279.734	0.0395821	0.0399282	-0.000112452	1	0.0374087	13	-4.49001e-09
2	1	0	0	1	280.484	0.0470845	0.0473175	-0.000149847	2	0.0374087	13	-7.09039e-09
2	1	0	0	1	281.384	0.0560873	0.0563513	-0.000119683	2	0.0374087	13	-6.74427e-09
2	1	0	1	1	282.284	0.0650901	0.0655993	-7.80044e-05	2	0.0374088	13	-5.11703e-09
2	1	0	0	1	283.185	0.0740928	0.0746129	-3.92179e-05	2	0.0374089	13	-2.92616e-09
2	1	0	0	1	284.085	0.0830956	0.0838917	1.98974e-05	2	0.0374089	13	1.66922e-09
2	1	0	1	1	284.985	0.0920984	0.0922549	2.44659e-05	2	0.037409	13	2.2571e-09
2	1	0	1	1	285.886	0.101101	0.10147	-4.58048e-05	2	0.037409	13	-4.64782e-09
2	1	0	0	1	286.786	0.110104	0.110488	-6.27531e-05	2	0.0374091	13	-6.93345e-09
2	1	0	1	1	287.686	0.119107	0.119708	-8.67913e-05	2	0.0374092	13	-1.03896e-08
2	1	0	1	1	288.586	0.12811	0.128675	-7.16253e-05	2	0.0374092	13	-9.21639e-09
2	1	0	0	1	289.487	0.137112	0.137396	-1.89465e-05	2	0.0374093	13	-2.60317e-09
2	1	0	1	1	290.387	0.146114	0.146629	5.35779e-05	2	0.0374094	13	7.85608e-09
2	1	0	1	1	291.287	0.155118	0.15544	9.96444e-05	2	0.0374095	13	1.54887e-08
2	1	0	0	1	292.187	0.164121	0.164542	0.000108012	2	0.0374095	13	1.77725e-08
2	0	0	0	1	293.088	0.173124	0.173469	8.52403e-05	2	0.0374096	13	1.47866e-08
2	0	0	1	1	293.988	0.182126	0.182487	5.65835e-05	2	0.0374097	13	1.03258e-08
2	1	0	1	1	294.888	0.191129	0.191572	3.98885e-05	2	0.0374098	13	7.64151e-09
2	0	0	0	1	295.789	0.200132	0.20035	3.97172e-05	2	0.0374099	13	7.95733e-09
2	0	0	1	1	296.689	0.209135	0.209528	6.02798e-05	2	0.03741	13	1.26303e-08
2	0	0	1	1	297.589	0.218137	0.218638	0.000113064	2	0.0374101	13	2.47202e-08
2	0	0	0	1	298.489	0.22714	0.227631	0.000159563	2	0.0374102	13	3.63215e-08
2	0	0	1	1	299.39	0.236143	0.236626	0.000200935	2	0.0374103	13	4.75464e-08
2	0	0	1	1	300.29	0.245146	0.24551	0.000238979	2	0.0374104	13	5.86716e-08
2	0	0	0	1	301.19	0.254149	0.254812	0.000243784	2	0.0374106	13	6.21191e-08
2	0	0	0	1	302.091	0.263151	0.263539	0.000247363	2	0.0374107	13	6.51897e-08
2	0	0	1	1	302.991	0.272154	0.272833	0.000230448	2	0.0374108	13	6.28737e-08
2	0	0	1	1	303.891	0.281157	0.281586	0.000206569	2	0.037411	13	5.81669e-08
2	0	0	0	1	304.791	0.29016	0.290656	0.000204377	2	0.0374111	13	5.94034e-08
2	0	0	1	1	305.692	0.299163	0.299467	0.000191686	2	0.0374113	13	5.74037e-08
2	0	0	1	1	306.592	0.308165	0.308423	0.000166908	2	0.0374114	13	5.14784e-08
2	0	0	0	1	307.492	0.317168	0.317268	0.000165608	2	0.0374116	13	5.25421e-08
2	0	0	1	1	308.392	0.326171	0.326542	0.000180369	2	0.0374118	13	5.88982e-08
2	0	0	1	1	309.293	0.335174	0.335555	0.000209869	2	0.037412	13	7.04227e-08
2	0	0	0	1	310.193	0.344176	0.344513	0.000234396	2	0.0374121	13	8.07522e-08
2	0	0	0	1	311.093	0.353179	0.353798	0.00027064	2	0.0374123	13	9.5752e-08
2	0	0	1	1	311.994	0.362182	0.362617	0.000275644	2	0.0374125	13	9.99534e-08
2	0	0	1	1	312.894	0.371186	0.371682	0.000270921	2	0.0374127	13	1.00697e-07
2	0	0	0	1	313.794	0.380188	0.380587	0.000285203	2	0.0374129	13	1.08545e-07
2	0	0	1	1	314.694	0.38919	0.389541	0.000295549	2	0.0374131	13	1.15129e-07
2	0	0	1	1	315.595	0.398193	0.398927	0.000277109	2	0.0374133	13	1.10546e-07
2	0	0	0	1	316.495	0.407196	0.40778	0.000276834	2	0.0374135	13	1.12887e-07
2	0	0	1	1	317.395	0.416199	0.416692	0.000269626	2	0.0374137	13	1.12351e-07
2	0	0	1	1	318.296	0.425202	0.425622	0.000251035	2	0.0374139	13	1.06846e-07
2	0	0	0	1	319.196	0.434204	0.434687	0.000254602	2	0.0374141	13	1.10672e-07
2	0	0	0	1	320.096	0.443207	0.443659	0.000220752	2	0.0374143	13	9.79385e-08
2	0	0	1	1	320.996	0.45221	0.452843	0.000221059	2	0.0374145	13	1.00105e-07
2	0	0	0	1	321.897	0.461213	0.461632	0.000210118	2	0.0374147	13	9.69969e-08
2	0	0	0	1	322.797	0.470216	0.470746	0.000183055	2	0.0374149	13	8.61725e-08
2	0	0	1	1	323.697	0.479218	0.479683	0.000175021	2	0.0374151	13	8.39549e-08
2	0	0	1	1	324.598	0.488221	0.488862	0.000150405	2	0.0374153	13	7.35274e-08
2	0	0	0	1	325.498	0.497224	0.497758	0.000139939	2	0.0374155	13	6.96556e-08
2	0	0	1	1	326.398	0.506227	0.5069	0.000127673	2	0.0374157	13	6.47175e-08
2	0	0	1	1	327.298	0.515229	0.515535	0.000115216	2	0.0374159	13	5.9398e-08
2	0	0	0	1	328.199	0.524232	0.524632	0.000110704	2	0.0374161	13	5.80787e-08
2	1	0	0	1	329.099	0.533235	0.533619	0.00012352	2	0.0374163	13	6.59125e-08
2	1	0	1	1	329.999	0.542238	0.542625	0.00015362	2	0.0374165	13	8.33584e-08
2	1	0	0	1	330.899	0.551241	0.551517	0.000172275	2	0.0374167	13	9.50128e-08
2	0	0	0	1	331.8	0.560243	0.560772	0.000203546	2	0.037417	13	1.14143e-07
2	1	0	1	1	332.7	0.569246	0.569673	0.000224697	2	0.0374172	13	1.28004e-07
2	1	0	1	1	333.6	0.578248	0.578685	0.000218438	2	0.0374174	13	1.26407e-07
2	1	0	0	1	334.501	0.587252	0.587563	0.000242554	2	0.0374177	13	1.42516e-07
2	1	0	1	1	335.401	0.596255	0.596892	0.000250854	2	0.037418	13	1.49733e-07
2	1	0	1	1	336.301	0.605257	0.605708	0.000249819	2	0.0374183	13	1.51317e-07
2	1	0	0	1	337.201	0.61426	0.614693	0.000325276	2	0.0374187	13	1.99944e-07
2	1	0	1	1	338.102	0.623263	0.623749	0.000429009	2	0.0374192	13	2.67594e-07
2	1	0	1	1	339.002	0.632266	0.632701	0.00063008	2	0.0374198	13	3.98652e-07
2	1	0	0	1	339.902	0.641268	0.641667	0.000947776	2	0.0374207	13	6.08157e-07
2	1	0	0	1	340.803	0.650271	0.650754	0.00139936	2	0.037422	13	9.10637e-07
2	1	0	1	1	341.703	0.659274	0.659529	0.00200573	2	0.0374236	13	1.32284e-06
2	1	0	1	1	342.603	0.668276	0.668788	0.00283401	2	0.037426	13	1.89535e-06
2	1	0	0	1	343.503	0.67728	0.677738	0.00390528	2	0.0374291	13	2.64675e-06
2	1	0	1	1	344.404	0.686282	0.686724	0.00523912	2	0.0374333	13	3.59783e-06
2	1	0	1	1	345.304	0.695285	0.695928	0.00691982	2	0.0374389	13	4.81569e-06
2	1	0	0	1	346.204	0.704288	0.70481	0.00896477	2	0.0374461	13	6.31846e-06
2	1	0	1	1	347.104	0.713291	0.71387	0.0114282	2	0.0374554	13	8.15824e-06
2	1	0	1	1	348.005	0.722294	0.722713	0.0143674	2	0.037467	13	1.03835e-05
2	1	0	0	1	348.905	0.731296	0.731852	0.0178523	2	0.0374816	13	1.30652e-05
2	1	0	0	1	349.805	0.740299	0.740705	0.0219878	2	0.0374996	13	1.62865e-05
2	1	0	1	1	350.706	0.749302	0.749781	0.0268035	2	0.0375216	13	2.00968e-05
2	1	0	1	1	351.606	0.758305	0.758919	0.032482	2	0.0375483	13	2.46512e-05
2	1	0	0	1	352.506	0.767308	0.767731	0.0391941	2	0.0375806	13	3.00905e-05
2	1	0	1	1	353.406	0.77631	0.776683	0.0470875	2	0.0376195	13	3.65721e-05
2	1	0	1	1	354.307	0.785313	0.78586	0.0564144	2	0.0376661	13	4.43338e-05
2	1	0	0	1	355.207	0.794316	0.794739	0.0674953	2	0.0377219	13	5.36412e-05
2	1	0	1	1	356.107	0.80332	0.803748	0.080752	2	0.0377887	13	6.49042e-05
2	1	0	1	1	357.008	0.812321	0.812873	0.0966413	2	0.0378687	13	7.85571e-05
2	1	0	0	1	357.938	0.821624	0.822028	0.116472	2	0.0379679	12	9.57429e-05
2	1	0	0	1	358.838	0.830627	0.831202	0.139706	2	0.0380832	12	0.000116124
2	1	0	1	1	359.738	0.83963	0.83998	0.167621	2	0.0382214	12	0.000140798
2	1	0	1	1	360.639	0.848633	0.849262	0.201099	2	0.0383872	12	0.000170785
2	1	0	0	1	361.539	0.857635	0.858054	0.241448	2	0.0385863	12	0.000207175
2	1	0	1	1	362.439	0.866638	0.867297	0.289415	2	0.0388251	12	0.000251009
2	1	0	1	1	363.34	0.875641	0.87616	0.346199	2	0.0391112	12	0.000303326
2	1	0	0	1	364.24	0.884644	0.885174	0.413353	2	0.039453	12	0.000365889
2	1	0	1	1	365.14	0.893647	0.893996	0.491872	2	0.0398604	12	0.000439732
2	1	0	1	1	366.04	0.902649	0.903203	0.582542	2	0.040344	12	0.000526154
2	1	0	0	1	366.941	0.911652	0.912156	0.686676	2	0.0409153	12	0.000626356
2	1	0	0	1	367.841	0.920655	0.921148	0.804734	2	0.0415867	12	0.00074128
2	1	0	1	1	368.741	0.929658	0.930199	0.93641	2	0.0423703	12	0.000871048
2	1	0	1	1	369.656	0.938811	0.939313	1.08396	2	0.043296	12	0.00101818
2	1	0	0	1	370.572	0.947964	0.948468	1.24608	2	0.0443626	11	0.00118187
2	1	0	1	1	371.472	0.956966	0.957283	1.41853	2	0.0455624	11	0.00135794
2	1	0	1	1	372.372	0.965969	0.966825	1.6026	2	0.0469233	11	0.00154944
2	1	0	0	1	373.273	0.974972	0.97545	1.79843	2	0.0484551	11	0.00175428
2	1	0	1	1	374.173	0.983975	0.984293	2.00387	2	0.0501673	11	0.0019724
2	1	0	1	1	375.073	0.992978	0.993414	2.21773	2	0.0520686	11	0.00220313
2	1	0	0	1	375.834	0.999479	1.00002	2.37535	2	0.0538262	11	0.0023754
2	1	0	1	1	376.734	0.990477	0.990982	2.10804	2	0.0558416	11	0.00208903
2	1	0	1	1	377.634	0.981474	0.98192	1.86022	2	0.0576253	11	0.00182658
2	1	0	0	1	378.535	0.972471	0.973348	1.63178	2	0.0591945	11	0.00158829
2	1	0	0	1	379.435	0.963468	0.963886	1.42219	2	0.060567	11	0.00137083
2	1	0	1	1	380.335	0.954466	0.954887	1.23203	2	0.0617596	11	0.00117645
2	1	0	1	1	381.235	0.945463	0.94594	1.06106	2	0.0627897	11	0.0010037
2	1	0	0	1	382.136	0.93646	0.936983	0.908519	2	0.0636742	11	0.000851266
2	1	0	1	1	383.036	0.927457	0.927772	0.7735	2	0.0644296	11	0.000717632
2	1	0	1	1	383.936	0.918454	0.918991	0.656428	2	0.0650719	11	0.000603251
2	1	0	0	1	384.837	0.909452	0.910023	0.555645	2	0.0656161	11	0.00050565
2	1	0	1	1	385.737	0.900448	0.900975	0.469427	2	0.0660763	11	0.000422942
2	1	0	1	1	386.667	0.891146	0.891433	0.395314	2	0.0664776	12	0.000352396
2	1	0	0	1	387.567	0.882143	0.882684	0.334013	2	0.0668048	12	0.000294828
2	1	0	0	1	388.468	0.87314	0.873456	0.282379	2	0.0670816	12	0.000246646
2	1	0	1	1	389.368	0.864138	0.864644	0.239304	2	0.0673158	12	0.000206913
2	1	0	1	1	390.268	0.855135	0.855574	0.203065	2	0.0675143	12	0.000173737
2	1	0	0	1	391.169	0.846132	0.846638	0.172635	2	0.0676828	12	0.000146159
2	1	0	1	1	392.069	0.837129	0.837503	0.146519	2	0.067826	12	0.00012271
2	1	0	1	1	392.969	0.828126	0.828476	0.124675	2	0.0679478	12	0.00010329
2	1	0	0	1	393.869	0.819124	0.819419	0.105954	2	0.0680513	12	8.68205e-05
2	1	0	1	1	394.77	0.810121	0.810735	0.0900701	2	0.0681392	12	7.3023e-05
2	1	0	1	1	395.67	0.801118	0.801678	0.0764853	2	0.0682139	12	6.13166e-05
2	1	0	0	1	396.57	0.792115	0.79274	0.0648209	2	0.0682771	12	5.13861e-05
2	1	0	0	1	397.471	0.783112	0.783644	0.0546972	2	0.0683306	12	4.28631e-05
2	1	0	1	1	398.371	0.77411	0.774478	0.0460036	2	0.0683757	12	3.56287e-05
2	1	0	1	1	399.301	0.764807	0.765161	0.0384223	2	0.0684148	13	2.93993e-05
2	1	0	0	1	400.201	0.755804	0.756152	0.0320827	2	0.0684464	13	2.42594e-05
2	1	0	1	1	401.102	0.746801	0.747272	0.0267075	2	0.0684728	13	1.99578e-05
2	1	0	1	1	402.002	0.737798	0.738257	0.0221715	2	0.0684946	13	1.63682e-05
2	1	0	0	1	402.902	0.728796	0.729086	0.0182796	2	0.0685126	13	1.33274e-05
2	1	0	1	1	403.802	0.719793	0.720322	0.0149143	2	0.0685273	13	1.07431e-05
2	1	0	1	1	404.703	0.71079	0.711272	0.0120257	2	0.0685392	13	8.55356e-06
2	1	0	0	1	405.603	0.701787	0.702236	0.00954911	2	0.0685487	13	6.70574e-06
2	1	0	0	1	406.503	0.692784	0.693085	0.00745993	2	0.0685562	13	5.17036e-06
2	1	0	1	1	407.404	0.683782	0.68442	0.00573014	2	0.0685621	13	3.92183e-06
2	1	0	1	1	408.304	0.674779	0.675263	0.004334	2	0.0685665	13	2.92659e-06
2	1	0	0	1	409.204	0.665776	0.666138	0.003246	2	0.0685698	13	2.16228e-06
2	0	0	1	1	410.104	0.656773	0.657256	0.00240888	2	0.0685722	13	1.58325e-06
2	0	0	1	1	411.005	0.647771	0.648302	0.00176008	2	0.0685739	13	1.14106e-06
2	0	0	0	1	411.905	0.638768	0.639225	0.00126083	2	0.0685751	13	8.05957e-07
2	0	0	1	1	412.805	0.629765	0.630252	0.000862718	2	0.0685759	13	5.4373e-07
2	0	0	1	1	413.706	0.620762	0.621133	0.000542534	2	0.0685764	13	3.36986e-07
2	0	0	0	1	414.606	0.611759	0.612025	0.000327516	2	0.0685767	13	2.00448e-07
2	0	0	0	1	415.506	0.602757	0.603064	0.000166173	2	0.0685769	13	1.00213e-07
2	0	0	1	1	416.406	0.593754	0.594265	5.52686e-05	2	0.068577	13	3.28442e-08
2	0	0	1	1	417.307	0.58475	0.585136	7.12499e-06	2	0.068577	13	4.16909e-09
2	0	0	0	1	418.207	0.575748	0.576326	-2.10366e-05	2	0.068577	13	-1.21239e-08
2	1	0	1	1	419.107	0.566745	0.567196	-3.47847e-05	2	0.0685769	13	-1.97297e-08
2	1	0	1	1	420.008	0.557743	0.558101	-3.78048e-06	2	0.0685769	13	-2.10989e-09
2	1	0	0	1	420.908	0.54874	0.5491	-5.87201e-06	2	0.0685768	13	-3.22432e-09
2	0	0	1	1	421.808	0.539737	0.540225	-6.65303e-06	2	0.0685768	13	-3.59413e-09
2	1	0	1	1	422.708	0.530734	0.53105	-2.1302e-06	2	0.0685767	13	-1.13124e-09
2	1	0	0	1	423.609	0.521732	0.521929	3.18404e-06	2	0.0685766	13	1.66184e-09
2	1	0	0	1	424.509	0.512729	0.513444	-2.58331e-05	2	0.0685765	13	-1.32638e-08
2	1	0	1	1	425.409	0.503726	0.504252	-3.76676e-05	2	0.0685764	13	-1.89939e-08
2	1	0	0	1	426.309	0.494723	0.495162	-5.31174e-05	2	0.0685763	13	-2.63017e-08
2	1	0	0	1	427.21	0.48572	0.486225	-8.75532e-05	2	0.0685762	13	-4.25705e-08
2	1	0	1	1	428.11	0.476718	0.477385	-9.97598e-05	2	0.0685761	13	-4.76239e-08
2	1	0	1	1	429.01	0.467715	0.468042	-0.00015699	2	0.0685759	13	-7.34776e-08
2	1	0	0	1	429.911	0.458712	0.459198	-0.000163845	2	0.0685758	13	-7.52374e-08
2	1	0	1	1	430.811	0.449709	0.450183	-0.000174724	2	0.0685756	13	-7.86576e-08
2	1	0	1	1	431.711	0.440706	0.441	-0.000217815	2	0.0685755	13	-9.60566e-08
2	1	0	0	1	432.611	0.431704	0.432094	-0.000219285	2	0.0685753	13	-9.47515e-08
2	1	0	1	1	433.512	0.422702	0.422925	-0.000261611	2	0.0685752	13	-1.10642e-07
2	1	0	1	1	434.412	0.413698	0.413792	-0.000281712	2	0.068575	13	-1.1657e-07
2	1	0	0	1	435.312	0.404695	0.405196	-0.000292301	2	0.0685748	13	-1.18439e-07
2	1	0	0	1	436.213	0.395692	0.395871	-0.000300051	2	0.0685747	13	-1.18781e-07
2	1	0	1	1	437.113	0.38669	0.386861	-0.000298514	2	0.0685745	13	-1.15484e-07
2	1	0	1	1	438.013	0.377688	0.378071	-0.000304229	2	0.0685743	13	-1.1502e-07
2	1	0	0	1	438.913	0.368684	0.36906	-0.000289942	2	0.0685741	13	-1.07006e-07
2	1	0	1	1	439.814	0.359681	0.359881	-0.000290879	2	0.0685739	13	-1.04682e-07
2	1	0	1	1	440.714	0.350679	0.351085	-0.000259936	2	0.0685737	13	-9.12597e-08
2	1	0	0	1	441.614	0.341676	0.342157	-0.000253067	2	0.0685735	13	-8.65889e-08
2	1	0	1	1	442.514	0.332673	0.332917	-0.000229285	2	0.0685734	13	-7.63329e-08
2	1	0	1	1	443.415	0.32367	0.324069	-0.000224091	2	0.0685732	13	-7.26211e-08
2	1	0	0	1	444.315	0.314667	0.315301	-0.000215096	2	0.068573	13	-6.782e-08
2	1	0	0	1	445.215	0.305665	0.306193	-0.000188048	2	0.0685728	13	-5.75791e-08
2	1	0	1	1	446.116	0.296662	0.297219	-0.000177473	2	0.0685726	13	-5.27482e-08
2	1	0	1	1	447.016	0.287659	0.288042	-0.000166286	2	0.0685724	13	-4.78972e-08
2	1	0	0	1	447.916	0.278656	0.279284	-0.000149982	2	0.0685723	13	-4.18877e-08
2	1	0	1	1	448.816	0.269653	0.270208	-0.000145198	2	0.0685721	13	-3.92336e-08
2	1	0	1	1	449.717	0.260651	0.261171	-0.000163667	2	0.0685719	13	-4.27451e-08
2	1	0	0	1	450.617	0.251648	0.252048	-0.000198269	2	0.0685718	13	-4.99734e-08
2	1	0	1	1	451.517	0.242645	0.243034	-0.00022389	2	0.0685716	13	-5.44128e-08
2	1	0	1	1	452.418	0.233642	0.234084	-0.000243952	2	0.0685715	13	-5.71053e-08
2	1	0	0	1	453.318	0.224639	0.224963	-0.000225008	2	0.0685713	13	-5.06184e-08
2	1	0	0	1	454.218	0.215637	0.216134	-0.00013252	2	0.0685712	13	-2.86421e-08
2	1	0	1	1	455.118	0.206634	0.207404	-6.99691e-05	2	0.0685711	13	-1.45119e-08
2	1	0	1	1	456.019	0.197631	0.19814	-2.95985e-05	2	0.0685709	13	-5.86463e-09
2	0	0	0	1	456.919	0.188628	0.1892	-4.30156e-05	2	0.0685708	13	-8.13853e-09
2	0	0	1	1	457.819	0.179626	0.179978	-8.53631e-05	2	0.0685707	13	-1.53635e-08
2	0	0	1	1	458.72	0.170623	0.171074	-0.000128742	2	0.0685705	13	-2.20243e-08
2	0	0	0	1	459.62	0.16162	0.161918	-0.000112608	2	0.0685704	13	-1.82332e-08
2	0	0	1	1	460.52	0.152617	0.152924	-5.87376e-05	2	0.0685703	13	-8.98239e-09
2	0	0	1	1	461.42	0.143614	0.143888	1.56422e-05	2	0.0685702	13	2.25072e-09
2	0	0	0	1	462.321	0.134612	0.13468	6.75561e-05	2	0.0685701	13	9.09846e-09
2	0	0	0	1	463.221	0.125609	0.125958	7.32351e-05	2	0.0685699	13	9.22456e-09
2	0	0	1	1	464.121	0.116606	0.117111	2.17757e-05	2	0.0685698	13	2.55017e-09
2	0	0	1	1	465.021	0.107602	0.107806	-2.52944e-05	2	0.0685697	13	-2.72689e-09
2	0	0	0	1	465.922	0.0986004	0.0987424	-7.37021e-05	2	0.0685696	13	-7.27753e-09
2	0	0	1	1	466.822	0.0895976	0.090167	-4.9708e-05	2	0.0685695	13	-4.48202e-09
2	0	0	1	1	467.722	0.0805949	0.080781	2.17213e-05	2	0.0685694	13	1.75467e-09
2	0	0	0	1	468.623	0.0715921	0.0722205	4.78775e-05	2	0.0685692	13	3.45774e-09
2	0	0	1	1	469.523	0.0625893	0.063017	1.46685e-05	2	0.0685691	13	9.24363e-10
2	0	0	1	1	470.423	0.0535865	0.0539154	-9.09538e-05	2	0.068569	13	-4.90381e-09
2	0	0	0	1	471.323	0.0445837	0.0450917	-0.000138732	2	0.0685689	13	-6.25565e-09
2	1	0	0	1	472.224	0.0355809	0.0358639	-0.000133198	2	0.0685688	13	-4.77701e-09
2	1	0	1	1	473.124	0.0265781	0.0269055	-9.5056e-05	2	0.0685687	13	-2.55753e-09
2	1	0	0	1	474.024	0.0175753	0.018138	-5.28542e-05	2	0.0685686	13	-9.58672e-10
2	1	0	0	1	474.925	0.00857254	0.00903324	-6.6567e-05	2	0.0685685	13	-6.01315e-10
2	1	0	0	0	475.78	1.98929e-05	-0.000143709	-0.000873494	2	0.0685683	13	1.25529e-10
2	0	0	1	0	476.636	0.00857254	0.0088253	-1.96103e-06	2	0.0685684	13	-1.73067e-11
2	0	0	1	0	477.536	0.0175753	0.0178198	3.51546e-05	2	0.0685684	13	6.26447e-10
2	0	0	0	0	478.436	0.0265781	0.0269394	9.66732e-05	2	0.0685685	13	2.60432e-09
2	0	0	1	0	479.336	0.0355809	0.0358915	0.000138549	2	0.0685685	13	4.97271e-09
2	0	0	1	0	480.087	0.0430832	0.0435354	0.000113418	3	0.0685686	13	4.93768e-09
2	0	0	0	0	480.987	0.052086	0.0525892	3.78213e-05	3	0.0685686	13	1.98899e-09
2	0	0	1	0	481.887	0.0610888	0.061466	-2.48476e-05	3	0.0685687	13	-1.52728e-09
2	0	0	1	0	482.788	0.0700916	0.070645	-5.58356e-05	3	0.0685687	13	-3.94451e-09
2	1	0	0	0	483.688	0.0790944	0.0794666	-9.68306e-06	3	0.0685688	13	-7.69479e-10
2	0	0	1	0	484.588	0.0880965	0.0883934	5.65837e-05	3	0.0685688	13	5.00162e-09
2	1	0	1	0	485.488	0.0971	0.0974523	3.41162e-05	3	0.0685689	13	3.3247e-09
2	1	0	0	0	486.389	0.106103	0.106634	-4.12859e-05	3	0.068569	13	-4.40246e-09
2	1	0	0	0	487.289	0.115106	0.115633	-0.000134379	3	0.068569	13	-1.55387e-08
2	1	0	1	0	488.189	0.124108	0.124535	-0.000130966	3	0.0685691	13	-1.63099e-08
2	1	0	1	0	489.089	0.133111	0.133473	-4.96589e-05	3	0.0685691	13	-6.6281e-09
2	1	0	0	0	489.99	0.142114	0.142537	2.14462e-05	3	0.0685692	13	3.05688e-09
2	1	0	1	0	490.89	0.151117	0.151464	2.10432e-05	3	0.0685693	13	3.18728e-09
2	1	0	1	0	491.79	0.160119	0.160509	-4.23435e-05	3	0.0685694	13	-6.79651e-09
2	1	0	0	0	492.691	0.169122	0.169635	-6.24486e-05	3	0.0685694	13	-1.05935e-08
2	1	0	1	0	493.591	0.178125	0.178464	-8.06817e-05	3	0.0685695	13	-1.43988e-08
2	1	0	1	0	494.491	0.187128	0.18736	-1.85067e-05	3	0.0685696	13	-3.46742e-09
2	1	0	0	0	495.391	0.196131	0.196386	4.91895e-05	3	0.0685697	13	9.66014e-09
2	1	0	0	0	496.292	0.205133	0.205341	0.000111144	3	0.0685698	13	2.28224e-08
2	1	0	1	0	497.192	0.214136	0.214737	0.000124147	3	0.0685699	13	2.6659e-08
2	1	0	1	0	498.092	0.223139	0.223528	9.66836e-05	3	0.06857	13	2.16115e-08
2	0	0	0	0	498.993	0.232142	0.232478	6.05799e-05	3	0.0685701	13	1.40835e-08
2	1	0	1	0	499.893	0.241145	0.241566	4.29016e-05	3	0.0685702	13	1.03636e-08
2	0	0	1	0	500.793	0.250147	0.250318	6.45997e-05	3	0.0685703	13	1.61705e-08
2	0	0	0	0	501.693	0.25915	0.25933	0.000113029	3	0.0685705	13	2.93119e-08
2	0	0	1	0	502.594	0.268153	0.268475	0.000202459	3	0.0685706	13	5.43553e-08
2	0	0	1	0	503.494	0.277156	0.277759	0.000263594	3	0.0685707	13	7.32154e-08
2	0	0	0	0	504.394	0.286159	0.286663	0.000250631	3	0.0685709	13	7.18466e-08
2	0	0	0	0	505.295	0.295161	0.295576	0.000170782	3	0.068571	13	5.04791e-08
2	0	0	1	0	506.195	0.304164	0.304365	0.000141359	3	0.0685712	13	4.30249e-08
2	0	0	1	0	507.095	0.313168	0.31332	0.000177988	3	0.0685713	13	5.57671e-08
2	0	0	0	0	507.995	0.32217	0.322753	0.000250066	3	0.0685715	13	8.07096e-08
2	0	0	1	0	508.896	0.331172	0.331856	0.000249194	3	0.0685717	13	8.26965e-08
2	0	0	1	0	509.796	0.340175	0.340279	0.000156765	3	0.0685718	13	5.33438e-08
2	0	0	0	0	510.696	0.349178	0.349777	9.69115e-05	3	0.068572	13	3.38974e-08
2	0	0	1	0	511.596	0.358182	0.358738	9.24722e-05	3	0.0685722	13	3.31732e-08
2	1	0	1	0	512.497	0.367184	0.367593	0.000148277	3	0.0685724	13	5.45055e-08
2	1	0	0	0	513.397	0.376186	0.376683	0.000167964	3	0.0685726	13	6.32693e-08
2	1	0	0	0	514.297	0.385189	0.385758	0.000104926	3	0.0685728	13	4.04761e-08
2	1	0	1	0	515.198	0.394192	0.394376	2.40261e-05	3	0.068573	13	9.4753e-09
2	1	0	0	0	516.098	0.403195	0.403655	-2.83791e-05	3	0.0685731	13	-1.14554e-08
2	1	0	0	0	516.998	0.412198	0.412732	-2.64052e-05	3	0.0685733	13	-1.08983e-08
2	1	0	1	0	517.898	0.4212	0.4217	3.09642e-05	3	0.0685735	13	1.30576e-08
2	1	0	1	0	518.799	0.430203	0.430404	8.67523e-05	3	0.0685737	13	3.73385e-08
2	1	0	0	0	519.699	0.439206	0.439814	8.58198e-05	3	0.0685739	13	3.77447e-08
2	1	0	1	0	520.599	0.448209	0.448844	6.37628e-05	3	0.0685741	13	2.86196e-08
2	1	0	1	0	521.5	0.457212	0.457651	6.98622e-06	3	0.0685742	13	3.19725e-09
2	1	0	0	0	522.4	0.466214	0.466706	-4.8866e-06	3	0.0685744	13	-2.28061e-09
2	1	0	0	0	523.3	0.475217	0.475486	4.80717e-05	3	0.0685746	13	2.28574e-08
2	1	0	1	0	524.2	0.48422	0.484517	0.000123281	3	0.0685748	13	5.97318e-08
2	1	0	0	0	525.101	0.493223	0.493728	0.000171093	3	0.068575	13	8.44732e-08
2	1	0	0	0	526.001	0.502226	0.502433	0.00018502	3	0.0685752	13	9.29602e-08
2	1	0	1	0	526.901	0.511228	0.511642	0.000157133	3	0.0685753	13	8.03958e-08
2	1	0	1	0	527.801	0.52023	0.520308	0.000103417	3	0.0685755	13	5.3809e-08
2	0	0	0	0	528.702	0.529234	0.529512	0.000117218	3	0.0685757	13	6.20685e-08
2	0	0	1	0	529.602	0.538237	0.538572	0.000185816	3	0.0685759	13	1.00075e-07
2	0	0	1	0	530.502	0.547239	0.547753	0.000286945	3	0.0685761	13	1.57175e-07
2	0	0	0	0	531.403	0.556242	0.556888	0.000310517	3	0.0685763	13	1.72923e-07
2	0	0	1	0	532.303	0.565245	0.565364	0.000268916	3	0.0685765	13	1.52036e-07
2	0	0	1	0	533.203	0.574248	0.57466	0.000224192	3	0.0685767	13	1.28834e-07
2	0	0	0	0	534.103	0.583251	0.58345	0.000212784	3	0.0685769	13	1.24149e-07
2	0	0	0	0	535.004	0.592253	0.592606	0.000294005	3	0.0685771	13	1.74229e-07
2	0	0	1	0	535.904	0.601256	0.601727	0.000389839	3	0.0685774	13	2.34577e-07
2	0	0	1	0	536.804	0.610259	0.610754	0.000493269	3	0.0685777	13	3.01266e-07
2	0	0	0	0	537.705	0.619262	0.619735	0.000557178	3	0.0685782	13	3.45303e-07
2	0	0	1	0	538.605	0.628265	0.628793	0.000667912	3	0.0685787	13	4.19978e-07
2	0	0	1	0	539.505	0.637267	0.637487	0.000874548	3	0.0685795	13	5.57514e-07
2	1	0	0	0	540.405	0.64627	0.646667	0.00127786	3	0.0685805	13	8.26349e-07
2	1	0	1	0	541.306	0.655273	0.655708	0.00187053	3	0.068582	13	1.22652e-06
2	1	0	1	0	542.206	0.664276	0.66485	0.00257502	3	0.068584	13	1.712e-06
2	1	0	0	0	543.106	0.673278	0.673894	0.0034301	3	0.0685868	13	2.31152e-06
2	1	0	0	0	544.007	0.682281	0.682844	0.0045162	3	0.0685905	13	3.08386e-06
2	1	0	1	0	544.907	0.691284	0.691779	0.00601612	3	0.0685954	13	4.16183e-06
2	1	0	1	0	545.807	0.700287	0.700886	0.00795549	3	0.0686018	13	5.57589e-06
2	1	0	0	0	546.707	0.70929	0.710065	0.0102016	3	0.06861	13	7.24378e-06
2	1	0	1	0	547.608	0.718292	0.718847	0.0128091	3	0.0686204	13	9.20781e-06
2	1	0	1	0	548.508	0.727295	0.727749	0.0158372	3	0.0686334	13	1.15255e-05
2	1	0	0	0	549.408	0.736298	0.736816	0.0195363	3	0.0686495	13	1.43947e-05
2	1	0	1	0	550.308	0.745301	0.745918	0.0239091	3	0.0686692	13	1.78342e-05
2	1	0	1	0	551.209	0.754304	0.754648	0.0289855	3	0.068693	13	2.18739e-05
2	1	0	0	0	552.109	0.763306	0.763601	0.0348118	3	0.0687217	13	2.65824e-05
2	1	0	0	0	553.009	0.772309	0.772854	0.0415797	3	0.0687561	13	3.2135e-05
2	1	0	1	0	553.91	0.781312	0.781679	0.0495889	3	0.0687971	13	3.87626e-05
2	1	0	0	0	554.81	0.790315	0.790636	0.0590312	3	0.0688461	13	4.66722e-05
2	1	0	0	0	555.71	0.799317	0.799596	0.0702333	3	0.0689042	13	5.61582e-05
2	1	0	1	0	556.61	0.80832	0.808999	0.0834868	3	0.0689733	13	6.75407e-05
2	1	0	1	0	557.511	0.817323	0.817988	0.0991793	3	0.0690554	13	8.11275e-05
2	1	0	0	0	558.441	0.826626	0.827259	0.118079	3	0.0691565	12	9.7682e-05
2	1	0	1	0	559.341	0.835629	0.835846	0.140434	3	0.0692729	12	0.000117381
2	1	0	1	0	560.242	0.844631	0.845209	0.167188	3	0.0694112	12	0.000141309
2	1	0	0	0	561.142	0.853634	0.854188	0.198955	3	0.0695759	12	0.000169945
2	1	0	0	0	562.042	0.862637	0.863012	0.236534	3	0.0697717	12	0.000204132
2	1	0	1	0	562.942	0.87164	0.871992	0.281205	3	0.0700043	12	0.000245208
2	1	0	1	0	563.843	0.880643	0.880993	0.333623	3	0.0702807	12	0.000293919
2	1	0	0	0	564.743	0.889645	0.890191	0.395289	3	0.0706085	12	0.000351882
2	1	0	1	0	565.643	0.898648	0.899428	0.467386	3	0.0709964	12	0.00042038
2	1	0	1	0	566.544	0.907651	0.908069	0.550962	3	0.0714542	12	0.000500312
2	1	0	0	0	567.444	0.916654	0.917159	0.64662	3	0.0719924	12	0.000593053
2	1	0	1	0	568.344	0.925657	0.926094	0.754761	3	0.0726224	12	0.00069898
2	1	0	1	0	569.244	0.934659	0.93512	0.876486	3	0.0733561	12	0.000819619
2	1	0	0	0	570.145	0.943662	0.944161	1.01138	3	0.0742052	12	0.000954901
2	1	0	0	0	571.075	0.952965	0.953358	1.16304	3	0.0752168	11	0.00110879
2	1	0	1	0	571.975	0.961968	0.962444	1.32393	3	0.0763359	11	0.00127421
2	1	0	1	0	572.875	0.970971	0.971424	1.49595	3	0.0776047	11	0.0014532
2	1	0	0	0	573.776	0.979974	0.980563	1.67814	3	0.0790332	11	0.00164552
2	1	0	1	0	574.676	0.988976	0.989492	1.86955	3	0.0806301	11	0.00184991
2	1	0	1	0	575.576	0.997979	0.998465	2.06987	3	0.0824035	11	0.00206669
2	1	0	0	0	576.337	0.994478	0.995132	1.96353	3	0.0839645	11	0.00195397
2	1	0	1	0	577.237	0.985475	0.985871	1.73217	3	0.0856254	11	0.00170769
2	1	0	1	0	578.138	0.976472	0.976917	1.51897	3	0.0870864	11	0.0014839
2	1	0	0	0	579.038	0.96747	0.968004	1.32487	3	0.0883641	11	0.00128248
2	1	0	1	0	579.938	0.958467	0.959081	1.14911	3	0.0894754	11	0.00110209
2	1	0	1	0	580.838	0.949464	0.950052	0.991615	3	0.0904366	11	0.000942086
2	1	0	0	0	581.739	0.940461	0.940882	0.851424	3	0.091264	11	0.00080109
2	1	0	0	0	582.639	0.931458	0.931975	0.728487	3	0.0919729	11	0.000678931
2	1	0	1	0	583.539	0.922456	0.923102	0.621495	3	0.0925783	11	0.000573703
2	1	0	1	0	584.439	0.913452	0.91424	0.528979	3	0.0930942	11	0.000483614
2	1	0	0	0	585.355	0.9043	0.904708	0.448429	3	0.09354	11	0.000405698
2	1	0	1	0	586.27	0.895147	0.895868	0.382007	3	0.0939194	12	0.000342228
2	1	0	1	0	587.17	0.886144	0.88642	0.325432	3	0.0942367	12	0.00028847
2	1	0	0	0	588.071	0.877142	0.877828	0.277554	3	0.0945071	12	0.000243644
2	1	0	1	0	588.971	0.868139	0.868731	0.237336	3	0.094738	12	0.000206181
2	1	0	1	0	589.871	0.859136	0.859573	0.203166	3	0.0949353	12	0.000174636
2	1	0	0	0	590.771	0.850133	0.850452	0.173906	3	0.0951042	12	0.000147899
2	1	0	0	0	591.672	0.84113	0.841632	0.149042	3	0.095249	12	0.000125438
2	1	0	1	0	592.572	0.832128	0.832701	0.127655	3	0.095373	12	0.000106298
2	1	0	1	0	593.472	0.823124	0.823582	0.109244	3	0.0954792	12	8.99715e-05
2	1	0	0	0	594.373	0.814122	0.81465	0.0934572	3	0.0955702	12	7.61349e-05
2	1	0	1	0	595.273	0.805119	0.805726	0.0798258	3	0.0956478	12	6.43177e-05
2	1	0	1	0	596.173	0.796116	0.796572	0.0679163	3	0.0957139	12	5.41002e-05
2	1	0	0	0	597.073	0.787114	0.78752	0.0576085	3	0.0957701	12	4.53679e-05
2	1	0	1	0	597.974	0.77811	0.778772	0.0487094	3	0.0958177	12	3.79335e-05
2	1	0	1	0	598.904	0.768808	0.769178	0.0409247	3	0.0958591	13	3.14784e-05
2	1	0	0	0	599.804	0.759805	0.760161	0.0343215	3	0.0958927	13	2.60899e-05
2	1	0	0	0	600.705	0.750802	0.751361	0.0286157	3	0.0959207	13	2.15007e-05
2	1	0	1	0	601.605	0.7418	0.742318	0.0237047	3	0.0959441	13	1.75964e-05
2	1	0	1	0	602.505	0.732797	0.733173	0.0194559	3	0.0959633	13	1.42645e-05
2	1	0	0	0	603.405	0.723794	0.724259	0.0158335	3	0.0959791	13	1.14676e-05
2	1	0	1	0	604.306	0.714791	0.715169	0.0127985	3	0.0959919	13	9.15309e-06
2	1	0	1	0	605.206	0.705789	0.706238	0.0102639	3	0.0960022	13	7.24875e-06
2	1	0	0	0	606.106	0.696786	0.697459	0.00811976	3	0.0960104	13	5.6632e-06
2	1	0	1	0	607.006	0.687783	0.688169	0.0063069	3	0.0960168	13	4.34021e-06
2	1	0	1	0	607.907	0.67878	0.679301	0.00474117	3	0.0960216	13	3.22068e-06
2	1	0	0	0	608.807	0.669777	0.670341	0.00342099	3	0.0960253	13	2.29323e-06
2	1	0	0	0	609.707	0.660775	0.661137	0.00238358	3	0.0960279	13	1.57587e-06
2	1	0	1	0	610.608	0.651772	0.65237	0.0016725	3	0.0960298	13	1.09109e-06
2	1	0	1	0	611.508	0.642768	0.643235	0.00118909	3	0.0960311	13	7.64863e-07
2	1	0	0	0	612.408	0.633766	0.634172	0.000829774	3	0.096032	13	5.26219e-07
2	1	0	1	0	613.308	0.624763	0.625244	0.000533292	3	0.0960326	13	3.33438e-07
2	1	0	1	0	614.209	0.615761	0.616096	0.000237374	3	0.0960329	13	1.46245e-07
2	1	0	0	0	615.109	0.606758	0.607207	5.96488e-05	3	0.0960331	13	3.62191e-08
2	1	0	1	0	616.009	0.597754	0.597866	-2.56129e-05	3	0.0960332	13	-1.53131e-08
2	1	0	1	0	616.91	0.588752	0.589214	1.72057e-05	3	0.0960332	13	1.01378e-08
2	1	0	0	0	617.81	0.579749	0.580309	4.8157e-05	3	0.0960332	13	2.79459e-08
2	1	0	0	0	618.71	0.570747	0.571343	6.14491e-05	3	0.0960331	13	3.51086e-08
2	0	0	1	0	619.61	0.561744	0.562212	1.07413e-05	3	0.0960331	13	6.03889e-09
2	1	0	0	0	620.511	0.552741	0.553079	-4.59073e-05	3	0.096033	13	-2.53904e-08
2	0	0	0	0	621.411	0.543738	0.54397	-5.42942e-05	3	0.0960329	13	-2.95344e-08
2	0	0	1	0	622.311	0.534736	0.535058	7.94079e-06	3	0.0960328	13	4.24879e-09
2	0	0	1	0	623.212	0.525733	0.526089	0.000119105	3	0.0960327	13	6.26599e-08
2	0	0	0	0	624.112	0.51673	0.517151	0.000113519	3	0.0960326	13	5.87064e-08
2	0	0	1	0	625.012	0.507727	0.507998	3.77933e-05	3	0.0960325	13	1.91989e-08
2	0	0	1	0	625.912	0.498724	0.499278	-4.08006e-05	3	0.0960324	13	-2.03709e-08
2	0	0	0	0	626.813	0.489722	0.490173	-1.99894e-05	3	0.0960323	13	-9.79823e-09
2	0	0	1	0	627.713	0.48072	0.481278	6.4157e-05	3	0.0960322	13	3.08774e-08
2	0	0	1	0	628.613	0.471716	0.472125	5.33594e-05	3	0.0960321	13	2.51923e-08
2	0	0	0	0	629.513	0.462713	0.46359	-2.47696e-05	3	0.0960319	13	-1.14829e-08
2	0	0	0	0	630.414	0.45371	0.454229	-0.000141848	3	0.0960318	13	-6.44316e-08
2	0	0	1	0	631.314	0.444708	0.445288	-0.000148769	3	0.0960316	13	-6.6245e-08
2	0	0	1	0	632.214	0.435706	0.43634	-7.6986e-05	3	0.0960315	13	-3.35921e-08
2	1	0	0	0	633.115	0.426702	0.427331	-6.36547e-05	3	0.0960313	13	-2.72016e-08
2	1	0	1	0	634.015	0.417699	0.418344	-0.000137962	3	0.0960311	13	-5.77158e-08
2	1	0	1	0	634.915	0.408696	0.408943	-0.000268611	3	0.096031	13	-1.09847e-07
2	1	0	0	0	635.815	0.399694	0.400129	-0.000292017	3	0.0960308	13	-1.16845e-07
2	1	0	1	0	636.716	0.390691	0.390998	-0.00020789	3	0.0960306	13	-8.12845e-08
2	1	0	1	0	637.616	0.381688	0.382247	-0.000159278	3	0.0960304	13	-6.08837e-08
2	1	0	0	0	638.516	0.372685	0.373017	-0.000202686	3	0.0960302	13	-7.56054e-08
2	1	0	0	0	639.417	0.363683	0.364047	-0.000282037	3	0.09603	13	-1.02675e-07
2	1	0	1	0	640.317	0.35468	0.355059	-0.000207777	3	0.0960298	13	-7.37731e-08
2	1	0	1	0	641.217	0.345677	0.346072	-9.56008e-05	3	0.0960297	13	-3.30848e-08
2	0	0	0	0	642.117	0.336674	0.337335	-0.000118078	3	0.0960295	13	-3.98318e-08
2	1	0	1	0	643.018	0.327671	0.327927	-0.00017977	3	0.0960293	13	-5.89515e-08
2	0	0	1	0	643.918	0.318669	0.318981	-0.000118872	3	0.0960291	13	-3.79179e-08
2	0	0	0	0	644.818	0.309666	0.309957	-1.22379e-05	3	0.0960289	13	-3.79322e-09
2	0	0	1	0	645.718	0.300663	0.301063	1.89859e-05	3	0.0960287	13	5.71595e-09
2	0	0	1	0	646.619	0.29166	0.291789	-6.48829e-05	3	0.0960285	13	-1.89321e-08
2	0	0	0	0	647.519	0.282657	0.282932	-0.000105851	3	0.0960284	13	-2.99485e-08
2	0	0	0	0	648.419	0.273655	0.274142	-1.83832e-05	3	0.0960282	13	-5.0396e-09
2	0	0	1	0	649.32	0.264652	0.265149	3.05052e-05	3	0.096028	13	8.08842e-09
2	0	0	1	0	650.22	0.255649	0.256213	-5.5856e-05	3	0.0960279	13	-1.4311e-08
2	0	0	0	0	651.12	0.246646	0.24717	-0.000157788	3	0.0960277	13	-3.90005e-08
2	0	0	1	0	652.02	0.237643	0.238128	-0.000160086	3	0.0960276	13	-3.81209e-08
2	0	0	1	0	652.921	0.228641	0.229166	-9.44574e-05	3	0.0960274	13	-2.16465e-08
2	1	0	0	0	653.821	0.219638	0.220231	-7.70851e-05	3	0.0960273	13	-1.69766e-08
2	1	0	1	0	654.721	0.210634	0.210912	-0.000146846	3	0.0960271	13	-3.09717e-08
2	1	0	1	0	655.622	0.201632	0.202334	-0.000233526	3	0.096027	13	-4.72501e-08
2	1	0	0	0	656.522	0.19263	0.193065	-0.000247178	3	0.0960269	13	-4.77216e-08
2	1	0	0	0	657.422	0.183627	0.183911	-0.000144222	3	0.0960267	13	-2.65241e-08
2	1	0	1	0	658.322	0.174624	0.175098	-8.55161e-05	3	0.0960266	13	-1.49737e-08
2	1	0	1	0	659.223	0.16562	0.165805	-0.00011354	3	0.0960265	13	-1.88255e-08
2	1	0	0	0	660.123	0.156618	0.157058	-0.00019393	3	0.0960264	13	-3.04583e-08
2	1	0	1	0	661.023	0.147616	0.148068	-0.000211622	3	0.0960262	13	-3.13343e-08
2	1	0	1	0	661.924	0.138613	0.138796	-0.000139094	3	0.0960261	13	-1.93057e-08
2	1	0	0	0	662.824	0.12961	0.130075	-8.44291e-05	3	0.096026	13	-1.09821e-08
2	1	0	1	0	663.724	0.120607	0.121022	-3.73087e-05	3	0.0960259	13	-4.51516e-09
2	1	0	1	0	664.624	0.111604	0.111696	-8.5549e-06	3	0.0960258	13	-9.5555e-10
2	0	0	0	0	665.525	0.102602	0.103267	-5.88082e-05	3	0.0960257	13	-6.07296e-09
2	1	0	0	0	666.425	0.0935989	0.0940319	-0.000119293	3	0.0960255	13	-1.12173e-08
2	0	0	1	0	667.325	0.0845961	0.0849091	-0.000112842	3	0.0960254	13	-9.58128e-09
2	0	0	0	0	668.225	0.0755933	0.076217	-9.81816e-05	3	0.0960253	13	-7.4831e-09
2	0	0	0	0	669.126	0.0665905	0.0671779	2.43541e-05	3	0.0960252	13	1.63606e-09
2	0	0	1	0	670.026	0.0575877	0.0582111	3.65593e-05	3	0.0960251	13	2.12816e-09
2	0	0	1	0	670.926	0.0485849	0.0491423	8.48829e-05	3	0.096025	13	4.17134e-09
2	0	0	0	0	671.827	0.0395821	0.0399569	7.8189e-05	3	0.0960249	13	3.12419e-09
2	0	0	1	0	672.727	0.0305794	0.0311035	3.9801e-05	3	0.0960247	13	1.23795e-09
2	0	0	1	0	673.627	0.0215766	0.021951	-1.83287e-05	3	0.0960246	13	-4.02334e-10
2	0	0	0	0	674.527	0.0125738	0.0129565	-1.81376e-05	3	0.0960245	13	-2.34999e-10
2	0	0	0	0	675.428	0.00357099	0.00405753	-5.35646e-05	3	0.0960244	13	-2.1734e-10
2	1	0	0	1	676.239	0.0045713	0.00481821	-7.2905e-05	3	0.0960244	13	-3.51271e-10
2	1	0	1	1	677.139	0.0135741	0.0139219	-3.96694e-05	3	0.0960244	13	-5.52276e-10
2	1	0	0	1	678.039	0.0225769	0.0229811	-2.13837e-05	3	0.0960245	13	-4.91422e-10
2	1	0	0	1	678.939	0.0315797	0.0320042	1.95296e-05	3	0.0960245	13	6.25031e-10
2	1	0	1	1	679.84	0.0405825	0.0405499	5.88089e-05	3	0.0960246	13	2.3847e-09
2	1	0	1	1	680.025	0.042433	0.0428617	0.00109304	3	0.0960246	13	4.68497e-08