File: Lares Oxides/2024-6-21 NiOx on FTO_2_50mg_CP1_C02.mpt
EC-Lab ASCII FILE
Nb header lines : 54

Chronopotentiometry

Run on channel : 2 (SN 39659)
User :
CE vs. WE compliance from -18 V to 2 V
Electrode connection : standard
Potential control : Ewe
Ewe ctrl range : min = 0.00 V, max = 5.00 V
Safety Limits :
	Do not start on E overload
Acquisition started on : 06/21/2024 12:12:42.287
Technique started on : 06/21/2024 12:12:43.287
Loaded Setting File :  NONE
Saved on :
	File : 2024-6-21 NiOx on FTO_2_50mg_CP1_C02.mpr
	Directory : C:\Users\sfolkman\OneDrive - New Mexico State University\Folkman Group Folder\Scott\
	Host : 172.24.124.15
Device : VSP (SN 1910)
Address : USB
EC-Lab for windows v11.46 (software)
Internet server v11.40 (firmware)
Command interpretor v11.40 (firmware)
Electrode material :
Initial state :
Electrolyte :
Comments :
Electrode surface area : 0.001 cm²
Characteristic mass : 0.001 g
Equivalent Weight : 0.000 g/eq.
Density : 0.000 g/cm3
Volume (V) : 0.001 cm³
Record Ece
Cycle Definition : Charge/Discharge alternance
Is                  10.000
unit Is             mA
vs.                 <None>
ts (h:m:s)          48:00:0.0000
EM (V)              5.000
dQM                 480.000
unit dQM            mA.h
record              <Ewe>
dEs (mV)            0.00
dts (s)             1.0000
E range min (V)     0.000
E range max (V)     5.000
I Range             10 mA
Bandwidth           5
goto Ns'            0
nc cycles           0

mode	ox/red	error	control changes	Ns changes	counter inc.	Ns	time/s	control/mA	<Ewe>/V	I/mA	dQ/C	(Q-Qo)/C	half cycle	Q charge/discharge/mA.h	I Range	<Ece>/V	Energy charge/W.h	Energy discharge/W.h	Capacitance charge/µF	Capacitance discharge/µF	Q discharge/mA.h	Q charge/mA.h	Capacity/mA.h	Efficiency/%	cycle number	P/W	Ewe-Ece/V
1	1	0	0	0	0	0	1	10	1.0409	10.0043	0.00950179	0.00950179	0	0.00263939	11	-0.942138	2.74733e-06	0.000000000000000E+000	0.000000000000000E+000	0.000000000000000E+000	0.000000000000000E+000	0.00263939	0.00263939	0.0000000E+000	0.000000000000000E+000	0.0104135	1.98303
1	1	0	0	0	0	0	26	10	1.10982	10.0048	0.259599	0.259599	0	0.0721108	11	-1.03126	7.78312e-05	0.000000000000000E+000	3.76665e+06	0.000000000000000E+000	0.000000000000000E+000	0.0721108	0.0721108	0.0000000E+000	0.000000000000000E+000	0.0111035	2.14108
1	1	0	0	0	0	0	51	10	1.15801	10.0033	0.509695	0.509695	0	0.141582	11	-1.0348	0.000156512	0.000000000000000E+000	4.35194e+06	0.000000000000000E+000	0.000000000000000E+000	0.141582	0.141582	0.0000000E+000	0.000000000000000E+000	0.011584	2.19282
1	1	0	0	0	0	0	76	10	1.13707	10.003	0.759791	0.759791	0	0.211053	11	-1.03821	0.000236272	0.000000000000000E+000	7.90045e+06	0.000000000000000E+000	0.000000000000000E+000	0.211053	0.211053	0.0000000E+000	0.000000000000000E+000	0.0113741	2.17528
1	1	0	0	0	0	0	101	10	1.14342	10.0043	1.00989	1.00989	0	0.280524	11	-1.04095	0.000314909	0.000000000000000E+000	9.84988e+06	0.000000000000000E+000	0.000000000000000E+000	0.280524	0.280524	0.0000000E+000	0.000000000000000E+000	0.0114392	2.18438
1	1	0	0	0	0	0	126	10	1.13776	10.0038	1.25998	1.25998	0	0.349995	11	-1.04419	0.000393186	0.000000000000000E+000	1.30074e+07	0.000000000000000E+000	0.000000000000000E+000	0.349995	0.349995	0.0000000E+000	0.000000000000000E+000	0.0113819	2.18195
1	1	0	0	0	0	0	151	10	1.13248	10.0038	1.51008	1.51008	0	0.419466	11	-1.04665	0.000472727	0.000000000000000E+000	1.6489e+07	0.000000000000000E+000	0.000000000000000E+000	0.419466	0.419466	0.0000000E+000	0.000000000000000E+000	0.011329	2.17912
1	1	0	0	0	0	0	176	10	1.17096	10.0031	1.76017	1.76017	0	0.488936	11	-1.04887	0.000552872	0.000000000000000E+000	1.35326e+07	0.000000000000000E+000	0.000000000000000E+000	0.488936	0.488936	0.0000000E+000	0.000000000000000E+000	0.0117132	2.21984
1	1	0	0	0	0	0	201	10	1.16531	10.0034	2.01026	2.01026	0	0.558407	11	-1.05094	0.000632678	0.000000000000000E+000	1.61581e+07	0.000000000000000E+000	0.000000000000000E+000	0.558407	0.558407	0.0000000E+000	0.000000000000000E+000	0.0116571	2.21625
1	1	0	0	0	0	0	226	10	1.15944	10.004	2.26036	2.26036	0	0.627878	11	-1.05292	0.000713512	0.000000000000000E+000	1.9068e+07	0.000000000000000E+000	0.000000000000000E+000	0.627878	0.627878	0.0000000E+000	0.000000000000000E+000	0.011599	2.21236
1	1	0	0	0	0	0	251	10	1.19308	10.0041	2.51045	2.51045	0	0.697348	11	-1.05471	0.000795337	0.000000000000000E+000	1.64967e+07	0.000000000000000E+000	0.000000000000000E+000	0.697348	0.697348	0.0000000E+000	0.000000000000000E+000	0.0119357	2.24779
1	1	0	0	0	0	0	276	10	1.19212	10.0043	2.76055	2.76055	0	0.766819	11	-1.05621	0.00087697	0.000000000000000E+000	1.82552e+07	0.000000000000000E+000	0.000000000000000E+000	0.766819	0.766819	0.0000000E+000	0.000000000000000E+000	0.0119263	2.24833
1	1	0	0	0	0	0	301	10	1.18694	10.0034	3.01064	3.01064	0	0.83629	11	-1.05812	0.000959028	0.000000000000000E+000	2.06142e+07	0.000000000000000E+000	0.000000000000000E+000	0.83629	0.83629	0.0000000E+000	0.000000000000000E+000	0.0118734	2.24506
1	1	0	0	0	0	0	326	10	1.15112	10.0034	3.26074	3.26074	0	0.90576	11	-1.05985	0.00104215	0.000000000000000E+000	2.95817e+07	0.000000000000000E+000	0.000000000000000E+000	0.90576	0.90576	0.0000000E+000	0.000000000000000E+000	0.0115152	2.21098
1	1	0	0	0	0	0	351	10	1.20465	10.0036	3.51083	3.51083	0	0.975231	11	-1.06098	0.00112446	0.000000000000000E+000	2.144e+07	0.000000000000000E+000	0.000000000000000E+000	0.975231	0.975231	0.0000000E+000	0.000000000000000E+000	0.0120508	2.26563
1	1	0	0	0	0	0	376	10	1.1859	10.0032	3.76093	3.76093	0	1.0447	11	-1.06218	0.00120728	0.000000000000000E+000	2.59359e+07	0.000000000000000E+000	0.000000000000000E+000	1.0447	1.0447	0.0000000E+000	0.000000000000000E+000	0.0118628	2.24808
1	1	0	0	0	0	0	401	10	1.22055	10.0028	4.01102	4.01102	0	1.11417	11	-1.06349	0.00129101	0.000000000000000E+000	2.23257e+07	0.000000000000000E+000	0.000000000000000E+000	1.11417	1.11417	0.0000000E+000	0.000000000000000E+000	0.0122089	2.28404
1	1	0	0	0	0	0	426	10	1.21062	10.004	4.26111	4.26111	0	1.18364	11	-1.06467	0.00137419	0.000000000000000E+000	2.51061e+07	0.000000000000000E+000	0.000000000000000E+000	1.18364	1.18364	0.0000000E+000	0.000000000000000E+000	0.0121111	2.27529
1	1	0	0	0	0	0	451	10	1.19654	10.0034	4.51121	4.51121	0	1.25311	11	-1.06598	0.0014584	0.000000000000000E+000	2.89832e+07	0.000000000000000E+000	0.000000000000000E+000	1.25311	1.25311	0.0000000E+000	0.000000000000000E+000	0.0119696	2.26252
1	1	0	0	0	0	0	476	10	1.23322	10.0033	4.7613	4.7613	0	1.32258	11	-1.06708	0.001543	0.000000000000000E+000	2.47568e+07	0.000000000000000E+000	0.000000000000000E+000	1.32258	1.32258	0.0000000E+000	0.000000000000000E+000	0.0123363	2.3003
1	1	0	0	0	0	0	501	10	1.22132	10.0036	5.01139	5.01139	0	1.39205	11	-1.06809	0.00162695	0.000000000000000E+000	2.77757e+07	0.000000000000000E+000	0.000000000000000E+000	1.39205	1.39205	0.0000000E+000	0.000000000000000E+000	0.0122176	2.28941
1	1	0	0	0	0	0	526	10	1.19542	10.0043	5.26149	5.26149	0	1.46152	11	-1.06911	0.001712	0.000000000000000E+000	3.40487e+07	0.000000000000000E+000	0.000000000000000E+000	1.46152	1.46152	0.0000000E+000	0.000000000000000E+000	0.0119594	2.26453
1	1	0	0	0	0	0	551	10	1.24194	10.0037	5.51158	5.51158	0	1.531	11	-1.06979	0.00179693	0.000000000000000E+000	2.74142e+07	0.000000000000000E+000	0.000000000000000E+000	1.531	1.531	0.0000000E+000	0.000000000000000E+000	0.012424	2.31173
1	1	0	0	0	0	0	576	10	1.21795	10.0035	5.76168	5.76168	0	1.60047	11	-1.07089	0.00188158	0.000000000000000E+000	3.25426e+07	0.000000000000000E+000	0.000000000000000E+000	1.60047	1.60047	0.0000000E+000	0.000000000000000E+000	0.0121837	2.28884
1	1	0	0	0	0	0	601	10	1.25396	10.0034	6.01177	6.01177	0	1.66994	11	-1.0716	0.00196758	0.000000000000000E+000	2.82161e+07	0.000000000000000E+000	0.000000000000000E+000	1.66994	1.66994	0.0000000E+000	0.000000000000000E+000	0.0125439	2.32556
1	1	0	0	0	0	0	626	10	1.22556	10.0034	6.26186	6.26186	0	1.73941	11	-1.0723	0.00205154	0.000000000000000E+000	3.39104e+07	0.000000000000000E+000	0.000000000000000E+000	1.73941	1.73941	0.0000000E+000	0.000000000000000E+000	0.0122597	2.29785
1	1	0	0	0	0	0	651	10	1.26064	10.0043	6.51196	6.51196	0	1.80888	11	-1.07168	0.0021381	0.000000000000000E+000	2.96348e+07	0.000000000000000E+000	0.000000000000000E+000	1.80888	1.80888	0.0000000E+000	0.000000000000000E+000	0.0126118	2.33231
1	1	0	0	0	0	0	676	10	1.22009	10.0044	6.76205	6.76205	0	1.87835	11	-1.07276	0.00222175	0.000000000000000E+000	3.77368e+07	0.000000000000000E+000	0.000000000000000E+000	1.87835	1.87835	0.0000000E+000	0.000000000000000E+000	0.0122062	2.29285
1	1	0	0	0	0	0	701	10	1.25971	10.0029	7.01215	7.01215	0	1.94782	11	-1.07328	0.00230812	0.000000000000000E+000	3.20462e+07	0.000000000000000E+000	0.000000000000000E+000	1.94782	1.94782	0.0000000E+000	0.000000000000000E+000	0.0126007	2.33299
1	1	0	0	0	0	0	726	10	1.28113	10.0036	7.26224	7.26224	0	2.01729	11	-1.07355	0.00239645	0.000000000000000E+000	3.02299e+07	0.000000000000000E+000	0.000000000000000E+000	2.01729	2.01729	0.0000000E+000	0.000000000000000E+000	0.0128159	2.35468
1	1	0	0	0	0	0	751	10	1.19607	10.0036	7.51233	7.51233	0	2.08676	11	-1.0743	0.00248178	0.000000000000000E+000	4.84125e+07	0.000000000000000E+000	0.000000000000000E+000	2.08676	2.08676	0.0000000E+000	0.000000000000000E+000	0.011965	2.27037
1	1	0	0	0	0	0	776	10	1.22319	10.004	7.76243	7.76243	0	2.15623	11	-1.07402	0.00256607	0.000000000000000E+000	4.25809e+07	0.000000000000000E+000	0.000000000000000E+000	2.15623	2.15623	0.0000000E+000	0.000000000000000E+000	0.0122368	2.29721
1	1	0	0	0	0	0	801	10	1.23432	10.0041	8.01252	8.01252	0	2.2257	11	-1.07422	0.00265149	0.000000000000000E+000	4.14244e+07	0.000000000000000E+000	0.000000000000000E+000	2.2257	2.2257	0.0000000E+000	0.000000000000000E+000	0.0123483	2.30855
1	1	0	0	0	0	0	826	10	1.24172	10.0034	8.26262	8.26262	0	2.29517	11	-1.07475	0.00273752	0.000000000000000E+000	4.11441e+07	0.000000000000000E+000	0.000000000000000E+000	2.29517	2.29517	0.0000000E+000	0.000000000000000E+000	0.0124214	2.31647
1	1	0	0	0	0	0	851	10	1.24837	10.0047	8.51271	8.51271	0	2.36464	11	-1.07427	0.00282404	0.000000000000000E+000	4.103e+07	0.000000000000000E+000	0.000000000000000E+000	2.36464	2.36464	0.0000000E+000	0.000000000000000E+000	0.0124895	2.32264
1	1	0	0	0	0	0	876	10	1.25386	10.0034	8.7628	8.7628	0	2.43411	11	-1.07476	0.00291096	0.000000000000000E+000	4.1146e+07	0.000000000000000E+000	0.000000000000000E+000	2.43411	2.43411	0.0000000E+000	0.000000000000000E+000	0.012543	2.32862
1	1	0	0	0	0	0	901	10	1.25885	10.0034	9.0129	9.0129	0	2.50358	11	-1.0746	0.00299825	0.000000000000000E+000	4.13521e+07	0.000000000000000E+000	0.000000000000000E+000	2.50358	2.50358	0.0000000E+000	0.000000000000000E+000	0.0125929	2.33345
1	1	0	0	0	0	0	926	10	1.26293	10.0048	9.26299	9.26299	0	2.57305	11	-1.07436	0.00308585	0.000000000000000E+000	4.17184e+07	0.000000000000000E+000	0.000000000000000E+000	2.57305	2.57305	0.0000000E+000	0.000000000000000E+000	0.0126354	2.33729
1	1	0	0	0	0	0	951	10	1.26717	10.0041	9.51309	9.51309	0	2.64252	11	-1.07421	0.00317375	0.000000000000000E+000	4.20429e+07	0.000000000000000E+000	0.000000000000000E+000	2.64252	2.64252	0.0000000E+000	0.000000000000000E+000	0.0126769	2.34138
1	1	0	0	0	0	0	976	10	1.27163	10.0038	9.76318	9.76318	0	2.71199	11	-1.07433	0.00326195	0.000000000000000E+000	4.23144e+07	0.000000000000000E+000	0.000000000000000E+000	2.71199	2.71199	0.0000000E+000	0.000000000000000E+000	0.0127211	2.34596
1	1	0	0	0	0	0	1001	10	1.27515	10.0036	10.0133	10.0133	0	2.78147	11	-1.07441	0.00335042	0.000000000000000E+000	4.2746e+07	0.000000000000000E+000	0.000000000000000E+000	2.78147	2.78147	0.0000000E+000	0.000000000000000E+000	0.0127561	2.34956
1	1	0	0	0	0	0	1026	10	1.27769	10.0038	10.2634	10.2634	0	2.85094	11	-1.07591	0.0034391	0.000000000000000E+000	4.33421e+07	0.000000000000000E+000	0.000000000000000E+000	2.85094	2.85094	0.0000000E+000	0.000000000000000E+000	0.0127818	2.3536
1	1	0	0	0	0	0	1051	10	1.28131	10.0032	10.5135	10.5135	0	2.92041	11	-1.0762	0.003528	0.000000000000000E+000	4.37314e+07	0.000000000000000E+000	0.000000000000000E+000	2.92041	2.92041	0.0000000E+000	0.000000000000000E+000	0.0128172	2.35751
1	1	0	0	0	0	0	1076	10	1.2843	10.0044	10.7636	10.7636	0	2.98988	11	-1.07604	0.00361711	0.000000000000000E+000	4.42215e+07	0.000000000000000E+000	0.000000000000000E+000	2.98988	2.98988	0.0000000E+000	0.000000000000000E+000	0.0128486	2.36034
1	1	0	0	0	0	0	1101	10	1.28868	10.0036	11.0137	11.0137	0	3.05935	11	-1.07323	0.00370651	0.000000000000000E+000	4.44493e+07	0.000000000000000E+000	0.000000000000000E+000	3.05935	3.05935	0.0000000E+000	0.000000000000000E+000	0.0128915	2.36191
1	1	0	0	0	0	0	1126	10	1.2922	10.004	11.2638	11.2638	0	3.12882	11	-1.07331	0.00379617	0.000000000000000E+000	4.48206e+07	0.000000000000000E+000	0.000000000000000E+000	3.12882	3.12882	0.0000000E+000	0.000000000000000E+000	0.0129271	2.36552
1	1	0	0	0	0	0	1151	10	1.2953	10.0038	11.5138	11.5138	0	3.19829	11	-1.07324	0.00388604	0.000000000000000E+000	4.52577e+07	0.000000000000000E+000	0.000000000000000E+000	3.19829	3.19829	0.0000000E+000	0.000000000000000E+000	0.012958	2.36854
1	1	0	0	0	0	0	1176	10	1.2982	10.0041	11.7639	11.7639	0	3.26776	11	-1.07312	0.00397613	0.000000000000000E+000	4.57194e+07	0.000000000000000E+000	0.000000000000000E+000	3.26776	3.26776	0.0000000E+000	0.000000000000000E+000	0.0129873	2.37133
1	1	0	0	0	0	0	1201	10	1.30103	10.0034	12.014	12.014	0	3.33723	11	-1.07226	0.00406642	0.000000000000000E+000	4.61835e+07	0.000000000000000E+000	0.000000000000000E+000	3.33723	3.33723	0.0000000E+000	0.000000000000000E+000	0.0130148	2.37329
1	1	0	0	0	0	0	1226	10	1.30187	10.0034	12.2641	12.2641	0	3.4067	11	-1.07334	0.00415689	0.000000000000000E+000	4.69939e+07	0.000000000000000E+000	0.000000000000000E+000	3.4067	3.4067	0.0000000E+000	0.000000000000000E+000	0.0130231	2.37521
1	1	0	0	0	0	0	1251	10	1.30425	10.0036	12.5142	12.5142	0	3.47617	11	-1.07379	0.00424742	0.000000000000000E+000	4.75192e+07	0.000000000000000E+000	0.000000000000000E+000	3.47617	3.47617	0.0000000E+000	0.000000000000000E+000	0.0130472	2.37804
1	1	0	0	0	0	0	1276	10	1.30708	10.0041	12.7643	12.7643	0	3.54564	11	-1.07316	0.00433814	0.000000000000000E+000	4.79526e+07	0.000000000000000E+000	0.000000000000000E+000	3.54564	3.54564	0.0000000E+000	0.000000000000000E+000	0.0130762	2.38025
1	1	0	0	0	0	0	1301	10	1.30991	10.0038	13.0144	13.0144	0	3.61511	11	-1.07273	0.00442904	0.000000000000000E+000	4.83782e+07	0.000000000000000E+000	0.000000000000000E+000	3.61511	3.61511	0.0000000E+000	0.000000000000000E+000	0.013104	2.38264
1	1	0	0	0	0	0	1326	10	1.31162	10.004	13.2645	13.2645	0	3.68458	11	-1.07423	0.00452009	0.000000000000000E+000	4.89958e+07	0.000000000000000E+000	0.000000000000000E+000	3.68458	3.68458	0.0000000E+000	0.000000000000000E+000	0.0131214	2.38585
1	1	0	0	0	0	0	1351	10	1.31418	10.0037	13.5146	13.5146	0	3.75405	11	-1.0745	0.00461131	0.000000000000000E+000	4.94528e+07	0.000000000000000E+000	0.000000000000000E+000	3.75405	3.75405	0.0000000E+000	0.000000000000000E+000	0.0131467	2.38868
1	1	0	0	0	0	0	1376	10	1.31696	10.0034	13.7647	13.7647	0	3.82352	11	-1.07443	0.00470272	0.000000000000000E+000	4.98606e+07	0.000000000000000E+000	0.000000000000000E+000	3.82352	3.82352	0.0000000E+000	0.000000000000000E+000	0.0131741	2.39139
1	1	0	0	0	0	0	1401	10	1.31951	10.0038	14.0148	14.0148	0	3.89299	11	-1.07483	0.00479429	0.000000000000000E+000	5.03015e+07	0.000000000000000E+000	0.000000000000000E+000	3.89299	3.89299	0.0000000E+000	0.000000000000000E+000	0.0132001	2.39434
1	1	0	0	0	0	0	1426	10	1.32185	10.0039	14.2649	14.2649	0	3.96247	11	-1.07535	0.00488604	0.000000000000000E+000	5.07733e+07	0.000000000000000E+000	0.000000000000000E+000	3.96247	3.96247	0.0000000E+000	0.000000000000000E+000	0.0132236	2.3972
1	1	0	0	0	0	0	1451	10	1.3245	10.0041	14.515	14.515	0	4.03194	11	-1.07503	0.00497797	0.000000000000000E+000	5.11812e+07	0.000000000000000E+000	0.000000000000000E+000	4.03194	4.03194	0.0000000E+000	0.000000000000000E+000	0.0132504	2.39953
1	1	0	0	0	0	0	1476	10	1.32684	10.0038	14.7651	14.7651	0	4.10141	11	-1.07578	0.00507006	0.000000000000000E+000	5.16364e+07	0.000000000000000E+000	0.000000000000000E+000	4.10141	4.10141	0.0000000E+000	0.000000000000000E+000	0.0132735	2.40262
1	1	0	0	0	0	0	1501	10	1.32896	10.0037	15.0152	15.0152	0	4.17088	11	-1.07677	0.00516232	0.000000000000000E+000	5.21251e+07	0.000000000000000E+000	0.000000000000000E+000	4.17088	4.17088	0.0000000E+000	0.000000000000000E+000	0.0132945	2.40573
1	1	0	0	0	0	0	1526	10	1.3319	10.0038	15.2653	15.2653	0	4.24035	11	-1.07556	0.00525477	0.000000000000000E+000	5.24579e+07	0.000000000000000E+000	0.000000000000000E+000	4.24035	4.24035	0.0000000E+000	0.000000000000000E+000	0.013324	2.40746
1	1	0	0	0	0	0	1551	10	1.33491	10.0036	15.5153	15.5153	0	4.30982	11	-1.07582	0.00534741	0.000000000000000E+000	5.27702e+07	0.000000000000000E+000	0.000000000000000E+000	4.30982	4.30982	0.0000000E+000	0.000000000000000E+000	0.0133539	2.41074
1	1	0	0	0	0	0	1576	10	1.33052	10.0036	15.7654	15.7654	0	4.37929	11	-1.07651	0.00544001	0.000000000000000E+000	5.4435e+07	0.000000000000000E+000	0.000000000000000E+000	4.37929	4.37929	0.0000000E+000	0.000000000000000E+000	0.0133099	2.40702
1	1	0	0	0	0	0	1601	10	1.33346	10.0036	16.0155	16.0155	0	4.44876	11	-1.07702	0.00553254	0.000000000000000E+000	5.47416e+07	0.000000000000000E+000	0.000000000000000E+000	4.44876	4.44876	0.0000000E+000	0.000000000000000E+000	0.0133395	2.41048
1	1	0	0	0	0	0	1626	10	1.33601	10.0048	16.2656	16.2656	0	4.51823	11	-1.07753	0.00562526	0.000000000000000E+000	5.51162e+07	0.000000000000000E+000	0.000000000000000E+000	4.51823	4.51823	0.0000000E+000	0.000000000000000E+000	0.0133666	2.41354
1	1	0	0	0	0	0	1651	10	1.33828	10.0038	16.5157	16.5157	0	4.5877	11	-1.07748	0.00571815	0.000000000000000E+000	5.55361e+07	0.000000000000000E+000	0.000000000000000E+000	4.5877	4.5877	0.0000000E+000	0.000000000000000E+000	0.0133879	2.41577
1	1	0	0	0	0	0	1676	10	1.34048	10.0041	16.7658	16.7658	0	4.65717	11	-1.07675	0.00581121	0.000000000000000E+000	5.59628e+07	0.000000000000000E+000	0.000000000000000E+000	4.65717	4.65717	0.0000000E+000	0.000000000000000E+000	0.0134103	2.41724
1	1	0	0	0	0	0	1701	10	1.34288	10.0047	17.0159	17.0159	0	4.72664	11	-1.07732	0.00590442	0.000000000000000E+000	5.63476e+07	0.000000000000000E+000	0.000000000000000E+000	4.72664	4.72664	0.0000000E+000	0.000000000000000E+000	0.0134351	2.4202
1	1	0	0	0	0	0	1726	10	1.34498	10.0033	17.266	17.266	0	4.79611	11	-1.07891	0.00599778	0.000000000000000E+000	5.67802e+07	0.000000000000000E+000	0.000000000000000E+000	4.79611	4.79611	0.0000000E+000	0.000000000000000E+000	0.0134543	2.42389
1	1	0	0	0	0	0	1751	10	1.34733	10.0031	17.5161	17.5161	0	4.86558	11	-1.0781	0.0060913	0.000000000000000E+000	5.71604e+07	0.000000000000000E+000	0.000000000000000E+000	4.86558	4.86558	0.0000000E+000	0.000000000000000E+000	0.0134776	2.42544
1	1	0	0	0	0	0	1776	10	1.34945	10.0034	17.7662	17.7662	0	4.93505	11	-1.07788	0.00618497	0.000000000000000E+000	5.75785e+07	0.000000000000000E+000	0.000000000000000E+000	4.93505	4.93505	0.0000000E+000	0.000000000000000E+000	0.0134991	2.42734
1	1	0	0	0	0	0	1801	10	1.35156	10.0035	18.0163	18.0163	0	5.00453	11	-1.07899	0.0062788	0.000000000000000E+000	5.79926e+07	0.000000000000000E+000	0.000000000000000E+000	5.00453	5.00453	0.0000000E+000	0.000000000000000E+000	0.0135204	2.43055
1	1	0	0	0	0	0	1826	10	1.35387	10.0035	18.2664	18.2664	0	5.074	11	-1.07812	0.00637277	0.000000000000000E+000	5.83642e+07	0.000000000000000E+000	0.000000000000000E+000	5.074	5.074	0.0000000E+000	0.000000000000000E+000	0.0135434	2.43198
1	1	0	0	0	0	0	1851	10	1.35601	10.0045	18.5165	18.5165	0	5.14347	11	-1.07792	0.0064669	0.000000000000000E+000	5.87614e+07	0.000000000000000E+000	0.000000000000000E+000	5.14347	5.14347	0.0000000E+000	0.000000000000000E+000	0.0135661	2.43393
1	1	0	0	0	0	0	1876	10	1.35802	10.0041	18.7666	18.7666	0	5.21294	11	-1.07946	0.00656118	0.000000000000000E+000	5.91781e+07	0.000000000000000E+000	0.000000000000000E+000	5.21294	5.21294	0.0000000E+000	0.000000000000000E+000	0.0135858	2.43747
1	1	0	0	0	0	0	1901	10	1.36022	10.0038	19.0167	19.0167	0	5.28241	11	-1.07933	0.0066556	0.000000000000000E+000	5.95528e+07	0.000000000000000E+000	0.000000000000000E+000	5.28241	5.28241	0.0000000E+000	0.000000000000000E+000	0.0136073	2.43955
1	1	0	0	0	0	0	1926	10	1.36217	10.0038	19.2668	19.2668	0	5.35188	11	-1.07845	0.00675016	0.000000000000000E+000	5.99705e+07	0.000000000000000E+000	0.000000000000000E+000	5.35188	5.35188	0.0000000E+000	0.000000000000000E+000	0.0136269	2.44061
1	1	0	0	0	0	0	1951	10	1.36413	10.0031	19.5169	19.5169	0	5.42135	11	-1.08003	0.00684487	0.000000000000000E+000	6.03798e+07	0.000000000000000E+000	0.000000000000000E+000	5.42135	5.42135	0.0000000E+000	0.000000000000000E+000	0.0136455	2.44416
1	1	0	0	0	0	0	1976	10	1.3668	10.0036	19.767	19.767	0	5.49082	11	-1.08025	0.00693972	0.000000000000000E+000	6.06524e+07	0.000000000000000E+000	0.000000000000000E+000	5.49082	5.49082	0.0000000E+000	0.000000000000000E+000	0.013673	2.44705
1	1	0	0	0	0	0	2001	10	1.36859	10.0038	20.017	20.017	0	5.56029	11	-1.07975	0.00703474	0.000000000000000E+000	6.10848e+07	0.000000000000000E+000	0.000000000000000E+000	5.56029	5.56029	0.0000000E+000	0.000000000000000E+000	0.0136911	2.44834
1	1	0	0	0	0	0	2026	10	1.37047	10.0033	20.2671	20.2671	0	5.62976	11	-1.08135	0.00712989	0.000000000000000E+000	6.14955e+07	0.000000000000000E+000	0.000000000000000E+000	5.62976	5.62976	0.0000000E+000	0.000000000000000E+000	0.0137092	2.45182
1	1	0	0	0	0	0	2051	10	1.37272	10.0037	20.5172	20.5172	0	5.69923	11	-1.07985	0.00722519	0.000000000000000E+000	6.18308e+07	0.000000000000000E+000	0.000000000000000E+000	5.69923	5.69923	0.0000000E+000	0.000000000000000E+000	0.0137323	2.45258
1	1	0	0	0	0	0	2076	10	1.37459	10.0041	20.7673	20.7673	0	5.7687	11	-1.07998	0.00732062	0.000000000000000E+000	6.22344e+07	0.000000000000000E+000	0.000000000000000E+000	5.7687	5.7687	0.0000000E+000	0.000000000000000E+000	0.0137515	2.45457
1	1	0	0	0	0	0	2101	10	1.37689	10.0044	21.0174	21.0174	0	5.83817	11	-1.08143	0.0074162	0.000000000000000E+000	6.25529e+07	0.000000000000000E+000	0.000000000000000E+000	5.83817	5.83817	0.0000000E+000	0.000000000000000E+000	0.013775	2.45832
1	1	0	0	0	0	0	2126	10	1.37877	10.0038	21.2675	21.2675	0	5.90764	11	-1.08222	0.00751193	0.000000000000000E+000	6.29449e+07	0.000000000000000E+000	0.000000000000000E+000	5.90764	5.90764	0.0000000E+000	0.000000000000000E+000	0.0137929	2.46099
1	1	0	0	0	0	0	2151	10	1.38097	10.0042	21.5176	21.5176	0	5.97711	11	-1.08142	0.00760779	0.000000000000000E+000	6.32726e+07	0.000000000000000E+000	0.000000000000000E+000	5.97711	5.97711	0.0000000E+000	0.000000000000000E+000	0.0138156	2.46239
1	1	0	0	0	0	0	2176	10	1.38274	10.0038	21.7677	21.7677	0	6.04658	11	-1.08249	0.00770379	0.000000000000000E+000	6.36779e+07	0.000000000000000E+000	0.000000000000000E+000	6.04658	6.04658	0.0000000E+000	0.000000000000000E+000	0.0138326	2.46523
1	1	0	0	0	0	0	2201	10	1.38491	10.0032	22.0178	22.0178	0	6.11605	11	-1.08207	0.00779993	0.000000000000000E+000	6.40033e+07	0.000000000000000E+000	0.000000000000000E+000	6.11605	6.11605	0.0000000E+000	0.000000000000000E+000	0.0138535	2.46697
1	1	0	0	0	0	0	2226	10	1.38715	10.0039	22.2679	22.2679	0	6.18552	11	-1.08314	0.00789621	0.000000000000000E+000	6.43117e+07	0.000000000000000E+000	0.000000000000000E+000	6.18552	6.18552	0.0000000E+000	0.000000000000000E+000	0.0138769	2.47029
1	1	0	0	0	0	0	2251	10	1.38986	10.0034	22.518	22.518	0	6.255	11	-1.08313	0.00799267	0.000000000000000E+000	6.45278e+07	0.000000000000000E+000	0.000000000000000E+000	6.255	6.255	0.0000000E+000	0.000000000000000E+000	0.0139034	2.47299
1	1	0	0	0	0	0	2276	10	1.39198	10.0036	22.7681	22.7681	0	6.32447	11	-1.08299	0.00808931	0.000000000000000E+000	6.48504e+07	0.000000000000000E+000	0.000000000000000E+000	6.32447	6.32447	0.0000000E+000	0.000000000000000E+000	0.0139249	2.47498
1	1	0	0	0	0	0	2301	10	1.39344	10.0037	23.0182	23.0182	0	6.39394	11	-1.08319	0.00818605	0.000000000000000E+000	6.52907e+07	0.000000000000000E+000	0.000000000000000E+000	6.39394	6.39394	0.0000000E+000	0.000000000000000E+000	0.0139396	2.47663
1	1	0	0	0	0	0	2326	10	1.39526	10.0041	23.2683	23.2683	0	6.46341	11	-1.08404	0.00828292	0.000000000000000E+000	6.56615e+07	0.000000000000000E+000	0.000000000000000E+000	6.46341	6.46341	0.0000000E+000	0.000000000000000E+000	0.0139584	2.4793
1	1	0	0	0	0	0	2351	10	1.39734	10.0041	23.5184	23.5184	0	6.53288	11	-1.08343	0.00837992	0.000000000000000E+000	6.59812e+07	0.000000000000000E+000	0.000000000000000E+000	6.53288	6.53288	0.0000000E+000	0.000000000000000E+000	0.0139792	2.48076
1	1	0	0	0	0	0	2376	10	1.39915	10.0042	23.7685	23.7685	0	6.60235	11	-1.08365	0.00847706	0.000000000000000E+000	6.63446e+07	0.000000000000000E+000	0.000000000000000E+000	6.60235	6.60235	0.0000000E+000	0.000000000000000E+000	0.0139974	2.4828
1	1	0	0	0	0	0	2401	10	1.40121	10.0041	24.0185	24.0185	0	6.67182	11	-1.08431	0.00857433	0.000000000000000E+000	6.66604e+07	0.000000000000000E+000	0.000000000000000E+000	6.67182	6.67182	0.0000000E+000	0.000000000000000E+000	0.0140179	2.48552
1	1	0	0	0	0	0	2426	10	1.40327	10.0034	24.2686	24.2686	0	6.74129	11	-1.08351	0.00867174	0.000000000000000E+000	6.69712e+07	0.000000000000000E+000	0.000000000000000E+000	6.74129	6.74129	0.0000000E+000	0.000000000000000E+000	0.0140375	2.48678
1	1	0	0	0	0	0	2451	10	1.40523	10.0034	24.5187	24.5187	0	6.81076	11	-1.08256	0.0087693	0.000000000000000E+000	6.72978e+07	0.000000000000000E+000	0.000000000000000E+000	6.81076	6.81076	0.0000000E+000	0.000000000000000E+000	0.0140571	2.48779
1	1	0	0	0	0	0	2476	10	1.40697	10.004	24.7688	24.7688	0	6.88023	11	-1.08331	0.00886698	0.000000000000000E+000	6.76614e+07	0.000000000000000E+000	0.000000000000000E+000	6.88023	6.88023	0.0000000E+000	0.000000000000000E+000	0.0140753	2.49028
1	1	0	0	0	0	0	2501	10	1.40879	10.0038	25.0189	25.0189	0	6.9497	11	-1.0837	0.00896479	0.000000000000000E+000	6.80061e+07	0.000000000000000E+000	0.000000000000000E+000	6.9497	6.9497	0.0000000E+000	0.000000000000000E+000	0.0140933	2.49248
1	1	0	0	0	0	0	2526	10	1.41061	10.0035	25.269	25.269	0	7.01917	11	-1.08483	0.00906273	0.000000000000000E+000	6.8348e+07	0.000000000000000E+000	0.000000000000000E+000	7.01917	7.01917	0.0000000E+000	0.000000000000000E+000	0.014111	2.49543
1	1	0	0	0	0	0	2551	10	1.4125	10.0042	25.5191	25.5191	0	7.08864	11	-1.08538	0.00916079	0.000000000000000E+000	6.86727e+07	0.000000000000000E+000	0.000000000000000E+000	7.08864	7.08864	0.0000000E+000	0.000000000000000E+000	0.014131	2.49788
1	1	0	0	0	0	0	2576	10	1.41419	10.0031	25.7692	25.7692	0	7.15811	11	-1.08451	0.00925897	0.000000000000000E+000	6.90317e+07	0.000000000000000E+000	0.000000000000000E+000	7.15811	7.15811	0.0000000E+000	0.000000000000000E+000	0.0141463	2.4987
1	1	0	0	0	0	0	2601	10	1.41581	10.004	26.0193	26.0193	0	7.22758	11	-1.08409	0.00935727	0.000000000000000E+000	6.94014e+07	0.000000000000000E+000	0.000000000000000E+000	7.22758	7.22758	0.0000000E+000	0.000000000000000E+000	0.0141637	2.4999
1	1	0	0	0	0	0	2626	10	1.41745	10.0034	26.2694	26.2694	0	7.29705	11	-1.08409	0.00945568	0.000000000000000E+000	6.97628e+07	0.000000000000000E+000	0.000000000000000E+000	7.29705	7.29705	0.0000000E+000	0.000000000000000E+000	0.0141793	2.50154
1	1	0	0	0	0	0	2651	10	1.41903	10.0035	26.5195	26.5195	0	7.36652	11	-1.08408	0.00955421	0.000000000000000E+000	7.01323e+07	0.000000000000000E+000	0.000000000000000E+000	7.36652	7.36652	0.0000000E+000	0.000000000000000E+000	0.0141953	2.50311
1	1	0	0	0	0	0	2676	10	1.42084	10.0032	26.7696	26.7696	0	7.43599	11	-1.08413	0.00965286	0.000000000000000E+000	7.04573e+07	0.000000000000000E+000	0.000000000000000E+000	7.43599	7.43599	0.0000000E+000	0.000000000000000E+000	0.0142129	2.50497
1	1	0	0	0	0	0	2701	10	1.423	10.0043	27.0197	27.0197	0	7.50546	11	-1.08473	0.00975164	0.000000000000000E+000	7.07121e+07	0.000000000000000E+000	0.000000000000000E+000	7.50546	7.50546	0.0000000E+000	0.000000000000000E+000	0.0142362	2.50773
1	1	0	0	0	0	0	2726	10	1.42529	10.0035	27.2698	27.2698	0	7.57493	11	-1.08367	0.00985058	0.000000000000000E+000	7.09428e+07	0.000000000000000E+000	0.000000000000000E+000	7.57493	7.57493	0.0000000E+000	0.000000000000000E+000	0.0142579	2.50895
1	1	0	0	0	0	0	2751	10	1.42675	10.0044	27.5199	27.5199	0	7.64441	11	-1.08598	0.00994965	0.000000000000000E+000	7.1321e+07	0.000000000000000E+000	0.000000000000000E+000	7.64441	7.64441	0.0000000E+000	0.000000000000000E+000	0.0142738	2.51274
1	1	0	0	0	0	0	2776	10	1.42851	10.0036	27.77	27.77	0	7.71388	11	-1.08444	0.0100488	0.000000000000000E+000	7.1644e+07	0.000000000000000E+000	0.000000000000000E+000	7.71388	7.71388	0.0000000E+000	0.000000000000000E+000	0.0142902	2.51295
1	1	0	0	0	0	0	2801	10	1.43004	10.0042	28.02	28.02	0	7.78335	11	-1.08557	0.0101481	0.000000000000000E+000	7.20041e+07	0.000000000000000E+000	0.000000000000000E+000	7.78335	7.78335	0.0000000E+000	0.000000000000000E+000	0.0143064	2.51561
1	1	0	0	0	0	0	2826	10	1.43177	10.0039	28.2701	28.2701	0	7.85282	11	-1.08584	0.0102475	0.000000000000000E+000	7.23252e+07	0.000000000000000E+000	0.000000000000000E+000	7.85282	7.85282	0.0000000E+000	0.000000000000000E+000	0.0143233	2.51761
1	1	0	0	0	0	0	2851	10	1.43358	10.0029	28.5202	28.5202	0	7.92229	11	-1.0866	0.0103471	0.000000000000000E+000	7.26298e+07	0.000000000000000E+000	0.000000000000000E+000	7.92229	7.92229	0.0000000E+000	0.000000000000000E+000	0.01434	2.52018
1	1	0	0	0	0	0	2876	10	1.43529	10.0033	28.7703	28.7703	0	7.99176	11	-1.08656	0.0104467	0.000000000000000E+000	7.29482e+07	0.000000000000000E+000	0.000000000000000E+000	7.99176	7.99176	0.0000000E+000	0.000000000000000E+000	0.0143577	2.52185
1	1	0	0	0	0	0	2901	10	1.43685	10.0038	29.0204	29.0204	0	8.06123	11	-1.08646	0.0105465	0.000000000000000E+000	7.32931e+07	0.000000000000000E+000	0.000000000000000E+000	8.06123	8.06123	0.0000000E+000	0.000000000000000E+000	0.014374	2.52331
1	1	0	0	0	0	0	2926	10	1.4388	10.0043	29.2705	29.2705	0	8.1307	11	-1.08599	0.0106464	0.000000000000000E+000	7.3562e+07	0.000000000000000E+000	0.000000000000000E+000	8.1307	8.1307	0.0000000E+000	0.000000000000000E+000	0.0143941	2.52479
1	1	0	0	0	0	0	2951	10	1.44062	10.0043	29.5206	29.5206	0	8.20017	11	-1.08636	0.0107464	0.000000000000000E+000	7.38527e+07	0.000000000000000E+000	0.000000000000000E+000	8.20017	8.20017	0.0000000E+000	0.000000000000000E+000	0.0144124	2.52698
1	1	0	0	0	0	0	2976	10	1.44183	10.0044	29.7707	29.7707	0	8.26964	11	-1.08641	0.0108465	0.000000000000000E+000	7.42528e+07	0.000000000000000E+000	0.000000000000000E+000	8.26964	8.26964	0.0000000E+000	0.000000000000000E+000	0.0144247	2.52825
1	1	0	0	0	0	0	3001	10	1.44359	10.0036	30.0208	30.0208	0	8.33911	11	-1.08642	0.0109467	0.000000000000000E+000	7.45497e+07	0.000000000000000E+000	0.000000000000000E+000	8.33911	8.33911	0.0000000E+000	0.000000000000000E+000	0.0144411	2.53001
1	1	0	0	0	0	0	3026	10	1.44521	10.0034	30.2709	30.2709	0	8.40858	11	-1.0867	0.0110471	0.000000000000000E+000	7.48701e+07	0.000000000000000E+000	0.000000000000000E+000	8.40858	8.40858	0.0000000E+000	0.000000000000000E+000	0.014457	2.5319
1	1	0	0	0	0	0	3051	10	1.44693	10.0048	30.521	30.521	0	8.47805	11	-1.08682	0.0111476	0.000000000000000E+000	7.51684e+07	0.000000000000000E+000	0.000000000000000E+000	8.47805	8.47805	0.0000000E+000	0.000000000000000E+000	0.0144763	2.53375
1	1	0	0	0	0	0	3076	10	1.44851	10.0031	30.7711	30.7711	0	8.54752	11	-1.08783	0.0112481	0.000000000000000E+000	7.54909e+07	0.000000000000000E+000	0.000000000000000E+000	8.54752	8.54752	0.0000000E+000	0.000000000000000E+000	0.0144896	2.53634
1	1	0	0	0	0	0	3101	10	1.4502	10.004	31.0212	31.0212	0	8.61699	11	-1.08736	0.0113488	0.000000000000000E+000	7.57906e+07	0.000000000000000E+000	0.000000000000000E+000	8.61699	8.61699	0.0000000E+000	0.000000000000000E+000	0.0145078	2.53756
1	1	0	0	0	0	0	3126	10	1.45147	10.0039	31.2713	31.2713	0	8.68646	11	-1.08811	0.0114496	0.000000000000000E+000	7.6165e+07	0.000000000000000E+000	0.000000000000000E+000	8.68646	8.68646	0.0000000E+000	0.000000000000000E+000	0.0145203	2.53958
1	1	0	0	0	0	0	3151	10	1.45354	10.0038	31.5214	31.5214	0	8.75594	11	-1.08733	0.0115505	0.000000000000000E+000	7.63892e+07	0.000000000000000E+000	0.000000000000000E+000	8.75594	8.75594	0.0000000E+000	0.000000000000000E+000	0.0145409	2.54087
1	1	0	0	0	0	0	3176	10	1.45527	10.0047	31.7715	31.7715	0	8.82541	11	-1.08703	0.0116516	0.000000000000000E+000	7.66729e+07	0.000000000000000E+000	0.000000000000000E+000	8.82541	8.82541	0.0000000E+000	0.000000000000000E+000	0.0145596	2.54231
1	1	0	0	0	0	0	3201	10	1.45682	10.004	32.0216	32.0216	0	8.89488	11	-1.08806	0.0117527	0.000000000000000E+000	7.6989e+07	0.000000000000000E+000	0.000000000000000E+000	8.89488	8.89488	0.0000000E+000	0.000000000000000E+000	0.014574	2.54488
1	1	0	0	0	0	0	3226	10	1.45836	10.0042	32.2716	32.2716	0	8.96435	11	-1.08762	0.011854	0.000000000000000E+000	7.73048e+07	0.000000000000000E+000	0.000000000000000E+000	8.96435	8.96435	0.0000000E+000	0.000000000000000E+000	0.0145897	2.54598
1	1	0	0	0	0	0	3251	10	1.45993	10.0042	32.5217	32.5217	0	9.03382	11	-1.08815	0.0119553	0.000000000000000E+000	7.76112e+07	0.000000000000000E+000	0.000000000000000E+000	9.03382	9.03382	0.0000000E+000	0.000000000000000E+000	0.0146055	2.54808
1	1	0	0	0	0	0	3276	10	1.46611	10.0037	32.7718	32.7718	0	9.10329	11	-1.08782	0.0120571	0.000000000000000E+000	7.70718e+07	0.000000000000000E+000	0.000000000000000E+000	9.10329	9.10329	0.0000000E+000	0.000000000000000E+000	0.0146665	2.55393
1	1	0	0	0	0	0	3301	10	1.46803	10.0031	33.0219	33.0219	0	9.17276	11	-1.08907	0.012159	0.000000000000000E+000	7.7311e+07	0.000000000000000E+000	0.000000000000000E+000	9.17276	9.17276	0.0000000E+000	0.000000000000000E+000	0.0146849	2.5571
1	1	0	0	0	0	0	3326	10	1.46971	10.0033	33.272	33.272	0	9.24223	11	-1.08868	0.0122611	0.000000000000000E+000	7.75909e+07	0.000000000000000E+000	0.000000000000000E+000	9.24223	9.24223	0.0000000E+000	0.000000000000000E+000	0.014702	2.55839
1	1	0	0	0	0	0	3351	10	1.47137	10.0038	33.5221	33.5221	0	9.3117	11	-1.08922	0.0123633	0.000000000000000E+000	7.78729e+07	0.000000000000000E+000	0.000000000000000E+000	9.3117	9.3117	0.0000000E+000	0.000000000000000E+000	0.0147193	2.56059
1	1	0	0	0	0	0	3376	10	1.4746	10.0033	33.7722	33.7722	0	9.38117	11	-1.08796	0.0124656	0.000000000000000E+000	7.78685e+07	0.000000000000000E+000	0.000000000000000E+000	9.38117	9.38117	0.0000000E+000	0.000000000000000E+000	0.0147509	2.56257
1	1	0	0	0	0	0	3401	10	1.47698	10.0031	34.0223	34.0223	0	9.45064	11	-1.09052	0.0125681	0.000000000000000E+000	7.80169e+07	0.000000000000000E+000	0.000000000000000E+000	9.45064	9.45064	0.0000000E+000	0.000000000000000E+000	0.0147744	2.56751
1	1	0	0	0	0	0	3426	10	1.47713	10.0036	34.2724	34.2724	0	9.52011	11	-1.09066	0.0126708	0.000000000000000E+000	7.85647e+07	0.000000000000000E+000	0.000000000000000E+000	9.52011	9.52011	0.0000000E+000	0.000000000000000E+000	0.0147766	2.56779
1	1	0	0	0	0	0	3451	10	1.47795	10.0043	34.5225	34.5225	0	9.58958	11	-1.0901	0.0127735	0.000000000000000E+000	7.89887e+07	0.000000000000000E+000	0.000000000000000E+000	9.58958	9.58958	0.0000000E+000	0.000000000000000E+000	0.0147858	2.56806
1	1	0	0	0	0	0	3476	10	1.47864	10.0038	34.7726	34.7726	0	9.65905	11	-1.09135	0.0128763	0.000000000000000E+000	7.94366e+07	0.000000000000000E+000	0.000000000000000E+000	9.65905	9.65905	0.0000000E+000	0.000000000000000E+000	0.014792	2.56999
1	1	0	0	0	0	0	3501	10	1.48161	10.0039	35.0227	35.0227	0	9.72852	11	-1.09066	0.0129791	0.000000000000000E+000	7.94686e+07	0.000000000000000E+000	0.000000000000000E+000	9.72852	9.72852	0.0000000E+000	0.000000000000000E+000	0.0148218	2.57227
1	1	0	0	0	0	0	3526	10	1.48266	10.004	35.2728	35.2728	0	9.79799	11	-1.09115	0.0130821	0.000000000000000E+000	7.98452e+07	0.000000000000000E+000	0.000000000000000E+000	9.79799	9.79799	0.0000000E+000	0.000000000000000E+000	0.0148325	2.57381
1	1	0	0	0	0	0	3551	10	1.48595	10.0035	35.5229	35.5229	0	9.86747	11	-1.09107	0.0131851	0.000000000000000E+000	7.98171e+07	0.000000000000000E+000	0.000000000000000E+000	9.86747	9.86747	0.0000000E+000	0.000000000000000E+000	0.0148647	2.57702
1	1	0	0	0	0	0	3576	10	1.4857	10.0033	35.773	35.773	0	9.93694	11	-1.0914	0.0132883	0.000000000000000E+000	8.04246e+07	0.000000000000000E+000	0.000000000000000E+000	9.93694	9.93694	0.0000000E+000	0.000000000000000E+000	0.0148618	2.57709
1	1	0	0	0	0	0	3601	10	1.4885	10.0043	36.0231	36.0231	0	10.0064	11	-1.09245	0.0133915	0.000000000000000E+000	8.04806e+07	0.000000000000000E+000	0.000000000000000E+000	10.0064	10.0064	0.0000000E+000	0.000000000000000E+000	0.0148914	2.58094
1	1	0	0	0	0	0	3626	10	1.48791	10.0039	36.2732	36.2732	0	10.0759	11	-1.09331	0.0134949	0.000000000000000E+000	8.11446e+07	0.000000000000000E+000	0.000000000000000E+000	10.0759	10.0759	0.0000000E+000	0.000000000000000E+000	0.0148849	2.58122
1	1	0	0	0	0	0	3651	10	1.4902	10.003	36.5233	36.5233	0	10.1453	11	-1.09245	0.0135984	0.000000000000000E+000	8.12888e+07	0.000000000000000E+000	0.000000000000000E+000	10.1453	10.1453	0.0000000E+000	0.000000000000000E+000	0.0149065	2.58265
1	1	0	0	0	0	0	3676	10	1.49234	10.0037	36.7734	36.7734	0	10.2148	11	-1.09146	0.013702	0.000000000000000E+000	8.14566e+07	0.000000000000000E+000	0.000000000000000E+000	10.2148	10.2148	0.0000000E+000	0.000000000000000E+000	0.014929	2.58381
1	1	0	0	0	0	0	3701	10	1.4932	10.0037	37.0234	37.0234	0	10.2843	11	-1.09303	0.0138057	0.000000000000000E+000	8.18546e+07	0.000000000000000E+000	0.000000000000000E+000	10.2843	10.2843	0.0000000E+000	0.000000000000000E+000	0.0149376	2.58624
1	1	0	0	0	0	0	3726	10	1.49446	10.0035	37.2735	37.2735	0	10.3538	11	-1.09277	0.0139095	0.000000000000000E+000	8.21789e+07	0.000000000000000E+000	0.000000000000000E+000	10.3538	10.3538	0.0000000E+000	0.000000000000000E+000	0.0149499	2.58724
1	1	0	0	0	0	0	3751	10	1.49657	10.0035	37.5236	37.5236	0	10.4232	11	-1.09212	0.0140134	0.000000000000000E+000	8.23468e+07	0.000000000000000E+000	0.000000000000000E+000	10.4232	10.4232	0.0000000E+000	0.000000000000000E+000	0.014971	2.58869
1	1	0	0	0	0	0	3776	10	1.49771	10.0041	37.7737	37.7737	0	10.4927	11	-1.09234	0.0141174	0.000000000000000E+000	8.26897e+07	0.000000000000000E+000	0.000000000000000E+000	10.4927	10.4927	0.0000000E+000	0.000000000000000E+000	0.0149832	2.59005
1	1	0	0	0	0	0	3801	10	1.49938	10.0041	38.0238	38.0238	0	10.5622	11	-1.09293	0.0142215	0.000000000000000E+000	8.29346e+07	0.000000000000000E+000	0.000000000000000E+000	10.5622	10.5622	0.0000000E+000	0.000000000000000E+000	0.0149999	2.5923
1	1	0	0	0	0	0	3826	10	1.50106	10.0038	38.2739	38.2739	0	10.6316	11	-1.0927	0.0143257	0.000000000000000E+000	8.3175e+07	0.000000000000000E+000	0.000000000000000E+000	10.6316	10.6316	0.0000000E+000	0.000000000000000E+000	0.0150163	2.59376
1	1	0	0	0	0	0	3851	10	1.50359	10.0039	38.524	38.524	0	10.7011	11	-1.09312	0.0144301	0.000000000000000E+000	8.32609e+07	0.000000000000000E+000	0.000000000000000E+000	10.7011	10.7011	0.0000000E+000	0.000000000000000E+000	0.0150417	2.59671
1	1	0	0	0	0	0	3876	10	1.50465	10.0041	38.7741	38.7741	0	10.7706	11	-1.09124	0.0145346	0.000000000000000E+000	8.36096e+07	0.000000000000000E+000	0.000000000000000E+000	10.7706	10.7706	0.0000000E+000	0.000000000000000E+000	0.0150527	2.59589
1	1	0	0	0	0	0	3901	10	1.50538	10.0035	39.0242	39.0242	0	10.8401	11	-1.09269	0.0146391	0.000000000000000E+000	8.40155e+07	0.000000000000000E+000	0.000000000000000E+000	10.8401	10.8401	0.0000000E+000	0.000000000000000E+000	0.0150591	2.59807
1	1	0	0	0	0	0	3926	10	1.50696	10.0041	39.2743	39.2743	0	10.9095	11	-1.09249	0.0147438	0.000000000000000E+000	8.42672e+07	0.000000000000000E+000	0.000000000000000E+000	10.9095	10.9095	0.0000000E+000	0.000000000000000E+000	0.0150759	2.59945
1	1	0	0	0	0	0	3951	10	1.50882	10.0041	39.5244	39.5244	0	10.979	11	-1.093	0.0148486	0.000000000000000E+000	8.44667e+07	0.000000000000000E+000	0.000000000000000E+000	10.979	10.979	0.0000000E+000	0.000000000000000E+000	0.0150944	2.60182
1	1	0	0	0	0	0	3976	10	1.51066	10.0038	39.7745	39.7745	0	11.0485	11	-1.09358	0.0149535	0.000000000000000E+000	8.46699e+07	0.000000000000000E+000	0.000000000000000E+000	11.0485	11.0485	0.0000000E+000	0.000000000000000E+000	0.0151122	2.60424
1	1	0	0	0	0	0	4001	10	1.51164	10.0038	40.0246	40.0246	0	11.1179	11	-1.09267	0.0150585	0.000000000000000E+000	8.50238e+07	0.000000000000000E+000	0.000000000000000E+000	11.1179	11.1179	0.0000000E+000	0.000000000000000E+000	0.0151222	2.60431
1	1	0	0	0	0	0	4026	10	1.51416	10.0034	40.2747	40.2747	0	11.1874	11	-1.09321	0.0151636	0.000000000000000E+000	8.50999e+07	0.000000000000000E+000	0.000000000000000E+000	11.1874	11.1874	0.0000000E+000	0.000000000000000E+000	0.0151467	2.60737
1	1	0	0	0	0	0	4051	10	1.51752	10.0042	40.5248	40.5248	0	11.2569	11	-1.09324	0.015269	0.000000000000000E+000	8.5024e+07	0.000000000000000E+000	0.000000000000000E+000	11.2569	11.2569	0.0000000E+000	0.000000000000000E+000	0.0151816	2.61076
1	1	0	0	0	0	0	4076	10	1.518	10.0038	40.7749	40.7749	0	11.3264	11	-1.09407	0.0153744	0.000000000000000E+000	8.54638e+07	0.000000000000000E+000	0.000000000000000E+000	11.3264	11.3264	0.0000000E+000	0.000000000000000E+000	0.0151858	2.61207
1	1	0	0	0	0	0	4101	10	1.51943	10.0035	41.025	41.025	0	11.3958	11	-1.0949	0.0154799	0.000000000000000E+000	8.57303e+07	0.000000000000000E+000	0.000000000000000E+000	11.3958	11.3958	0.0000000E+000	0.000000000000000E+000	0.0151996	2.61433
1	1	0	0	0	0	0	4126	10	1.52167	10.0044	41.2751	41.2751	0	11.4653	11	-1.09601	0.0155856	0.000000000000000E+000	8.58514e+07	0.000000000000000E+000	0.000000000000000E+000	11.4653	11.4653	0.0000000E+000	0.000000000000000E+000	0.0152234	2.61768
1	1	0	0	0	0	0	4151	10	1.52331	10.0033	41.5251	41.5251	0	11.5348	11	-1.09539	0.0156914	0.000000000000000E+000	8.60771e+07	0.000000000000000E+000	0.000000000000000E+000	11.5348	11.5348	0.0000000E+000	0.000000000000000E+000	0.0152382	2.61871
1	1	0	0	0	0	0	4176	10	1.52388	10.0044	41.7752	41.7752	0	11.6042	11	-1.09632	0.0157972	0.000000000000000E+000	8.64933e+07	0.000000000000000E+000	0.000000000000000E+000	11.6042	11.6042	0.0000000E+000	0.000000000000000E+000	0.0152456	2.62021
1	1	0	0	0	0	0	4201	10	1.52711	10.004	42.0253	42.0253	0	11.6737	11	-1.09735	0.0159032	0.000000000000000E+000	8.64338e+07	0.000000000000000E+000	0.000000000000000E+000	11.6737	11.6737	0.0000000E+000	0.000000000000000E+000	0.0152771	2.62446
1	1	0	0	0	0	0	4226	10	1.52746	10.0033	42.2754	42.2754	0	11.7432	11	-1.09613	0.0160092	0.000000000000000E+000	8.68853e+07	0.000000000000000E+000	0.000000000000000E+000	11.7432	11.7432	0.0000000E+000	0.000000000000000E+000	0.0152797	2.62359
1	1	0	0	0	0	0	4251	10	1.52815	10.0037	42.5255	42.5255	0	11.8126	11	-1.09694	0.0161154	0.000000000000000E+000	8.7276e+07	0.000000000000000E+000	0.000000000000000E+000	11.8126	11.8126	0.0000000E+000	0.000000000000000E+000	0.0152872	2.62509
1	1	0	0	0	0	0	4276	10	1.52969	10.0037	42.7756	42.7756	0	11.8821	11	-1.09574	0.0162217	0.000000000000000E+000	8.7513e+07	0.000000000000000E+000	0.000000000000000E+000	11.8821	11.8821	0.0000000E+000	0.000000000000000E+000	0.0153025	2.62542
1	1	0	0	0	0	0	4301	10	1.53295	10.0041	43.0257	43.0257	0	11.9516	11	-1.09684	0.016328	0.000000000000000E+000	8.74411e+07	0.000000000000000E+000	0.000000000000000E+000	11.9516	11.9516	0.0000000E+000	0.000000000000000E+000	0.0153359	2.62979
1	1	0	0	0	0	0	4326	10	1.5341	10.0033	43.2758	43.2758	0	12.0211	11	-1.09713	0.0164346	0.000000000000000E+000	8.77441e+07	0.000000000000000E+000	0.000000000000000E+000	12.0211	12.0211	0.0000000E+000	0.000000000000000E+000	0.0153461	2.63123
1	1	0	0	0	0	0	4351	10	1.53478	10.0039	43.5259	43.5259	0	12.0905	11	-1.098	0.0165411	0.000000000000000E+000	8.81295e+07	0.000000000000000E+000	0.000000000000000E+000	12.0905	12.0905	0.0000000E+000	0.000000000000000E+000	0.0153538	2.63278
1	1	0	0	0	0	0	4376	10	1.53721	10.0036	43.776	43.776	0	12.16	11	-1.09803	0.0166479	0.000000000000000E+000	8.82017e+07	0.000000000000000E+000	0.000000000000000E+000	12.16	12.16	0.0000000E+000	0.000000000000000E+000	0.0153777	2.63525
1	1	0	0	0	0	0	4401	10	1.53951	10.0042	44.0261	44.0261	0	12.2295	11	-1.09712	0.0167548	0.000000000000000E+000	8.8297e+07	0.000000000000000E+000	0.000000000000000E+000	12.2295	12.2295	0.0000000E+000	0.000000000000000E+000	0.0154016	2.63663
1	1	0	0	0	0	0	4426	10	1.53619	10.0038	44.2762	44.2762	0	12.2989	11	-1.09873	0.0168616	0.000000000000000E+000	8.93941e+07	0.000000000000000E+000	0.000000000000000E+000	12.2989	12.2989	0.0000000E+000	0.000000000000000E+000	0.0153677	2.63492
1	1	0	0	0	0	0	4451	10	1.53935	10.0036	44.5263	44.5263	0	12.3684	11	-1.09806	0.0169685	0.000000000000000E+000	8.93286e+07	0.000000000000000E+000	0.000000000000000E+000	12.3684	12.3684	0.0000000E+000	0.000000000000000E+000	0.0153991	2.63741
1	1	0	0	0	0	0	4476	10	1.54348	10.0047	44.7764	44.7764	0	12.4379	11	-1.09916	0.0170756	0.000000000000000E+000	8.90917e+07	0.000000000000000E+000	0.000000000000000E+000	12.4379	12.4379	0.0000000E+000	0.000000000000000E+000	0.0154421	2.64264
1	1	0	0	0	0	0	4501	10	1.54679	10.0041	45.0265	45.0265	0	12.5074	11	-1.09722	0.0171829	0.000000000000000E+000	8.90035e+07	0.000000000000000E+000	0.000000000000000E+000	12.5074	12.5074	0.0000000E+000	0.000000000000000E+000	0.0154743	2.64401
1	1	0	0	0	0	0	4526	10	1.54989	10.0038	45.2766	45.2766	0	12.5768	11	-1.09675	0.0172905	0.000000000000000E+000	8.89535e+07	0.000000000000000E+000	0.000000000000000E+000	12.5768	12.5768	0.0000000E+000	0.000000000000000E+000	0.0155047	2.64664
1	1	0	0	0	0	0	4551	10	1.55271	10.0043	45.5267	45.5267	0	12.6463	11	-1.09749	0.0173982	0.000000000000000E+000	8.89517e+07	0.000000000000000E+000	0.000000000000000E+000	12.6463	12.6463	0.0000000E+000	0.000000000000000E+000	0.0155337	2.6502
1	1	0	0	0	0	0	4576	10	1.55482	10.0036	45.7768	45.7768	0	12.7158	11	-1.09695	0.0175062	0.000000000000000E+000	8.90735e+07	0.000000000000000E+000	0.000000000000000E+000	12.7158	12.7158	0.0000000E+000	0.000000000000000E+000	0.0155538	2.65177
1	1	0	0	0	0	0	4601	10	1.55704	10.0029	46.0268	46.0268	0	12.7852	11	-1.09818	0.0176142	0.000000000000000E+000	8.91745e+07	0.000000000000000E+000	0.000000000000000E+000	12.7852	12.7852	0.0000000E+000	0.000000000000000E+000	0.015575	2.65522
1	1	0	0	0	0	0	4626	10	1.5584	10.0032	46.2769	46.2769	0	12.8547	11	-1.09766	0.0177225	0.000000000000000E+000	8.9424e+07	0.000000000000000E+000	0.000000000000000E+000	12.8547	12.8547	0.0000000E+000	0.000000000000000E+000	0.0155889	2.65605
1	1	0	0	0	0	0	4651	10	1.56035	10.003	46.527	46.527	0	12.9242	11	-1.09785	0.0178308	0.000000000000000E+000	8.95696e+07	0.000000000000000E+000	0.000000000000000E+000	12.9242	12.9242	0.0000000E+000	0.000000000000000E+000	0.0156082	2.6582
1	1	0	0	0	0	0	4676	10	1.56337	10.0043	46.7771	46.7771	0	12.9936	11	-1.09856	0.0179393	0.000000000000000E+000	8.95306e+07	0.000000000000000E+000	0.000000000000000E+000	12.9936	12.9936	0.0000000E+000	0.000000000000000E+000	0.0156404	2.66193
1	1	0	0	0	0	0	4701	10	1.56942	10.0038	47.0272	47.0272	0	13.0631	11	-1.09867	0.0180481	0.000000000000000E+000	8.89789e+07	0.000000000000000E+000	0.000000000000000E+000	13.0631	13.0631	0.0000000E+000	0.000000000000000E+000	0.0157002	2.66809
1	1	0	0	0	0	0	4726	10	1.57369	10.0032	47.2773	47.2773	0	13.1326	11	-1.09938	0.0181572	0.000000000000000E+000	8.87353e+07	0.000000000000000E+000	0.000000000000000E+000	13.1326	13.1326	0.0000000E+000	0.000000000000000E+000	0.0157419	2.67307
1	1	0	0	0	0	0	4751	10	1.5744	10.0037	47.5274	47.5274	0	13.2021	11	-1.09918	0.0182666	0.000000000000000E+000	8.90857e+07	0.000000000000000E+000	0.000000000000000E+000	13.2021	13.2021	0.0000000E+000	0.000000000000000E+000	0.0157498	2.67357
1	1	0	0	0	0	0	4776	10	1.57662	10.004	47.7775	47.7775	0	13.2715	11	-1.09876	0.018376	0.000000000000000E+000	8.91832e+07	0.000000000000000E+000	0.000000000000000E+000	13.2715	13.2715	0.0000000E+000	0.000000000000000E+000	0.0157724	2.67538
1	1	0	0	0	0	0	4801	10	1.57897	10.004	48.0276	48.0276	0	13.341	11	-1.0995	0.0184856	0.000000000000000E+000	8.92582e+07	0.000000000000000E+000	0.000000000000000E+000	13.341	13.341	0.0000000E+000	0.000000000000000E+000	0.015796	2.67847
1	1	0	0	0	0	0	4826	10	1.58092	10.0038	48.2777	48.2777	0	13.4105	11	-1.10019	0.0185954	0.000000000000000E+000	8.93996e+07	0.000000000000000E+000	0.000000000000000E+000	13.4105	13.4105	0.0000000E+000	0.000000000000000E+000	0.0158152	2.68111
1	1	0	0	0	0	0	4851	10	1.58196	10.004	48.5278	48.5278	0	13.4799	11	-1.09948	0.0187052	0.000000000000000E+000	8.96891e+07	0.000000000000000E+000	0.000000000000000E+000	13.4799	13.4799	0.0000000E+000	0.000000000000000E+000	0.0158259	2.68144
1	1	0	0	0	0	0	4876	10	1.58403	10.0032	48.7779	48.7779	0	13.5494	11	-1.10023	0.0188152	0.000000000000000E+000	8.9808e+07	0.000000000000000E+000	0.000000000000000E+000	13.5494	13.5494	0.0000000E+000	0.000000000000000E+000	0.0158454	2.68426
1	1	0	0	0	0	0	4901	10	1.58522	10.0037	49.028	49.028	0	13.6189	11	-1.10114	0.0189253	0.000000000000000E+000	9.00712e+07	0.000000000000000E+000	0.000000000000000E+000	13.6189	13.6189	0.0000000E+000	0.000000000000000E+000	0.0158581	2.68636
1	1	0	0	0	0	0	4926	10	1.58793	10.0037	49.2781	49.2781	0	13.6884	11	-1.09956	0.0190355	0.000000000000000E+000	9.00826e+07	0.000000000000000E+000	0.000000000000000E+000	13.6884	13.6884	0.0000000E+000	0.000000000000000E+000	0.0158852	2.68749
1	1	0	0	0	0	0	4951	10	1.58958	10.0038	49.5282	49.5282	0	13.7578	11	-1.10068	0.0191459	0.000000000000000E+000	9.02669e+07	0.000000000000000E+000	0.000000000000000E+000	13.7578	13.7578	0.0000000E+000	0.000000000000000E+000	0.0159019	2.69026
1	1	0	0	0	0	0	4976	10	1.5909	10.004	49.7783	49.7783	0	13.8273	11	-1.09999	0.0192564	0.000000000000000E+000	9.05052e+07	0.000000000000000E+000	0.000000000000000E+000	13.8273	13.8273	0.0000000E+000	0.000000000000000E+000	0.0159153	2.69089
1	1	0	0	0	0	0	5001	10	1.59306	10.0038	50.0284	50.0284	0	13.8968	11	-1.1008	0.019367	0.000000000000000E+000	9.06038e+07	0.000000000000000E+000	0.000000000000000E+000	13.8968	13.8968	0.0000000E+000	0.000000000000000E+000	0.0159366	2.69386
1	1	0	0	0	0	0	5026	10	1.59573	10.0039	50.2785	50.2785	0	13.9662	11	-1.10181	0.0194778	0.000000000000000E+000	9.06181e+07	0.000000000000000E+000	0.000000000000000E+000	13.9662	13.9662	0.0000000E+000	0.000000000000000E+000	0.0159636	2.69754
1	1	0	0	0	0	0	5051	10	1.59759	10.0037	50.5285	50.5285	0	14.0357	11	-1.10184	0.0195887	0.000000000000000E+000	9.07655e+07	0.000000000000000E+000	0.000000000000000E+000	14.0357	14.0357	0.0000000E+000	0.000000000000000E+000	0.0159818	2.69943
1	1	0	0	0	0	0	5051.83	10	1.59723	10.004	50.5369	50.5369	0	14.038	11	-1.1025	0.0195924	0.000000000000000E+000	9.08387e+07	0.000000000000000E+000	0.000000000000000E+000	14.038	14.038	0.0000000E+000	0.000000000000000E+000	0.0159786	2.69973