File: Lares Oxides/2024-6-18 Ni33Co33Fe33Ox on FTO_1_07mg_03_CP_C05.mpt
EC-Lab ASCII FILE
Nb header lines : 54

Chronopotentiometry

Run on channel : 5 (SN 39658)
User :
CE vs. WE compliance from -10 V to 10 V
Electrode connection : standard
Potential control : Ewe
Ewe ctrl range : min = -2.50 V, max = 2.50 V
Safety Limits :
	Do not start on E overload
Acquisition started on : 06/18/2024 16:38:11.272
Technique started on : 06/18/2024 16:48:51.460
Loaded Setting File :  NONE
Saved on :
	File : 2024-6-18 Ni33Co33Fe33Ox on FTO_1_07mg_03_CP_C05.mpr
	Directory : C:\Users\sfolkman\OneDrive - New Mexico State University\Folkman Group Folder\Scott\
	Host : 172.24.124.15
Device : VSP (SN 1910)
Address : USB
EC-Lab for windows v11.46 (software)
Internet server v11.40 (firmware)
Command interpretor v11.40 (firmware)
Electrode material :
Initial state :
Electrolyte :
Comments :
Current amplifier : VSPB-4A
Electrode surface area : 0.001 cm²
Characteristic mass : 0.001 g
Equivalent Weight : 0.000 g/eq.
Density : 0.000 g/cm3
Volume (V) : 0.001 cm³
Cycle Definition : Charge/Discharge alternance
Is                  10.000
unit Is             mA
vs.                 <None>
ts (h:m:s)          48:00:0.0000
EM (V)              2.000
dQM                 480.000
unit dQM            mA.h
record              <Ewe>
dEs (mV)            0.00
dts (s)             2.0000
E range min (V)     -2.500
E range max (V)     2.500
I Range             10 mA
Bandwidth           4
goto Ns'            0
nc cycles           0

mode	ox/red	error	control changes	Ns changes	counter inc.	Ns	time/s	control/mA	<Ewe>/V	I/mA	dQ/C	(Q-Qo)/C	half cycle	Q charge/discharge/mA.h	I Range	Energy charge/W.h	Energy discharge/W.h	Capacitance charge/µF	Capacitance discharge/µF	Q discharge/mA.h	Q charge/mA.h	Capacity/mA.h	Efficiency/%	cycle number	P/W
1	1	0	1	0	0	0	640.188	10	0.918903	9.99644	0.0189725	0.0189725	0	0.00527015	11	4.84275e-06	0.000000000000000E+000	0.000000000000000E+000	0.000000000000000E+000	0.000000000000000E+000	0.00527015	0.00527015	0.0000000E+000	0.000000000000000E+000	0.00918575
1	1	0	1	0	0	0	650.188	10	0.932806	9.99561	0.118934	0.118934	0	0.0330372	11	3.06584e-05	0.000000000000000E+000	8.5542e+06	0.000000000000000E+000	0.000000000000000E+000	0.0330372	0.0330372	0.0000000E+000	0.000000000000000E+000	0.00932396
1	1	0	1	0	0	0	660.188	10	0.928145	9.99586	0.218895	0.218895	0	0.0608041	11	5.64479e-05	0.000000000000000E+000	2.36831e+07	0.000000000000000E+000	0.000000000000000E+000	0.0608041	0.0608041	0.0000000E+000	0.000000000000000E+000	0.00927761
1	1	0	1	0	0	0	670.188	10	0.931578	9.99631	0.318855	0.318855	0	0.0885709	11	8.22836e-05	0.000000000000000E+000	2.51546e+07	0.000000000000000E+000	0.000000000000000E+000	0.0885709	0.0885709	0.0000000E+000	0.000000000000000E+000	0.00931235
1	1	0	1	0	0	0	680.188	10	0.933738	9.99663	0.418816	0.418816	0	0.116338	11	0.000108207	0.000000000000000E+000	2.82316e+07	0.000000000000000E+000	0.000000000000000E+000	0.116338	0.116338	0.0000000E+000	0.000000000000000E+000	0.00933423
1	1	0	1	0	0	0	690.188	10	0.93464	9.99644	0.518777	0.518777	0	0.144105	11	0.000134124	0.000000000000000E+000	3.29634e+07	0.000000000000000E+000	0.000000000000000E+000	0.144105	0.144105	0.0000000E+000	0.000000000000000E+000	0.00934307
1	1	0	1	0	0	0	700.188	10	0.934958	9.99625	0.618738	0.618738	0	0.171872	11	0.000160113	0.000000000000000E+000	3.85374e+07	0.000000000000000E+000	0.000000000000000E+000	0.171872	0.171872	0.0000000E+000	0.000000000000000E+000	0.00934607
1	1	0	1	0	0	0	710.188	10	0.936779	9.99574	0.718698	0.718698	0	0.199638	11	0.000186105	0.000000000000000E+000	4.02035e+07	0.000000000000000E+000	0.000000000000000E+000	0.199638	0.199638	0.0000000E+000	0.000000000000000E+000	0.0093638
1	1	0	1	0	0	0	720.188	10	0.937244	9.99637	0.818658	0.818658	0	0.227405	11	0.00021214	0.000000000000000E+000	4.46347e+07	0.000000000000000E+000	0.000000000000000E+000	0.227405	0.227405	0.0000000E+000	0.000000000000000E+000	0.00936904
1	1	0	1	0	0	0	730.188	10	0.938124	9.99637	0.918619	0.918619	0	0.255172	11	0.000238193	0.000000000000000E+000	4.77914e+07	0.000000000000000E+000	0.000000000000000E+000	0.255172	0.255172	0.0000000E+000	0.000000000000000E+000	0.00937784
1	1	0	1	0	0	0	740.188	10	0.940161	9.99669	1.01858	1.01858	0	0.282939	11	0.000264276	0.000000000000000E+000	4.79144e+07	0.000000000000000E+000	0.000000000000000E+000	0.282939	0.282939	0.0000000E+000	0.000000000000000E+000	0.0093985
1	1	0	1	0	0	0	750.188	10	0.940333	9.99542	1.11854	1.11854	0	0.310705	11	0.000290409	0.000000000000000E+000	5.21932e+07	0.000000000000000E+000	0.000000000000000E+000	0.310705	0.310705	0.0000000E+000	0.000000000000000E+000	0.00939902
1	1	0	1	0	0	0	760.188	10	0.942484	9.9965	1.2185	1.2185	0	0.338472	11	0.000316555	0.000000000000000E+000	5.16724e+07	0.000000000000000E+000	0.000000000000000E+000	0.338472	0.338472	0.0000000E+000	0.000000000000000E+000	0.00942154
1	1	0	1	0	0	0	770.188	10	0.942529	9.99529	1.31846	1.31846	0	0.366239	11	0.000342717	0.000000000000000E+000	5.58046e+07	0.000000000000000E+000	0.000000000000000E+000	0.366239	0.366239	0.0000000E+000	0.000000000000000E+000	0.00942085
1	1	0	1	0	0	0	780.188	10	0.943362	9.99637	1.41842	1.41842	0	0.394005	11	0.000368914	0.000000000000000E+000	5.79907e+07	0.000000000000000E+000	0.000000000000000E+000	0.394005	0.394005	0.0000000E+000	0.000000000000000E+000	0.0094302
1	1	0	1	0	0	0	790.188	10	0.944516	9.99574	1.51838	1.51838	0	0.421772	11	0.000395123	0.000000000000000E+000	5.92813e+07	0.000000000000000E+000	0.000000000000000E+000	0.421772	0.421772	0.0000000E+000	0.000000000000000E+000	0.00944113
1	1	0	1	0	0	0	800.188	10	0.946071	9.99612	1.61834	1.61834	0	0.449539	11	0.000421365	0.000000000000000E+000	5.95674e+07	0.000000000000000E+000	0.000000000000000E+000	0.449539	0.449539	0.0000000E+000	0.000000000000000E+000	0.00945704
1	1	0	1	0	0	0	810.188	10	0.946099	9.99631	1.7183	1.7183	0	0.477305	11	0.000447623	0.000000000000000E+000	6.31819e+07	0.000000000000000E+000	0.000000000000000E+000	0.477305	0.477305	0.0000000E+000	0.000000000000000E+000	0.00945749
1	1	0	1	0	0	0	820.188	10	0.94645	9.99586	1.81826	1.81826	0	0.505072	11	0.000473905	0.000000000000000E+000	6.60056e+07	0.000000000000000E+000	0.000000000000000E+000	0.505072	0.505072	0.0000000E+000	0.000000000000000E+000	0.00946058
1	1	0	1	0	0	0	830.188	10	0.947003	9.99599	1.91822	1.91822	0	0.532839	11	0.000500197	0.000000000000000E+000	6.8262e+07	0.000000000000000E+000	0.000000000000000E+000	0.532839	0.532839	0.0000000E+000	0.000000000000000E+000	0.00946624
1	1	0	1	0	0	0	840.188	10	0.947909	9.99618	2.01818	2.01818	0	0.560606	11	0.000526505	0.000000000000000E+000	6.95767e+07	0.000000000000000E+000	0.000000000000000E+000	0.560606	0.560606	0.0000000E+000	0.000000000000000E+000	0.00947547
1	1	0	1	0	0	0	850.188	10	0.948306	9.99682	2.11814	2.11814	0	0.588372	11	0.000552833	0.000000000000000E+000	7.20373e+07	0.000000000000000E+000	0.000000000000000E+000	0.588372	0.588372	0.0000000E+000	0.000000000000000E+000	0.00948004
1	1	0	1	0	0	0	860.188	10	0.949143	9.99529	2.2181	2.2181	0	0.616139	11	0.000579181	0.000000000000000E+000	7.3348e+07	0.000000000000000E+000	0.000000000000000E+000	0.616139	0.616139	0.0000000E+000	0.000000000000000E+000	0.00948696
1	1	0	1	0	0	0	870.188	10	0.949976	9.99516	2.31806	2.31806	0	0.643906	11	0.000605546	0.000000000000000E+000	7.4599e+07	0.000000000000000E+000	0.000000000000000E+000	0.643906	0.643906	0.0000000E+000	0.000000000000000E+000	0.00949517
1	1	0	1	0	0	0	880.188	10	0.950358	9.99618	2.41802	2.41802	0	0.671673	11	0.000631937	0.000000000000000E+000	7.68719e+07	0.000000000000000E+000	0.000000000000000E+000	0.671673	0.671673	0.0000000E+000	0.000000000000000E+000	0.00949995
1	1	0	1	0	0	0	890.188	10	0.951191	9.99606	2.51798	2.51798	0	0.699439	11	0.000658339	0.000000000000000E+000	7.79837e+07	0.000000000000000E+000	0.000000000000000E+000	0.699439	0.699439	0.0000000E+000	0.000000000000000E+000	0.00950816
1	1	0	1	0	0	0	900.188	10	0.95177	9.99606	2.61794	2.61794	0	0.727206	11	0.000684762	0.000000000000000E+000	7.96505e+07	0.000000000000000E+000	0.000000000000000E+000	0.727206	0.727206	0.0000000E+000	0.000000000000000E+000	0.00951395
1	1	0	1	0	0	0	910.188	10	0.952299	9.99529	2.7179	2.7179	0	0.754972	11	0.000711199	0.000000000000000E+000	8.13838e+07	0.000000000000000E+000	0.000000000000000E+000	0.754972	0.754972	0.0000000E+000	0.000000000000000E+000	0.0095185
1	1	0	1	0	0	0	920.188	10	0.952939	9.99586	2.81786	2.81786	0	0.782739	11	0.000737655	0.000000000000000E+000	8.27896e+07	0.000000000000000E+000	0.000000000000000E+000	0.782739	0.782739	0.0000000E+000	0.000000000000000E+000	0.00952545
1	1	0	1	0	0	0	930.188	10	0.953352	9.9951	2.91782	2.91782	0	0.810505	11	0.000764122	0.000000000000000E+000	8.46994e+07	0.000000000000000E+000	0.000000000000000E+000	0.810505	0.810505	0.0000000E+000	0.000000000000000E+000	0.00952885
1	1	0	1	0	0	0	940.188	10	0.954062	9.99599	3.01778	3.01778	0	0.838272	11	0.000790599	0.000000000000000E+000	8.58314e+07	0.000000000000000E+000	0.000000000000000E+000	0.838272	0.838272	0.0000000E+000	0.000000000000000E+000	0.00953679
1	1	0	1	0	0	0	950.188	10	0.954258	9.99561	3.11774	3.11774	0	0.866038	11	0.00081709	0.000000000000000E+000	8.81829e+07	0.000000000000000E+000	0.000000000000000E+000	0.866038	0.866038	0.0000000E+000	0.000000000000000E+000	0.00953839
1	1	0	1	0	0	0	960.188	10	0.954621	9.9958	3.2177	3.2177	0	0.893805	11	0.000843591	0.000000000000000E+000	9.00861e+07	0.000000000000000E+000	0.000000000000000E+000	0.893805	0.893805	0.0000000E+000	0.000000000000000E+000	0.0095422
1	1	0	1	0	0	0	970.188	10	0.954887	9.99555	3.31766	3.31766	0	0.921571	11	0.000870107	0.000000000000000E+000	9.21977e+07	0.000000000000000E+000	0.000000000000000E+000	0.921571	0.921571	0.0000000E+000	0.000000000000000E+000	0.00954461
1	1	0	1	0	0	0	980.188	10	0.955883	9.99599	3.41761	3.41761	0	0.949337	11	0.000896636	0.000000000000000E+000	9.24175e+07	0.000000000000000E+000	0.000000000000000E+000	0.949337	0.949337	0.0000000E+000	0.000000000000000E+000	0.00955499
1	1	0	1	0	0	0	990.188	10	0.95592	9.99625	3.51757	3.51757	0	0.977104	11	0.00092318	0.000000000000000E+000	9.50235e+07	0.000000000000000E+000	0.000000000000000E+000	0.977104	0.977104	0.0000000E+000	0.000000000000000E+000	0.00955562
1	1	0	1	0	0	0	1000.19	10	0.956459	9.99561	3.61753	3.61753	0	1.00487	11	0.000949734	0.000000000000000E+000	9.63224e+07	0.000000000000000E+000	0.000000000000000E+000	1.00487	1.00487	0.0000000E+000	0.000000000000000E+000	0.00956039
1	1	0	1	0	0	0	1010.19	10	0.956848	9.99516	3.71749	3.71749	0	1.03264	11	0.000976299	0.000000000000000E+000	9.79691e+07	0.000000000000000E+000	0.000000000000000E+000	1.03264	1.03264	0.0000000E+000	0.000000000000000E+000	0.00956385
1	1	0	1	0	0	0	1020.19	10	0.957305	9.99586	3.81745	3.81745	0	1.0604	11	0.00100287	0.000000000000000E+000	9.94076e+07	0.000000000000000E+000	0.000000000000000E+000	1.0604	1.0604	0.0000000E+000	0.000000000000000E+000	0.00956909
1	1	0	1	0	0	0	1030.19	10	0.957217	9.99631	3.91741	3.91741	0	1.08817	11	0.00102946	0.000000000000000E+000	1.02244e+08	0.000000000000000E+000	0.000000000000000E+000	1.08817	1.08817	0.0000000E+000	0.000000000000000E+000	0.00956864
1	1	0	1	0	0	0	1040.19	10	0.95767	9.99586	4.01737	4.01737	0	1.11594	11	0.00105605	0.000000000000000E+000	1.03627e+08	0.000000000000000E+000	0.000000000000000E+000	1.11594	1.11594	0.0000000E+000	0.000000000000000E+000	0.00957274
1	1	0	1	0	0	0	1050.19	10	0.958282	9.99567	4.11733	4.11733	0	1.1437	11	0.00108265	0.000000000000000E+000	1.04557e+08	0.000000000000000E+000	0.000000000000000E+000	1.1437	1.1437	0.0000000E+000	0.000000000000000E+000	0.00957867
1	1	0	1	0	0	0	1060.19	10	0.95845	9.99574	4.21729	4.21729	0	1.17147	11	0.00110926	0.000000000000000E+000	1.06639e+08	0.000000000000000E+000	0.000000000000000E+000	1.17147	1.17147	0.0000000E+000	0.000000000000000E+000	0.00958041
1	1	0	1	0	0	0	1070.19	10	0.958625	9.99574	4.31725	4.31725	0	1.19924	11	0.00113587	0.000000000000000E+000	1.08684e+08	0.000000000000000E+000	0.000000000000000E+000	1.19924	1.19924	0.0000000E+000	0.000000000000000E+000	0.00958217
1	1	0	1	0	0	0	1080.19	10	0.959009	9.99542	4.41721	4.41721	0	1.227	11	0.0011625	0.000000000000000E+000	1.10138e+08	0.000000000000000E+000	0.000000000000000E+000	1.227	1.227	0.0000000E+000	0.000000000000000E+000	0.00958569
1	1	0	1	0	0	0	1090.19	10	0.959485	9.99656	4.51717	4.51717	0	1.25477	11	0.00118914	0.000000000000000E+000	1.1131e+08	0.000000000000000E+000	0.000000000000000E+000	1.25477	1.25477	0.0000000E+000	0.000000000000000E+000	0.00959155
1	1	0	1	0	0	0	1100.19	10	0.959402	9.99593	4.61713	4.61713	0	1.28254	11	0.00121578	0.000000000000000E+000	1.14004e+08	0.000000000000000E+000	0.000000000000000E+000	1.28254	1.28254	0.0000000E+000	0.000000000000000E+000	0.00959012
1	1	0	1	0	0	0	1110.19	10	0.959966	9.99599	4.71709	4.71709	0	1.3103	11	0.00124244	0.000000000000000E+000	1.14874e+08	0.000000000000000E+000	0.000000000000000E+000	1.3103	1.3103	0.0000000E+000	0.000000000000000E+000	0.00959581
1	1	0	1	0	0	0	1120.19	10	0.960569	9.99586	4.81705	4.81705	0	1.33807	11	0.0012691	0.000000000000000E+000	1.1561e+08	0.000000000000000E+000	0.000000000000000E+000	1.33807	1.33807	0.0000000E+000	0.000000000000000E+000	0.00960172
1	1	0	1	0	0	0	1130.19	10	0.960507	9.99529	4.91701	4.91701	0	1.36584	11	0.00129577	0.000000000000000E+000	1.18185e+08	0.000000000000000E+000	0.000000000000000E+000	1.36584	1.36584	0.0000000E+000	0.000000000000000E+000	0.00960055
1	1	0	1	0	0	0	1140.19	10	0.960832	9.99612	5.01697	5.01697	0	1.3936	11	0.00132245	0.000000000000000E+000	1.19651e+08	0.000000000000000E+000	0.000000000000000E+000	1.3936	1.3936	0.0000000E+000	0.000000000000000E+000	0.0096046
1	1	0	1	0	0	0	1150.19	10	0.961081	9.99669	5.11693	5.11693	0	1.42137	11	0.00134913	0.000000000000000E+000	1.21316e+08	0.000000000000000E+000	0.000000000000000E+000	1.42137	1.42137	0.0000000E+000	0.000000000000000E+000	0.00960763
1	1	0	1	0	0	0	1160.19	10	0.961175	9.99631	5.21688	5.21688	0	1.44913	11	0.00137582	0.000000000000000E+000	1.2341e+08	0.000000000000000E+000	0.000000000000000E+000	1.44913	1.44913	0.0000000E+000	0.000000000000000E+000	0.0096082
1	1	0	1	0	0	0	1170.19	10	0.961447	9.99669	5.31684	5.31684	0	1.4769	11	0.00140251	0.000000000000000E+000	1.24971e+08	0.000000000000000E+000	0.000000000000000E+000	1.4769	1.4769	0.0000000E+000	0.000000000000000E+000	0.00961129
1	1	0	1	0	0	0	1180.19	10	0.961663	9.99555	5.4168	5.4168	0	1.50467	11	0.00142922	0.000000000000000E+000	1.26679e+08	0.000000000000000E+000	0.000000000000000E+000	1.50467	1.50467	0.0000000E+000	0.000000000000000E+000	0.00961234
1	1	0	1	0	0	0	1190.19	10	0.962127	9.9958	5.51676	5.51676	0	1.53243	11	0.00145593	0.000000000000000E+000	1.27631e+08	0.000000000000000E+000	0.000000000000000E+000	1.53243	1.53243	0.0000000E+000	0.000000000000000E+000	0.00961723
1	1	0	1	0	0	0	1200.19	10	0.962398	9.99567	5.61672	5.61672	0	1.5602	11	0.00148264	0.000000000000000E+000	1.29133e+08	0.000000000000000E+000	0.000000000000000E+000	1.5602	1.5602	0.0000000E+000	0.000000000000000E+000	0.00961982
1	1	0	1	0	0	0	1210.19	10	0.962395	9.99612	5.71668	5.71668	0	1.58797	11	0.00150936	0.000000000000000E+000	1.3144e+08	0.000000000000000E+000	0.000000000000000E+000	1.58797	1.58797	0.0000000E+000	0.000000000000000E+000	0.00962022
1	1	0	1	0	0	0	1220.19	10	0.962534	9.99637	5.81664	5.81664	0	1.61573	11	0.00153609	0.000000000000000E+000	1.33314e+08	0.000000000000000E+000	0.000000000000000E+000	1.61573	1.61573	0.0000000E+000	0.000000000000000E+000	0.00962185
1	1	0	1	0	0	0	1230.19	10	0.962894	9.99567	5.9166	5.9166	0	1.6435	11	0.00156282	0.000000000000000E+000	1.34495e+08	0.000000000000000E+000	0.000000000000000E+000	1.6435	1.6435	0.0000000E+000	0.000000000000000E+000	0.00962477
1	1	0	1	0	0	0	1240.19	10	0.963097	9.99555	6.01656	6.01656	0	1.67127	11	0.00158956	0.000000000000000E+000	1.36139e+08	0.000000000000000E+000	0.000000000000000E+000	1.67127	1.67127	0.0000000E+000	0.000000000000000E+000	0.00962668
1	1	0	1	0	0	0	1250.19	10	0.96329	9.99631	6.11652	6.11652	0	1.69903	11	0.00161631	0.000000000000000E+000	1.37797e+08	0.000000000000000E+000	0.000000000000000E+000	1.69903	1.69903	0.0000000E+000	0.000000000000000E+000	0.00962935
1	1	0	1	0	0	0	1260.19	10	0.963482	9.99536	6.21648	6.21648	0	1.7268	11	0.00164306	0.000000000000000E+000	1.39448e+08	0.000000000000000E+000	0.000000000000000E+000	1.7268	1.7268	0.0000000E+000	0.000000000000000E+000	0.00963034
1	1	0	1	0	0	0	1270.19	10	0.963813	9.9958	6.31644	6.31644	0	1.75457	11	0.00166982	0.000000000000000E+000	1.40644e+08	0.000000000000000E+000	0.000000000000000E+000	1.75457	1.75457	0.0000000E+000	0.000000000000000E+000	0.00963409
1	1	0	1	0	0	0	1280.19	10	0.963972	9.99529	6.4164	6.4164	0	1.78233	11	0.00169658	0.000000000000000E+000	1.42367e+08	0.000000000000000E+000	0.000000000000000E+000	1.78233	1.78233	0.0000000E+000	0.000000000000000E+000	0.00963518
1	1	0	1	0	0	0	1290.19	10	0.964137	9.99618	6.51636	6.51636	0	1.8101	11	0.00172335	0.000000000000000E+000	1.44058e+08	0.000000000000000E+000	0.000000000000000E+000	1.8101	1.8101	0.0000000E+000	0.000000000000000E+000	0.00963769
1	1	0	1	0	0	0	1300.19	10	0.964313	9.99637	6.61631	6.61631	0	1.83787	11	0.00175013	0.000000000000000E+000	1.457e+08	0.000000000000000E+000	0.000000000000000E+000	1.83787	1.83787	0.0000000E+000	0.000000000000000E+000	0.00963963
1	1	0	1	0	0	0	1310.19	10	0.964268	9.99567	6.71627	6.71627	0	1.86563	11	0.0017769	0.000000000000000E+000	1.4805e+08	0.000000000000000E+000	0.000000000000000E+000	1.86563	1.86563	0.0000000E+000	0.000000000000000E+000	0.0096385
1	1	0	1	0	0	0	1320.19	10	0.964577	9.99599	6.81623	6.81623	0	1.8934	11	0.00180368	0.000000000000000E+000	1.49235e+08	0.000000000000000E+000	0.000000000000000E+000	1.8934	1.8934	0.0000000E+000	0.000000000000000E+000	0.0096419
1	1	0	1	0	0	0	1330.19	10	0.96507	9.99529	6.91619	6.91619	0	1.92116	11	0.00183048	0.000000000000000E+000	1.49805e+08	0.000000000000000E+000	0.000000000000000E+000	1.92116	1.92116	0.0000000E+000	0.000000000000000E+000	0.00964616
1	1	0	1	0	0	0	1340.19	10	0.965274	9.99606	7.01615	7.01615	0	1.94893	11	0.00185727	0.000000000000000E+000	1.51303e+08	0.000000000000000E+000	0.000000000000000E+000	1.94893	1.94893	0.0000000E+000	0.000000000000000E+000	0.00964893
1	1	0	1	0	0	0	1350.19	10	0.965391	9.99548	7.11611	7.11611	0	1.9767	11	0.00188408	0.000000000000000E+000	1.53072e+08	0.000000000000000E+000	0.000000000000000E+000	1.9767	1.9767	0.0000000E+000	0.000000000000000E+000	0.00964955
1	1	0	1	0	0	0	1360.19	10	0.965606	9.99631	7.21607	7.21607	0	2.00446	11	0.00191089	0.000000000000000E+000	1.54507e+08	0.000000000000000E+000	0.000000000000000E+000	2.00446	2.00446	0.0000000E+000	0.000000000000000E+000	0.0096525
1	1	0	1	0	0	0	1370.19	10	0.965913	9.99631	7.31603	7.31603	0	2.03223	11	0.00193771	0.000000000000000E+000	1.55626e+08	0.000000000000000E+000	0.000000000000000E+000	2.03223	2.03223	0.0000000E+000	0.000000000000000E+000	0.00965556
1	1	0	1	0	0	0	1380.19	10	0.966454	9.99567	7.41599	7.41599	0	2.06	11	0.00196454	0.000000000000000E+000	1.55956e+08	0.000000000000000E+000	0.000000000000000E+000	2.06	2.06	0.0000000E+000	0.000000000000000E+000	0.00966036
1	1	0	1	0	0	0	1390.19	10	0.966762	9.99631	7.51595	7.51595	0	2.08776	11	0.00199137	0.000000000000000E+000	1.57043e+08	0.000000000000000E+000	0.000000000000000E+000	2.08776	2.08776	0.0000000E+000	0.000000000000000E+000	0.00966405
1	1	0	1	0	0	0	1400.19	10	0.966787	9.99529	7.6159	7.6159	0	2.11553	11	0.00201821	0.000000000000000E+000	1.59046e+08	0.000000000000000E+000	0.000000000000000E+000	2.11553	2.11553	0.0000000E+000	0.000000000000000E+000	0.00966332
1	1	0	1	0	0	0	1410.19	10	0.967161	9.99561	7.71586	7.71586	0	2.1433	11	0.00204506	0.000000000000000E+000	1.59887e+08	0.000000000000000E+000	0.000000000000000E+000	2.1433	2.1433	0.0000000E+000	0.000000000000000E+000	0.00966736
1	1	0	1	0	0	0	1420.19	10	0.967396	9.99586	7.81582	7.81582	0	2.17106	11	0.00207192	0.000000000000000E+000	1.61173e+08	0.000000000000000E+000	0.000000000000000E+000	2.17106	2.17106	0.0000000E+000	0.000000000000000E+000	0.00966996
1	1	0	1	0	0	0	1430.19	10	0.967834	9.99548	7.91578	7.91578	0	2.19883	11	0.00209879	0.000000000000000E+000	1.61773e+08	0.000000000000000E+000	0.000000000000000E+000	2.19883	2.19883	0.0000000E+000	0.000000000000000E+000	0.00967397
1	1	0	1	0	0	0	1440.19	10	0.968014	9.99555	8.01574	8.01574	0	2.22659	11	0.00212566	0.000000000000000E+000	1.63214e+08	0.000000000000000E+000	0.000000000000000E+000	2.22659	2.22659	0.0000000E+000	0.000000000000000E+000	0.00967583
1	1	0	1	0	0	0	1450.19	10	0.968225	9.9965	8.1157	8.1157	0	2.25436	11	0.00215255	0.000000000000000E+000	1.64544e+08	0.000000000000000E+000	0.000000000000000E+000	2.25436	2.25436	0.0000000E+000	0.000000000000000E+000	0.00967886
1	1	0	1	0	0	0	1460.19	10	0.968967	9.99516	8.21566	8.21566	0	2.28213	11	0.00217945	0.000000000000000E+000	1.64102e+08	0.000000000000000E+000	0.000000000000000E+000	2.28213	2.28213	0.0000000E+000	0.000000000000000E+000	0.00968498
1	1	0	1	0	0	0	1470.19	10	0.969217	9.99637	8.31562	8.31562	0	2.30989	11	0.00220635	0.000000000000000E+000	1.65273e+08	0.000000000000000E+000	0.000000000000000E+000	2.30989	2.30989	0.0000000E+000	0.000000000000000E+000	0.00968865
1	1	0	1	0	0	0	1480.19	10	0.969317	9.99548	8.41558	8.41558	0	2.33766	11	0.00223327	0.000000000000000E+000	1.66929e+08	0.000000000000000E+000	0.000000000000000E+000	2.33766	2.33766	0.0000000E+000	0.000000000000000E+000	0.00968879
1	1	0	1	0	0	0	1490.19	10	0.969662	9.99631	8.51554	8.51554	0	2.36543	11	0.00226019	0.000000000000000E+000	1.67763e+08	0.000000000000000E+000	0.000000000000000E+000	2.36543	2.36543	0.0000000E+000	0.000000000000000E+000	0.00969304
1	1	0	1	0	0	0	1500.19	10	0.970082	9.99606	8.61549	8.61549	0	2.39319	11	0.00228712	0.000000000000000E+000	1.68338e+08	0.000000000000000E+000	0.000000000000000E+000	2.39319	2.39319	0.0000000E+000	0.000000000000000E+000	0.009697
1	1	0	1	0	0	0	1510.19	10	0.970156	9.9958	8.71545	8.71545	0	2.42096	11	0.00231405	0.000000000000000E+000	1.70047e+08	0.000000000000000E+000	0.000000000000000E+000	2.42096	2.42096	0.0000000E+000	0.000000000000000E+000	0.00969748
1	1	0	1	0	0	0	1520.19	10	0.970397	9.99618	8.81541	8.81541	0	2.44873	11	0.002341	0.000000000000000E+000	1.71193e+08	0.000000000000000E+000	0.000000000000000E+000	2.44873	2.44873	0.0000000E+000	0.000000000000000E+000	0.00970026
1	1	0	1	0	0	0	1530.19	10	0.970678	9.99586	8.91537	8.91537	0	2.47649	11	0.00236794	0.000000000000000E+000	1.72194e+08	0.000000000000000E+000	0.000000000000000E+000	2.47649	2.47649	0.0000000E+000	0.000000000000000E+000	0.00970276
1	1	0	1	0	0	0	1540.19	10	0.970679	9.99612	9.01533	9.01533	0	2.50426	11	0.00239489	0.000000000000000E+000	1.74121e+08	0.000000000000000E+000	0.000000000000000E+000	2.50426	2.50426	0.0000000E+000	0.000000000000000E+000	0.00970302
1	1	0	1	0	0	0	1550.19	10	0.970858	9.99516	9.11529	9.11529	0	2.53202	11	0.00242185	0.000000000000000E+000	1.75446e+08	0.000000000000000E+000	0.000000000000000E+000	2.53202	2.53202	0.0000000E+000	0.000000000000000E+000	0.00970388
1	1	0	1	0	0	0	1560.19	10	0.970914	9.9958	9.21525	9.21525	0	2.55979	11	0.0024488	0.000000000000000E+000	1.77177e+08	0.000000000000000E+000	0.000000000000000E+000	2.55979	2.55979	0.0000000E+000	0.000000000000000E+000	0.00970506
1	1	0	1	0	0	0	1570.19	10	0.971269	9.99555	9.31521	9.31521	0	2.58756	11	0.00247577	0.000000000000000E+000	1.77883e+08	0.000000000000000E+000	0.000000000000000E+000	2.58756	2.58756	0.0000000E+000	0.000000000000000E+000	0.00970837
1	1	0	1	0	0	0	1580.19	10	0.97147	9.99542	9.41517	9.41517	0	2.61532	11	0.00250274	0.000000000000000E+000	1.79107e+08	0.000000000000000E+000	0.000000000000000E+000	2.61532	2.61532	0.0000000E+000	0.000000000000000E+000	0.00971025
1	1	0	1	0	0	0	1590.19	10	0.97167	9.99675	9.51512	9.51512	0	2.64309	11	0.00252972	0.000000000000000E+000	1.80321e+08	0.000000000000000E+000	0.000000000000000E+000	2.64309	2.64309	0.0000000E+000	0.000000000000000E+000	0.00971355
1	1	0	1	0	0	0	1600.19	10	0.971899	9.99593	9.61508	9.61508	0	2.67086	11	0.0025567	0.000000000000000E+000	1.81428e+08	0.000000000000000E+000	0.000000000000000E+000	2.67086	2.67086	0.0000000E+000	0.000000000000000E+000	0.00971503
1	1	0	1	0	0	0	1610.19	10	0.97205	9.99567	9.71504	9.71504	0	2.69862	11	0.00258369	0.000000000000000E+000	1.82793e+08	0.000000000000000E+000	0.000000000000000E+000	2.69862	2.69862	0.0000000E+000	0.000000000000000E+000	0.0097163
1	1	0	1	0	0	0	1620.19	10	0.972216	9.99593	9.815	9.815	0	2.72639	11	0.00261068	0.000000000000000E+000	1.84099e+08	0.000000000000000E+000	0.000000000000000E+000	2.72639	2.72639	0.0000000E+000	0.000000000000000E+000	0.0097182
1	1	0	1	0	0	0	1630.19	10	0.972646	9.99529	9.91496	9.91496	0	2.75416	11	0.00263768	0.000000000000000E+000	1.84488e+08	0.000000000000000E+000	0.000000000000000E+000	2.75416	2.75416	0.0000000E+000	0.000000000000000E+000	0.00972188
1	1	0	1	0	0	0	1640.19	10	0.972739	9.99504	10.0149	10.0149	0	2.78192	11	0.00266469	0.000000000000000E+000	1.86024e+08	0.000000000000000E+000	0.000000000000000E+000	2.78192	2.78192	0.0000000E+000	0.000000000000000E+000	0.00972257
1	1	0	1	0	0	0	1650.19	10	0.972772	9.99599	10.1149	10.1149	0	2.80969	11	0.00269169	0.000000000000000E+000	1.87766e+08	0.000000000000000E+000	0.000000000000000E+000	2.80969	2.80969	0.0000000E+000	0.000000000000000E+000	0.00972382
1	1	0	1	0	0	0	1660.19	10	0.972951	9.99555	10.2148	10.2148	0	2.83745	11	0.00271871	0.000000000000000E+000	1.88993e+08	0.000000000000000E+000	0.000000000000000E+000	2.83745	2.83745	0.0000000E+000	0.000000000000000E+000	0.00972518
1	1	0	1	0	0	0	1670.19	10	0.973199	9.99529	10.3148	10.3148	0	2.86522	11	0.00274573	0.000000000000000E+000	1.8997e+08	0.000000000000000E+000	0.000000000000000E+000	2.86522	2.86522	0.0000000E+000	0.000000000000000E+000	0.00972741
1	1	0	1	0	0	0	1680.19	10	0.973616	9.99612	10.4148	10.4148	0	2.89299	11	0.00277276	0.000000000000000E+000	1.90352e+08	0.000000000000000E+000	0.000000000000000E+000	2.89299	2.89299	0.0000000E+000	0.000000000000000E+000	0.00973238
1	1	0	1	0	0	0	1690.19	10	0.973956	9.99574	10.5147	10.5147	0	2.92075	11	0.00279979	0.000000000000000E+000	1.90992e+08	0.000000000000000E+000	0.000000000000000E+000	2.92075	2.92075	0.0000000E+000	0.000000000000000E+000	0.00973541
1	1	0	1	0	0	0	1700.19	10	0.974128	9.9951	10.6147	10.6147	0	2.94852	11	0.00282684	0.000000000000000E+000	1.92206e+08	0.000000000000000E+000	0.000000000000000E+000	2.94852	2.94852	0.0000000E+000	0.000000000000000E+000	0.00973651
1	1	0	1	0	0	0	1710.19	10	0.974289	9.99599	10.7146	10.7146	0	2.97629	11	0.00285389	0.000000000000000E+000	1.9345e+08	0.000000000000000E+000	0.000000000000000E+000	2.97629	2.97629	0.0000000E+000	0.000000000000000E+000	0.00973899
1	1	0	1	0	0	0	1720.19	10	0.974596	9.99593	10.8146	10.8146	0	3.00405	11	0.00288095	0.000000000000000E+000	1.94181e+08	0.000000000000000E+000	0.000000000000000E+000	3.00405	3.00405	0.0000000E+000	0.000000000000000E+000	0.00974199
1	1	0	1	0	0	0	1730.19	10	0.974707	9.99567	10.9145	10.9145	0	3.03182	11	0.00290801	0.000000000000000E+000	1.95585e+08	0.000000000000000E+000	0.000000000000000E+000	3.03182	3.03182	0.0000000E+000	0.000000000000000E+000	0.00974285
1	1	0	1	0	0	0	1740.19	10	0.974916	9.99618	11.0145	11.0145	0	3.05958	11	0.00293508	0.000000000000000E+000	1.96641e+08	0.000000000000000E+000	0.000000000000000E+000	3.05958	3.05958	0.0000000E+000	0.000000000000000E+000	0.00974544
1	1	0	1	0	0	0	1750.19	10	0.975149	9.99593	11.1145	11.1145	0	3.08735	11	0.00296215	0.000000000000000E+000	1.97604e+08	0.000000000000000E+000	0.000000000000000E+000	3.08735	3.08735	0.0000000E+000	0.000000000000000E+000	0.00974752
1	1	0	1	0	0	0	1760.19	10	0.975227	9.99555	11.2144	11.2144	0	3.11512	11	0.00298923	0.000000000000000E+000	1.99105e+08	0.000000000000000E+000	0.000000000000000E+000	3.11512	3.11512	0.0000000E+000	0.000000000000000E+000	0.00974792
1	1	0	1	0	0	0	1770.19	10	0.975495	9.9958	11.3144	11.3144	0	3.14288	11	0.00301632	0.000000000000000E+000	1.99926e+08	0.000000000000000E+000	0.000000000000000E+000	3.14288	3.14288	0.0000000E+000	0.000000000000000E+000	0.00975086
1	1	0	1	0	0	0	1780.19	10	0.975608	9.99644	11.4143	11.4143	0	3.17065	11	0.0030434	0.000000000000000E+000	2.01293e+08	0.000000000000000E+000	0.000000000000000E+000	3.17065	3.17065	0.0000000E+000	0.000000000000000E+000	0.0097526
1	1	0	1	0	0	0	1790.19	10	0.975874	9.99618	11.5143	11.5143	0	3.19842	11	0.0030705	0.000000000000000E+000	2.02105e+08	0.000000000000000E+000	0.000000000000000E+000	3.19842	3.19842	0.0000000E+000	0.000000000000000E+000	0.00975502
1	1	0	1	0	0	0	1800.19	10	0.976113	9.99536	11.6143	11.6143	0	3.22618	11	0.0030976	0.000000000000000E+000	2.03009e+08	0.000000000000000E+000	0.000000000000000E+000	3.22618	3.22618	0.0000000E+000	0.000000000000000E+000	0.0097566
1	1	0	1	0	0	0	1810.19	10	0.975893	9.99555	11.7142	11.7142	0	3.25395	11	0.00312469	0.000000000000000E+000	2.05548e+08	0.000000000000000E+000	0.000000000000000E+000	3.25395	3.25395	0.0000000E+000	0.000000000000000E+000	0.00975458
1	1	0	1	0	0	0	1820.19	10	0.976503	9.99612	11.8142	11.8142	0	3.28172	11	0.0031518	0.000000000000000E+000	2.05106e+08	0.000000000000000E+000	0.000000000000000E+000	3.28172	3.28172	0.0000000E+000	0.000000000000000E+000	0.00976124
1	1	0	1	0	0	0	1830.19	10	0.976399	9.99612	11.9141	11.9141	0	3.30948	11	0.00317891	0.000000000000000E+000	2.07215e+08	0.000000000000000E+000	0.000000000000000E+000	3.30948	3.30948	0.0000000E+000	0.000000000000000E+000	0.0097602
1	1	0	1	0	0	0	1840.19	10	0.976356	9.99536	12.0141	12.0141	0	3.33725	11	0.00320602	0.000000000000000E+000	2.09108e+08	0.000000000000000E+000	0.000000000000000E+000	3.33725	3.33725	0.0000000E+000	0.000000000000000E+000	0.00975903
1	1	0	1	0	0	0	1850.19	10	0.976709	9.99567	12.1141	12.1141	0	3.36501	11	0.00323314	0.000000000000000E+000	2.09561e+08	0.000000000000000E+000	0.000000000000000E+000	3.36501	3.36501	0.0000000E+000	0.000000000000000E+000	0.00976287
1	1	0	1	0	0	0	1860.19	10	0.977022	9.99555	12.214	12.214	0	3.39278	11	0.00326026	0.000000000000000E+000	2.10155e+08	0.000000000000000E+000	0.000000000000000E+000	3.39278	3.39278	0.0000000E+000	0.000000000000000E+000	0.00976586
1	1	0	1	0	0	0	1870.19	10	0.977388	9.99631	12.314	12.314	0	3.42055	11	0.00328739	0.000000000000000E+000	2.10547e+08	0.000000000000000E+000	0.000000000000000E+000	3.42055	3.42055	0.0000000E+000	0.000000000000000E+000	0.00977028
1	1	0	1	0	0	0	1880.19	10	0.977473	9.99574	12.4139	12.4139	0	3.44831	11	0.00331453	0.000000000000000E+000	2.11948e+08	0.000000000000000E+000	0.000000000000000E+000	3.44831	3.44831	0.0000000E+000	0.000000000000000E+000	0.00977056
1	1	0	1	0	0	0	1890.19	10	0.977659	9.99548	12.5139	12.5139	0	3.47608	11	0.00334167	0.000000000000000E+000	2.12979e+08	0.000000000000000E+000	0.000000000000000E+000	3.47608	3.47608	0.0000000E+000	0.000000000000000E+000	0.00977217
1	1	0	1	0	0	0	1900.19	10	0.977651	9.99618	12.6138	12.6138	0	3.50385	11	0.00336882	0.000000000000000E+000	2.1471e+08	0.000000000000000E+000	0.000000000000000E+000	3.50385	3.50385	0.0000000E+000	0.000000000000000E+000	0.00977278
1	1	0	1	0	0	0	1910.19	10	0.978022	9.99593	12.7138	12.7138	0	3.53161	11	0.00339598	0.000000000000000E+000	2.15053e+08	0.000000000000000E+000	0.000000000000000E+000	3.53161	3.53161	0.0000000E+000	0.000000000000000E+000	0.00977624
1	1	0	1	0	0	0	1920.19	10	0.97843	9.99606	12.8138	12.8138	0	3.55938	11	0.00342314	0.000000000000000E+000	2.1526e+08	0.000000000000000E+000	0.000000000000000E+000	3.55938	3.55938	0.0000000E+000	0.000000000000000E+000	0.00978044
1	1	0	1	0	0	0	1930.19	10	0.978495	9.99561	12.9137	12.9137	0	3.58715	11	0.00345031	0.000000000000000E+000	2.167e+08	0.000000000000000E+000	0.000000000000000E+000	3.58715	3.58715	0.0000000E+000	0.000000000000000E+000	0.00978066
1	1	0	1	0	0	0	1940.19	10	0.97881	9.99625	13.0137	13.0137	0	3.61491	11	0.00347749	0.000000000000000E+000	2.1723e+08	0.000000000000000E+000	0.000000000000000E+000	3.61491	3.61491	0.0000000E+000	0.000000000000000E+000	0.00978442
1	1	0	1	0	0	0	1950.19	10	0.97867	9.99567	13.1136	13.1136	0	3.64268	11	0.00350466	0.000000000000000E+000	2.19411e+08	0.000000000000000E+000	0.000000000000000E+000	3.64268	3.64268	0.0000000E+000	0.000000000000000E+000	0.00978247
1	1	0	1	0	0	0	1960.19	10	0.978831	9.99555	13.2136	13.2136	0	3.67045	11	0.00353184	0.000000000000000E+000	2.20488e+08	0.000000000000000E+000	0.000000000000000E+000	3.67045	3.67045	0.0000000E+000	0.000000000000000E+000	0.00978395
1	1	0	1	0	0	0	1970.19	10	0.979104	9.99586	13.3136	13.3136	0	3.69821	11	0.00355902	0.000000000000000E+000	2.2115e+08	0.000000000000000E+000	0.000000000000000E+000	3.69821	3.69821	0.0000000E+000	0.000000000000000E+000	0.00978699
1	1	0	1	0	0	0	1980.19	10	0.978952	9.99548	13.4135	13.4135	0	3.72598	11	0.00358621	0.000000000000000E+000	2.23374e+08	0.000000000000000E+000	0.000000000000000E+000	3.72598	3.72598	0.0000000E+000	0.000000000000000E+000	0.0097851
1	1	0	1	0	0	0	1990.19	10	0.979391	9.99675	13.5135	13.5135	0	3.75374	11	0.0036134	0.000000000000000E+000	2.23407e+08	0.000000000000000E+000	0.000000000000000E+000	3.75374	3.75374	0.0000000E+000	0.000000000000000E+000	0.00979073
1	1	0	1	0	0	0	2000.19	10	0.97979	9.99625	13.6134	13.6134	0	3.78151	11	0.0036406	0.000000000000000E+000	2.23584e+08	0.000000000000000E+000	0.000000000000000E+000	3.78151	3.78151	0.0000000E+000	0.000000000000000E+000	0.00979422
1	1	0	1	0	0	0	2010.19	10	0.980153	9.99593	13.7134	13.7134	0	3.80928	11	0.00366781	0.000000000000000E+000	2.2389e+08	0.000000000000000E+000	0.000000000000000E+000	3.80928	3.80928	0.0000000E+000	0.000000000000000E+000	0.00979754
1	1	0	1	0	0	0	2020.19	10	0.980457	9.99631	13.8134	13.8134	0	3.83704	11	0.00369503	0.000000000000000E+000	2.24408e+08	0.000000000000000E+000	0.000000000000000E+000	3.83704	3.83704	0.0000000E+000	0.000000000000000E+000	0.00980095
1	1	0	1	0	0	0	2030.19	10	0.980227	9.99606	13.9133	13.9133	0	3.86481	11	0.00372225	0.000000000000000E+000	2.2688e+08	0.000000000000000E+000	0.000000000000000E+000	3.86481	3.86481	0.0000000E+000	0.000000000000000E+000	0.00979841
1	1	0	1	0	0	0	2040.19	10	0.979916	9.99593	14.0133	14.0133	0	3.89258	11	0.00374946	0.000000000000000E+000	2.29676e+08	0.000000000000000E+000	0.000000000000000E+000	3.89258	3.89258	0.0000000E+000	0.000000000000000E+000	0.00979517
1	1	0	1	0	0	0	2050.19	10	0.980154	9.99682	14.1132	14.1132	0	3.92034	11	0.00377668	0.000000000000000E+000	2.30416e+08	0.000000000000000E+000	0.000000000000000E+000	3.92034	3.92034	0.0000000E+000	0.000000000000000E+000	0.00979842
1	1	0	1	0	0	0	2060.19	10	0.980521	9.99599	14.2132	14.2132	0	3.94811	11	0.0038039	0.000000000000000E+000	2.30663e+08	0.000000000000000E+000	0.000000000000000E+000	3.94811	3.94811	0.0000000E+000	0.000000000000000E+000	0.00980128
1	1	0	1	0	0	0	2070.19	10	0.980393	9.99606	14.3132	14.3132	0	3.97588	11	0.00383112	0.000000000000000E+000	2.32771e+08	0.000000000000000E+000	0.000000000000000E+000	3.97588	3.97588	0.0000000E+000	0.000000000000000E+000	0.00980006
1	1	0	1	0	0	0	2080.19	10	0.98069	9.99631	14.4131	14.4131	0	4.00364	11	0.00385835	0.000000000000000E+000	2.3327e+08	0.000000000000000E+000	0.000000000000000E+000	4.00364	4.00364	0.0000000E+000	0.000000000000000E+000	0.00980328
1	1	0	1	0	0	0	2090.19	10	0.981041	9.99599	14.5131	14.5131	0	4.03141	11	0.00388559	0.000000000000000E+000	2.33558e+08	0.000000000000000E+000	0.000000000000000E+000	4.03141	4.03141	0.0000000E+000	0.000000000000000E+000	0.00980648
1	1	0	1	0	0	0	2100.19	10	0.981287	9.99567	14.613	14.613	0	4.05917	11	0.00391283	0.000000000000000E+000	2.3424e+08	0.000000000000000E+000	0.000000000000000E+000	4.05917	4.05917	0.0000000E+000	0.000000000000000E+000	0.00980863
1	1	0	1	0	0	0	2110.19	10	0.981501	9.99606	14.713	14.713	0	4.08694	11	0.00394008	0.000000000000000E+000	2.35038e+08	0.000000000000000E+000	0.000000000000000E+000	4.08694	4.08694	0.0000000E+000	0.000000000000000E+000	0.00981114
1	1	0	1	0	0	0	2120.19	10	0.981595	9.99561	14.8129	14.8129	0	4.11471	11	0.00396734	0.000000000000000E+000	2.36279e+08	0.000000000000000E+000	0.000000000000000E+000	4.11471	4.11471	0.0000000E+000	0.000000000000000E+000	0.00981164
1	1	0	1	0	0	0	2130.19	10	0.981847	9.99637	14.9129	14.9129	0	4.14247	11	0.0039946	0.000000000000000E+000	2.36923e+08	0.000000000000000E+000	0.000000000000000E+000	4.14247	4.14247	0.0000000E+000	0.000000000000000E+000	0.0098149
1	1	0	1	0	0	0	2140.19	10	0.982048	9.99625	15.0129	15.0129	0	4.17024	11	0.00402186	0.000000000000000E+000	2.37749e+08	0.000000000000000E+000	0.000000000000000E+000	4.17024	4.17024	0.0000000E+000	0.000000000000000E+000	0.0098168
1	1	0	1	0	0	0	2150.19	10	0.982149	9.99574	15.1128	15.1128	0	4.19801	11	0.00404913	0.000000000000000E+000	2.38951e+08	0.000000000000000E+000	0.000000000000000E+000	4.19801	4.19801	0.0000000E+000	0.000000000000000E+000	0.0098173
1	1	0	1	0	0	0	2160.19	10	0.982478	9.99612	15.2128	15.2128	0	4.22577	11	0.00407641	0.000000000000000E+000	2.39288e+08	0.000000000000000E+000	0.000000000000000E+000	4.22577	4.22577	0.0000000E+000	0.000000000000000E+000	0.00982096
1	1	0	1	0	0	0	2170.19	10	0.982528	9.99567	15.3127	15.3127	0	4.25354	11	0.00410369	0.000000000000000E+000	2.40672e+08	0.000000000000000E+000	0.000000000000000E+000	4.25354	4.25354	0.0000000E+000	0.000000000000000E+000	0.00982102
1	1	0	1	0	0	0	2180.19	10	0.982569	9.99606	15.4127	15.4127	0	4.28131	11	0.00413097	0.000000000000000E+000	2.42084e+08	0.000000000000000E+000	0.000000000000000E+000	4.28131	4.28131	0.0000000E+000	0.000000000000000E+000	0.00982182
1	1	0	1	0	0	0	2190.19	10	0.982866	9.99675	15.5127	15.5127	0	4.30907	11	0.00415826	0.000000000000000E+000	2.42522e+08	0.000000000000000E+000	0.000000000000000E+000	4.30907	4.30907	0.0000000E+000	0.000000000000000E+000	0.00982547
1	1	0	1	0	0	0	2200.19	10	0.983139	9.99542	15.6126	15.6126	0	4.33684	11	0.00418556	0.000000000000000E+000	2.43048e+08	0.000000000000000E+000	0.000000000000000E+000	4.33684	4.33684	0.0000000E+000	0.000000000000000E+000	0.00982689
1	1	0	1	0	0	0	2210.19	10	0.983453	9.99555	15.7126	15.7126	0	4.36461	11	0.00421286	0.000000000000000E+000	2.43414e+08	0.000000000000000E+000	0.000000000000000E+000	4.36461	4.36461	0.0000000E+000	0.000000000000000E+000	0.00983015
1	1	0	1	0	0	0	2220.19	10	0.983297	9.99656	15.8125	15.8125	0	4.39237	11	0.00424016	0.000000000000000E+000	2.45556e+08	0.000000000000000E+000	0.000000000000000E+000	4.39237	4.39237	0.0000000E+000	0.000000000000000E+000	0.00982959
1	1	0	1	0	0	0	2230.19	10	0.98373	9.99606	15.9125	15.9125	0	4.42014	11	0.00426747	0.000000000000000E+000	2.4546e+08	0.000000000000000E+000	0.000000000000000E+000	4.42014	4.42014	0.0000000E+000	0.000000000000000E+000	0.00983342
1	1	0	1	0	0	0	2240.19	10	0.983757	9.99593	16.0125	16.0125	0	4.44791	11	0.00429479	0.000000000000000E+000	2.46897e+08	0.000000000000000E+000	0.000000000000000E+000	4.44791	4.44791	0.0000000E+000	0.000000000000000E+000	0.00983357
1	1	0	1	0	0	0	2250.19	10	0.98394	9.99529	16.1124	16.1124	0	4.47567	11	0.00432211	0.000000000000000E+000	2.47741e+08	0.000000000000000E+000	0.000000000000000E+000	4.47567	4.47567	0.0000000E+000	0.000000000000000E+000	0.00983477
1	1	0	1	0	0	0	2260.19	10	0.984218	9.99561	16.2124	16.2124	0	4.50344	11	0.00434943	0.000000000000000E+000	2.48218e+08	0.000000000000000E+000	0.000000000000000E+000	4.50344	4.50344	0.0000000E+000	0.000000000000000E+000	0.00983785
1	1	0	1	0	0	0	2270.19	10	0.984363	9.99542	16.3123	16.3123	0	4.5312	11	0.00437677	0.000000000000000E+000	2.49192e+08	0.000000000000000E+000	0.000000000000000E+000	4.5312	4.5312	0.0000000E+000	0.000000000000000E+000	0.00983913
1	1	0	1	0	0	0	2280.19	10	0.984662	9.99606	16.4123	16.4123	0	4.55897	11	0.0044041	0.000000000000000E+000	2.4958e+08	0.000000000000000E+000	0.000000000000000E+000	4.55897	4.55897	0.0000000E+000	0.000000000000000E+000	0.00984274
1	1	0	1	0	0	0	2290.19	10	0.984959	9.99567	16.5123	16.5123	0	4.58674	11	0.00443145	0.000000000000000E+000	2.49972e+08	0.000000000000000E+000	0.000000000000000E+000	4.58674	4.58674	0.0000000E+000	0.000000000000000E+000	0.00984533
1	1	0	1	0	0	0	2300.19	10	0.985182	9.99606	16.6122	16.6122	0	4.6145	11	0.0044588	0.000000000000000E+000	2.50639e+08	0.000000000000000E+000	0.000000000000000E+000	4.6145	4.6145	0.0000000E+000	0.000000000000000E+000	0.00984793
1	1	0	1	0	0	0	2310.19	10	0.985241	9.99599	16.7122	16.7122	0	4.64227	11	0.00448615	0.000000000000000E+000	2.51923e+08	0.000000000000000E+000	0.000000000000000E+000	4.64227	4.64227	0.0000000E+000	0.000000000000000E+000	0.00984846
1	1	0	1	0	0	0	2320.19	10	0.985237	9.9958	16.8121	16.8121	0	4.67004	11	0.00451351	0.000000000000000E+000	2.53444e+08	0.000000000000000E+000	0.000000000000000E+000	4.67004	4.67004	0.0000000E+000	0.000000000000000E+000	0.00984824
1	1	0	1	0	0	0	2330.19	10	0.98548	9.99663	16.9121	16.9121	0	4.6978	11	0.00454087	0.000000000000000E+000	2.54021e+08	0.000000000000000E+000	0.000000000000000E+000	4.6978	4.6978	0.0000000E+000	0.000000000000000E+000	0.00985148
1	1	0	1	0	0	0	2340.19	10	0.985847	9.99669	17.012	17.012	0	4.72557	11	0.00456824	0.000000000000000E+000	2.54121e+08	0.000000000000000E+000	0.000000000000000E+000	4.72557	4.72557	0.0000000E+000	0.000000000000000E+000	0.00985521
1	1	0	1	0	0	0	2350.19	10	0.986097	9.99599	17.112	17.112	0	4.75334	11	0.00459562	0.000000000000000E+000	2.54663e+08	0.000000000000000E+000	0.000000000000000E+000	4.75334	4.75334	0.0000000E+000	0.000000000000000E+000	0.00985702
1	1	0	1	0	0	0	2360.19	10	0.986268	9.99586	17.212	17.212	0	4.7811	11	0.004623	0.000000000000000E+000	2.555e+08	0.000000000000000E+000	0.000000000000000E+000	4.7811	4.7811	0.0000000E+000	0.000000000000000E+000	0.0098586
1	1	0	1	0	0	0	2370.19	10	0.986264	9.99586	17.3119	17.3119	0	4.80887	11	0.00465038	0.000000000000000E+000	2.57e+08	0.000000000000000E+000	0.000000000000000E+000	4.80887	4.80887	0.0000000E+000	0.000000000000000E+000	0.00985856
1	1	0	1	0	0	0	2380.19	10	0.986494	9.99593	17.4119	17.4119	0	4.83663	11	0.00467778	0.000000000000000E+000	2.57606e+08	0.000000000000000E+000	0.000000000000000E+000	4.83663	4.83663	0.0000000E+000	0.000000000000000E+000	0.00986092
1	1	0	1	0	0	0	2390.19	10	0.987224	9.99574	17.5118	17.5118	0	4.8644	11	0.00470519	0.000000000000000E+000	2.56316e+08	0.000000000000000E+000	0.000000000000000E+000	4.8644	4.8644	0.0000000E+000	0.000000000000000E+000	0.00986803
1	1	0	1	0	0	0	2400.19	10	0.988013	9.99599	17.6118	17.6118	0	4.89217	11	0.00473262	0.000000000000000E+000	2.54835e+08	0.000000000000000E+000	0.000000000000000E+000	4.89217	4.89217	0.0000000E+000	0.000000000000000E+000	0.00987617
1	1	0	1	0	0	0	2410.19	10	0.987753	9.99548	17.7118	17.7118	0	4.91993	11	0.00476004	0.000000000000000E+000	2.5725e+08	0.000000000000000E+000	0.000000000000000E+000	4.91993	4.91993	0.0000000E+000	0.000000000000000E+000	0.00987307
1	1	0	1	0	0	0	2420.19	10	0.98848	9.99625	17.8117	17.8117	0	4.9477	11	0.00478748	0.000000000000000E+000	2.55999e+08	0.000000000000000E+000	0.000000000000000E+000	4.9477	4.9477	0.0000000E+000	0.000000000000000E+000	0.00988109
1	1	0	1	0	0	0	2430.19	10	0.988397	9.99663	17.9117	17.9117	0	4.97547	11	0.00481492	0.000000000000000E+000	2.57741e+08	0.000000000000000E+000	0.000000000000000E+000	4.97547	4.97547	0.0000000E+000	0.000000000000000E+000	0.00988064
1	1	0	1	0	0	0	2440.19	10	0.988668	9.99663	18.0116	18.0116	0	5.00323	11	0.00484237	0.000000000000000E+000	2.58175e+08	0.000000000000000E+000	0.000000000000000E+000	5.00323	5.00323	0.0000000E+000	0.000000000000000E+000	0.00988334
1	1	0	1	0	0	0	2450.19	10	0.988983	9.99586	18.1116	18.1116	0	5.031	11	0.00486982	0.000000000000000E+000	2.58441e+08	0.000000000000000E+000	0.000000000000000E+000	5.031	5.031	0.0000000E+000	0.000000000000000E+000	0.00988574
1	1	0	1	0	0	0	2460.19	10	0.988658	9.99644	18.2116	18.2116	0	5.05877	11	0.00489728	0.000000000000000E+000	2.61076e+08	0.000000000000000E+000	0.000000000000000E+000	5.05877	5.05877	0.0000000E+000	0.000000000000000E+000	0.00988306
1	1	0	1	0	0	0	2470.19	10	0.989097	9.99567	18.3115	18.3115	0	5.08653	11	0.00492473	0.000000000000000E+000	2.60867e+08	0.000000000000000E+000	0.000000000000000E+000	5.08653	5.08653	0.0000000E+000	0.000000000000000E+000	0.00988669
1	1	0	1	0	0	0	2480.19	10	0.989186	9.99498	18.4115	18.4115	0	5.1143	11	0.0049522	0.000000000000000E+000	2.61962e+08	0.000000000000000E+000	0.000000000000000E+000	5.1143	5.1143	0.0000000E+000	0.000000000000000E+000	0.00988689
1	1	0	1	0	0	0	2490.19	10	0.990405	9.99599	18.5114	18.5114	0	5.14206	11	0.00497969	0.000000000000000E+000	2.58893e+08	0.000000000000000E+000	0.000000000000000E+000	5.14206	5.14206	0.0000000E+000	0.000000000000000E+000	0.00990008
1	1	0	1	0	0	0	2500.19	10	0.99069	9.99599	18.6114	18.6114	0	5.16983	11	0.0050072	0.000000000000000E+000	2.59259e+08	0.000000000000000E+000	0.000000000000000E+000	5.16983	5.16983	0.0000000E+000	0.000000000000000E+000	0.00990292
1	1	0	1	0	0	0	2510.19	10	0.99091	9.99625	18.7114	18.7114	0	5.1976	11	0.00503471	0.000000000000000E+000	2.59853e+08	0.000000000000000E+000	0.000000000000000E+000	5.1976	5.1976	0.0000000E+000	0.000000000000000E+000	0.00990538
1	1	0	1	0	0	0	2520.19	10	0.990902	9.99593	18.8113	18.8113	0	5.22536	11	0.00506223	0.000000000000000E+000	2.61271e+08	0.000000000000000E+000	0.000000000000000E+000	5.22536	5.22536	0.0000000E+000	0.000000000000000E+000	0.00990498
1	1	0	1	0	0	0	2530.19	10	0.991703	9.99656	18.9113	18.9113	0	5.25313	11	0.00508976	0.000000000000000E+000	2.59768e+08	0.000000000000000E+000	0.000000000000000E+000	5.25313	5.25313	0.0000000E+000	0.000000000000000E+000	0.00991362
1	1	0	1	0	0	0	2540.19	10	0.991741	9.9958	19.0112	19.0112	0	5.2809	11	0.00511729	0.000000000000000E+000	2.61006e+08	0.000000000000000E+000	0.000000000000000E+000	5.2809	5.2809	0.0000000E+000	0.000000000000000E+000	0.00991324
1	1	0	1	0	0	0	2550.19	10	0.991722	9.99548	19.1112	19.1112	0	5.30866	11	0.00514481	0.000000000000000E+000	2.62446e+08	0.000000000000000E+000	0.000000000000000E+000	5.30866	5.30866	0.0000000E+000	0.000000000000000E+000	0.00991274
1	1	0	1	0	0	0	2560.19	10	0.991608	9.99542	19.2111	19.2111	0	5.33643	11	0.00517235	0.000000000000000E+000	2.64233e+08	0.000000000000000E+000	0.000000000000000E+000	5.33643	5.33643	0.0000000E+000	0.000000000000000E+000	0.00991154
1	1	0	1	0	0	0	2570.19	10	0.992081	9.99586	19.3111	19.3111	0	5.3642	11	0.00519989	0.000000000000000E+000	2.63891e+08	0.000000000000000E+000	0.000000000000000E+000	5.3642	5.3642	0.0000000E+000	0.000000000000000E+000	0.00991671
1	1	0	1	0	0	0	2580.19	10	0.992081	9.99644	19.4111	19.4111	0	5.39196	11	0.00522744	0.000000000000000E+000	2.65255e+08	0.000000000000000E+000	0.000000000000000E+000	5.39196	5.39196	0.0000000E+000	0.000000000000000E+000	0.00991728
1	1	0	1	0	0	0	2590.19	10	0.992044	9.99593	19.511	19.511	0	5.41973	11	0.00525499	0.000000000000000E+000	2.66758e+08	0.000000000000000E+000	0.000000000000000E+000	5.41973	5.41973	0.0000000E+000	0.000000000000000E+000	0.0099164
1	1	0	1	0	0	0	2600.19	10	0.992647	9.99536	19.611	19.611	0	5.4475	11	0.00528255	0.000000000000000E+000	2.65933e+08	0.000000000000000E+000	0.000000000000000E+000	5.4475	5.4475	0.0000000E+000	0.000000000000000E+000	0.00992186
1	1	0	1	0	0	0	2604.49	10	2.50168	9.99586	19.654	19.654	0	5.45944	11	0.00529441	0.000000000000000E+000	1.24175e+07	0.000000000000000E+000	0.000000000000000E+000	5.45944	5.45944	0.0000000E+000	0.000000000000000E+000	0.0250064