File: Lares Oxides/2024-6-26 CoOx on FTO_1_03mg_03_CP_C05.mpt
EC-Lab ASCII FILE
Nb header lines : 55

Chronopotentiometry

Run on channel : 5 (SN 39658)
User :
CE vs. WE compliance from -10 V to 10 V
Electrode connection : standard
Potential control : Ewe
Ewe ctrl range : min = -2.50 V, max = 2.50 V
Safety Limits :
	Do not start on E overload
Acquisition started on : 06/26/2024 14:29:21.159
Technique started on : 06/26/2024 14:40:43.098
Loaded Setting File :  C:\Users\sfolkman\OneDrive - New Mexico State University\Folkman Group Folder\Scott\2024-6-19 FeOx on FTO_1_03mg.mps
Saved on :
	File : 2024-6-26 CoOx on FTO_1_03mg_03_CP_C05.mpr
	Directory : C:\Users\sfolkman\OneDrive - New Mexico State University\Folkman Group Folder\Scott\
	Host : 172.24.124.15
Device : VSP (SN 1910)
Address : USB
EC-Lab for windows v11.46 (software)
Internet server v11.40 (firmware)
Command interpretor v11.40 (firmware)
Electrode material :
Initial state :
Electrolyte :
Comments :
Current amplifier : VSPB-4A
Electrode surface area : 0.001 cm²
Characteristic mass : 0.001 g
Equivalent Weight : 0.000 g/eq.
Density : 0.000 g/cm3
Volume (V) : 0.001 cm³
Record Ece
Cycle Definition : Charge/Discharge alternance
Is                  10.000
unit Is             mA
vs.                 <None>
ts (h:m:s)          48:00:0.0000
EM (V)              5.000
dQM                 480.000
unit dQM            mA.h
record              <Ewe>
dEs (mV)            0.00
dts (s)             2.0000
E range min (V)     -2.500
E range max (V)     2.500
I Range             10 mA
Bandwidth           4
goto Ns'            0
nc cycles           0

mode	ox/red	error	control changes	Ns changes	counter inc.	Ns	time/s	control/mA	<Ewe>/V	I/mA	dQ/C	(Q-Qo)/C	half cycle	Q charge/discharge/mA.h	I Range	<Ece>/V	Energy charge/W.h	Energy discharge/W.h	Capacitance charge/µF	Capacitance discharge/µF	Q discharge/mA.h	Q charge/mA.h	Capacity/mA.h	Efficiency/%	cycle number	P/W	Ewe-Ece/V
1	1	0	0	0	0	0	681.939	10	1.17008	9.9958	0.0189722	0.0189722	0	0.00527005	11	-1.00648	6.1664e-06	0.000000000000000E+000	0.000000000000000E+000	0.000000000000000E+000	0.000000000000000E+000	0.00527005	0.00527005	0.0000000E+000	0.000000000000000E+000	0.0116959	2.17657
1	1	0	0	0	0	0	707.939	10	1.25293	9.99618	0.278866	0.278866	0	0.0774628	11	-1.06959	9.45925e-05	0.000000000000000E+000	3.36596e+06	0.000000000000000E+000	0.000000000000000E+000	0.0774628	0.0774628	0.0000000E+000	0.000000000000000E+000	0.0125245	2.32252
1	1	0	0	0	0	0	733.939	10	1.22605	9.99606	0.538758	0.538758	0	0.149655	11	-1.07141	0.000186975	0.000000000000000E+000	9.62641e+06	0.000000000000000E+000	0.000000000000000E+000	0.149655	0.149655	0.0000000E+000	0.000000000000000E+000	0.0122557	2.29746
1	1	0	0	0	0	0	759.939	10	1.27735	9.99574	0.79865	0.79865	0	0.221847	11	-1.07135	0.000277668	0.000000000000000E+000	7.44547e+06	0.000000000000000E+000	0.000000000000000E+000	0.221847	0.221847	0.0000000E+000	0.000000000000000E+000	0.0127681	2.3487
1	1	0	0	0	0	0	785.939	10	1.26611	9.99625	1.05854	1.05854	0	0.294039	11	-1.0721	0.00037016	0.000000000000000E+000	1.10238e+07	0.000000000000000E+000	0.000000000000000E+000	0.294039	0.294039	0.0000000E+000	0.000000000000000E+000	0.0126563	2.3382
1	1	0	0	0	0	0	811.939	10	1.30329	9.99555	1.31843	1.31843	0	0.366231	11	-1.07305	0.000463035	0.000000000000000E+000	9.89778e+06	0.000000000000000E+000	0.000000000000000E+000	0.366231	0.366231	0.0000000E+000	0.000000000000000E+000	0.0130271	2.37634
1	1	0	0	0	0	0	837.939	10	1.28888	9.99606	1.57832	1.57832	0	0.438423	11	-1.07523	0.000556394	0.000000000000000E+000	1.32859e+07	0.000000000000000E+000	0.000000000000000E+000	0.438423	0.438423	0.0000000E+000	0.000000000000000E+000	0.0128837	2.36411
1	1	0	0	0	0	0	863.939	10	1.326	9.99561	1.83821	1.83821	0	0.510615	11	-1.07767	0.000650867	0.000000000000000E+000	1.17894e+07	0.000000000000000E+000	0.000000000000000E+000	0.510615	0.510615	0.0000000E+000	0.000000000000000E+000	0.0132542	2.40368
1	1	0	0	0	0	0	889.939	10	1.30712	9.99523	2.0981	2.0981	0	0.582807	11	-1.07998	0.000744653	0.000000000000000E+000	1.53109e+07	0.000000000000000E+000	0.000000000000000E+000	0.582807	0.582807	0.0000000E+000	0.000000000000000E+000	0.0130649	2.3871
1	1	0	0	0	0	0	915.939	10	1.34137	9.99561	2.358	2.358	0	0.654999	11	-1.08253	0.000840347	0.000000000000000E+000	1.37663e+07	0.000000000000000E+000	0.000000000000000E+000	0.654999	0.654999	0.0000000E+000	0.000000000000000E+000	0.0134078	2.4239
1	1	0	0	0	0	0	941.939	10	1.31084	9.99612	2.61789	2.61789	0	0.727191	11	-1.08513	0.0009351	0.000000000000000E+000	1.85989e+07	0.000000000000000E+000	0.000000000000000E+000	0.727191	0.727191	0.0000000E+000	0.000000000000000E+000	0.0131033	2.39597
1	1	0	0	0	0	0	967.939	10	1.34606	9.99656	2.87778	2.87778	0	0.799383	11	-1.08776	0.00103117	0.000000000000000E+000	1.63528e+07	0.000000000000000E+000	0.000000000000000E+000	0.799383	0.799383	0.0000000E+000	0.000000000000000E+000	0.013456	2.43383
1	1	0	0	0	0	0	993.939	10	1.3169	9.99567	3.13767	3.13767	0	0.871575	11	-1.08997	0.0011266	0.000000000000000E+000	2.13711e+07	0.000000000000000E+000	0.000000000000000E+000	0.871575	0.871575	0.0000000E+000	0.000000000000000E+000	0.0131633	2.40688
1	1	0	0	0	0	0	1019.94	10	1.31893	9.99606	3.39756	3.39756	0	0.943767	11	-1.09236	0.00122208	0.000000000000000E+000	2.28256e+07	0.000000000000000E+000	0.000000000000000E+000	0.943767	0.943767	0.0000000E+000	0.000000000000000E+000	0.0131841	2.41129
1	1	0	0	0	0	0	1045.94	10	1.32044	9.99504	3.65745	3.65745	0	1.01596	11	-1.09456	0.00131783	0.000000000000000E+000	2.43249e+07	0.000000000000000E+000	0.000000000000000E+000	1.01596	1.01596	0.0000000E+000	0.000000000000000E+000	0.0131979	2.415
1	1	0	0	0	0	0	1071.94	10	1.32325	9.99586	3.91734	3.91734	0	1.08815	11	-1.09688	0.00141408	0.000000000000000E+000	2.55756e+07	0.000000000000000E+000	0.000000000000000E+000	1.08815	1.08815	0.0000000E+000	0.000000000000000E+000	0.013227	2.42013
1	1	0	0	0	0	0	1097.94	10	1.32801	9.9951	4.17723	4.17723	0	1.16034	11	-1.09886	0.00151062	0.000000000000000E+000	2.64499e+07	0.000000000000000E+000	0.000000000000000E+000	1.16034	1.16034	0.0000000E+000	0.000000000000000E+000	0.0132736	2.42688
1	1	0	0	0	0	0	1123.94	10	1.33546	9.99498	4.43712	4.43712	0	1.23253	11	-1.10087	0.0016068	0.000000000000000E+000	2.68306e+07	0.000000000000000E+000	0.000000000000000E+000	1.23253	1.23253	0.0000000E+000	0.000000000000000E+000	0.0133479	2.43633
1	1	0	0	0	0	0	1149.94	10	1.34196	9.99548	4.69701	4.69701	0	1.30473	11	-1.10206	0.00170389	0.000000000000000E+000	2.73285e+07	0.000000000000000E+000	0.000000000000000E+000	1.30473	1.30473	0.0000000E+000	0.000000000000000E+000	0.0134135	2.44402
1	1	0	0	0	0	0	1175.94	10	1.34697	9.99631	4.9569	4.9569	0	1.37692	11	-1.104	0.00180115	0.000000000000000E+000	2.80237e+07	0.000000000000000E+000	0.000000000000000E+000	1.37692	1.37692	0.0000000E+000	0.000000000000000E+000	0.0134647	2.45096
1	1	0	0	0	0	0	1201.94	10	1.35309	9.99555	5.21679	5.21679	0	1.44911	11	-1.10583	0.00189866	0.000000000000000E+000	2.85054e+07	0.000000000000000E+000	0.000000000000000E+000	1.44911	1.44911	0.0000000E+000	0.000000000000000E+000	0.0135249	2.45893
1	1	0	0	0	0	0	1227.94	10	1.35863	9.99593	5.47668	5.47668	0	1.5213	11	-1.10774	0.00199667	0.000000000000000E+000	2.90472e+07	0.000000000000000E+000	0.000000000000000E+000	1.5213	1.5213	0.0000000E+000	0.000000000000000E+000	0.0135807	2.46637
1	1	0	0	0	0	0	1253.94	10	1.35627	9.99593	5.73657	5.73657	0	1.59349	11	-1.10938	0.00209454	0.000000000000000E+000	3.08109e+07	0.000000000000000E+000	0.000000000000000E+000	1.59349	1.59349	0.0000000E+000	0.000000000000000E+000	0.0135572	2.46565
1	1	0	0	0	0	0	1279.94	10	1.36255	9.99536	5.99646	5.99646	0	1.66568	11	-1.10998	0.00219275	0.000000000000000E+000	3.11563e+07	0.000000000000000E+000	0.000000000000000E+000	1.66568	1.66568	0.0000000E+000	0.000000000000000E+000	0.0136191	2.47253
1	1	0	0	0	0	0	1305.94	10	1.37022	9.99516	6.25635	6.25635	0	1.73788	11	-1.11178	0.00229136	0.000000000000000E+000	3.12598e+07	0.000000000000000E+000	0.000000000000000E+000	1.73788	1.73788	0.0000000E+000	0.000000000000000E+000	0.0136956	2.482
1	1	0	0	0	0	0	1331.94	10	1.37498	9.99612	6.51624	6.51624	0	1.81007	11	-1.11327	0.00239033	0.000000000000000E+000	3.18019e+07	0.000000000000000E+000	0.000000000000000E+000	1.81007	1.81007	0.0000000E+000	0.000000000000000E+000	0.0137445	2.48825
1	1	0	0	0	0	0	1357.94	10	1.38361	9.99606	6.77614	6.77614	0	1.88226	11	-1.11493	0.00248992	0.000000000000000E+000	3.17349e+07	0.000000000000000E+000	0.000000000000000E+000	1.88226	1.88226	0.0000000E+000	0.000000000000000E+000	0.0138306	2.49854
1	1	0	0	0	0	0	1383.94	10	1.3826	9.99485	7.03602	7.03602	0	1.95445	11	-1.11671	0.00258955	0.000000000000000E+000	3.31078e+07	0.000000000000000E+000	0.000000000000000E+000	1.95445	1.95445	0.0000000E+000	0.000000000000000E+000	0.0138189	2.49931
1	1	0	0	0	0	0	1409.94	10	1.38479	9.99523	7.29591	7.29591	0	2.02664	11	-1.11827	0.00268962	0.000000000000000E+000	3.39804e+07	0.000000000000000E+000	0.000000000000000E+000	2.02664	2.02664	0.0000000E+000	0.000000000000000E+000	0.0138413	2.50306
1	1	0	0	0	0	0	1435.94	10	1.39542	9.99593	7.5558	7.5558	0	2.09883	11	-1.11998	0.00279027	0.000000000000000E+000	3.35318e+07	0.000000000000000E+000	0.000000000000000E+000	2.09883	2.09883	0.0000000E+000	0.000000000000000E+000	0.0139485	2.5154
1	1	0	0	0	0	0	1461.94	10	1.41067	9.9958	7.81569	7.81569	0	2.17103	11	-1.1214	0.00289128	0.000000000000000E+000	3.24865e+07	0.000000000000000E+000	0.000000000000000E+000	2.17103	2.17103	0.0000000E+000	0.000000000000000E+000	0.0141007	2.53206
1	1	0	0	0	0	0	1487.94	10	1.40341	9.99612	8.07558	8.07558	0	2.24322	11	-1.123	0.00299232	0.000000000000000E+000	3.46107e+07	0.000000000000000E+000	0.000000000000000E+000	2.24322	2.24322	0.0000000E+000	0.000000000000000E+000	0.0140287	2.52641
1	1	0	0	0	0	0	1513.94	10	1.40834	9.99536	8.33548	8.33548	0	2.31541	11	-1.12438	0.00309404	0.000000000000000E+000	3.49849e+07	0.000000000000000E+000	0.000000000000000E+000	2.31541	2.31541	0.0000000E+000	0.000000000000000E+000	0.0140769	2.53272
1	1	0	0	0	0	0	1539.94	10	1.40606	9.99516	8.59536	8.59536	0	2.3876	11	-1.12561	0.00319596	0.000000000000000E+000	3.64254e+07	0.000000000000000E+000	0.000000000000000E+000	2.3876	2.3876	0.0000000E+000	0.000000000000000E+000	0.0140538	2.53167
1	1	0	0	0	0	0	1565.94	10	1.41112	9.99529	8.85526	8.85526	0	2.45979	11	-1.12693	0.00329789	0.000000000000000E+000	3.67378e+07	0.000000000000000E+000	0.000000000000000E+000	2.45979	2.45979	0.0000000E+000	0.000000000000000E+000	0.0141046	2.53806
1	1	0	0	0	0	0	1591.94	10	1.42274	9.99567	9.11515	9.11515	0	2.53199	11	-1.12706	0.00340045	0.000000000000000E+000	3.60772e+07	0.000000000000000E+000	0.000000000000000E+000	2.53199	2.53199	0.0000000E+000	0.000000000000000E+000	0.0142212	2.5498
1	1	0	0	0	0	0	1617.94	10	1.42635	9.99612	9.37504	9.37504	0	2.60418	11	-1.1286	0.00350319	0.000000000000000E+000	3.65837e+07	0.000000000000000E+000	0.000000000000000E+000	2.60418	2.60418	0.0000000E+000	0.000000000000000E+000	0.0142579	2.55495
1	1	0	0	0	0	0	1643.94	10	1.42867	9.99612	9.63493	9.63493	0	2.67637	11	-1.13009	0.00360621	0.000000000000000E+000	3.72603e+07	0.000000000000000E+000	0.000000000000000E+000	2.67637	2.67637	0.0000000E+000	0.000000000000000E+000	0.0142811	2.55876
1	1	0	0	0	0	0	1669.94	10	1.43812	9.99561	9.89482	9.89482	0	2.74856	11	-1.13133	0.00370971	0.000000000000000E+000	3.69155e+07	0.000000000000000E+000	0.000000000000000E+000	2.74856	2.74856	0.0000000E+000	0.000000000000000E+000	0.0143749	2.56946
1	1	0	0	0	0	0	1695.94	10	1.44586	9.99536	10.1547	10.1547	0	2.82075	11	-1.13239	0.00381361	0.000000000000000E+000	3.68226e+07	0.000000000000000E+000	0.000000000000000E+000	2.82075	2.82075	0.0000000E+000	0.000000000000000E+000	0.0144519	2.57824
1	1	0	0	0	0	0	1721.94	10	1.45109	9.99612	10.4146	10.4146	0	2.89294	11	-1.13334	0.00391804	0.000000000000000E+000	3.70612e+07	0.000000000000000E+000	0.000000000000000E+000	2.89294	2.89294	0.0000000E+000	0.000000000000000E+000	0.0145053	2.58443
1	1	0	0	0	0	0	1747.94	10	1.45881	9.99555	10.6745	10.6745	0	2.96513	11	-1.13298	0.00402288	0.000000000000000E+000	3.69703e+07	0.000000000000000E+000	0.000000000000000E+000	2.96513	2.96513	0.0000000E+000	0.000000000000000E+000	0.0145817	2.5918
1	1	0	0	0	0	0	1773.94	10	1.45383	9.9958	10.9344	10.9344	0	3.03733	11	-1.13436	0.00412799	0.000000000000000E+000	3.85363e+07	0.000000000000000E+000	0.000000000000000E+000	3.03733	3.03733	0.0000000E+000	0.000000000000000E+000	0.0145322	2.58818
1	1	0	0	0	0	0	1799.94	10	1.46329	9.99644	11.1943	11.1943	0	3.10952	11	-1.13569	0.00423338	0.000000000000000E+000	3.81785e+07	0.000000000000000E+000	0.000000000000000E+000	3.10952	3.10952	0.0000000E+000	0.000000000000000E+000	0.0146277	2.59898
1	1	0	0	0	0	0	1825.94	10	1.46136	9.9951	11.4542	11.4542	0	3.18171	11	-1.13684	0.00433891	0.000000000000000E+000	3.93243e+07	0.000000000000000E+000	0.000000000000000E+000	3.18171	3.18171	0.0000000E+000	0.000000000000000E+000	0.0146064	2.59819
1	1	0	0	0	0	0	1851.94	10	1.46587	9.99599	11.714	11.714	0	3.2539	11	-1.13797	0.00444513	0.000000000000000E+000	3.96036e+07	0.000000000000000E+000	0.000000000000000E+000	3.2539	3.2539	0.0000000E+000	0.000000000000000E+000	0.0146528	2.60384
1	1	0	0	0	0	0	1877.94	10	1.47899	9.99593	11.9739	11.9739	0	3.32609	11	-1.13934	0.00455177	0.000000000000000E+000	3.87626e+07	0.000000000000000E+000	0.000000000000000E+000	3.32609	3.32609	0.0000000E+000	0.000000000000000E+000	0.0147839	2.61833
1	1	0	0	0	0	0	1903.94	10	1.4781	9.99618	12.2338	12.2338	0	3.39829	11	-1.14029	0.00465846	0.000000000000000E+000	3.9718e+07	0.000000000000000E+000	0.000000000000000E+000	3.39829	3.39829	0.0000000E+000	0.000000000000000E+000	0.0147754	2.61839
1	1	0	0	0	0	0	1929.94	10	1.48104	9.99625	12.4937	12.4937	0	3.47048	11	-1.1416	0.00476558	0.000000000000000E+000	4.01783e+07	0.000000000000000E+000	0.000000000000000E+000	3.47048	3.47048	0.0000000E+000	0.000000000000000E+000	0.0148048	2.62264
1	1	0	0	0	0	0	1955.94	10	1.48807	9.99567	12.7536	12.7536	0	3.54267	11	-1.14221	0.004873	0.000000000000000E+000	4.01078e+07	0.000000000000000E+000	0.000000000000000E+000	3.54267	3.54267	0.0000000E+000	0.000000000000000E+000	0.0148742	2.63027
1	1	0	0	0	0	0	1981.94	10	1.49135	9.99529	13.0135	13.0135	0	3.61486	11	-1.14205	0.00498076	0.000000000000000E+000	4.05075e+07	0.000000000000000E+000	0.000000000000000E+000	3.61486	3.61486	0.0000000E+000	0.000000000000000E+000	0.0149064	2.6334
1	1	0	0	0	0	0	2007.94	10	1.4922	9.99536	13.2734	13.2734	0	3.68705	11	-1.14325	0.00508885	0.000000000000000E+000	4.12064e+07	0.000000000000000E+000	0.000000000000000E+000	3.68705	3.68705	0.0000000E+000	0.000000000000000E+000	0.0149151	2.63545
1	1	0	0	0	0	0	2033.94	10	1.50023	9.99586	13.5333	13.5333	0	3.75924	11	-1.14423	0.00519703	0.000000000000000E+000	4.0992e+07	0.000000000000000E+000	0.000000000000000E+000	3.75924	3.75924	0.0000000E+000	0.000000000000000E+000	0.0149961	2.64446
1	1	0	0	0	0	0	2059.94	10	1.50743	9.99529	13.7932	13.7932	0	3.83144	11	-1.14543	0.00530557	0.000000000000000E+000	4.08875e+07	0.000000000000000E+000	0.000000000000000E+000	3.83144	3.83144	0.0000000E+000	0.000000000000000E+000	0.0150672	2.65286
1	1	0	0	0	0	0	2085.94	10	1.50883	9.99555	14.0531	14.0531	0	3.90363	11	-1.14625	0.00541461	0.000000000000000E+000	4.14859e+07	0.000000000000000E+000	0.000000000000000E+000	3.90363	3.90363	0.0000000E+000	0.000000000000000E+000	0.0150815	2.65507
1	1	0	0	0	0	0	2111.94	10	1.50928	9.99631	14.3129	14.3129	0	3.97582	11	-1.14704	0.00552373	0.000000000000000E+000	4.21962e+07	0.000000000000000E+000	0.000000000000000E+000	3.97582	3.97582	0.0000000E+000	0.000000000000000E+000	0.0150873	2.65633
1	1	0	0	0	0	0	2137.94	10	1.51025	9.99574	14.5728	14.5728	0	4.04801	11	-1.14637	0.0056329	0.000000000000000E+000	4.28409e+07	0.000000000000000E+000	0.000000000000000E+000	4.04801	4.04801	0.0000000E+000	0.000000000000000E+000	0.015096	2.65661
1	1	0	0	0	0	0	2163.94	10	1.51464	9.99625	14.8327	14.8327	0	4.1202	11	-1.14723	0.00574214	0.000000000000000E+000	4.30488e+07	0.000000000000000E+000	0.000000000000000E+000	4.1202	4.1202	0.0000000E+000	0.000000000000000E+000	0.0151407	2.66187
1	1	0	0	0	0	0	2189.94	10	1.52654	9.99529	15.0926	15.0926	0	4.19239	11	-1.1482	0.00585214	0.000000000000000E+000	4.23411e+07	0.000000000000000E+000	0.000000000000000E+000	4.19239	4.19239	0.0000000E+000	0.000000000000000E+000	0.0152582	2.67473
1	1	0	0	0	0	0	2215.94	10	1.52345	9.99618	15.3525	15.3525	0	4.26459	11	-1.14937	0.0059622	0.000000000000000E+000	4.3446e+07	0.000000000000000E+000	0.000000000000000E+000	4.26459	4.26459	0.0000000E+000	0.000000000000000E+000	0.0152287	2.67283
1	1	0	0	0	0	0	2241.94	10	1.53616	9.99625	15.6124	15.6124	0	4.33678	11	-1.14995	0.00607276	0.000000000000000E+000	4.26479e+07	0.000000000000000E+000	0.000000000000000E+000	4.33678	4.33678	0.0000000E+000	0.000000000000000E+000	0.0153558	2.68611
1	1	0	0	0	0	0	2267.94	10	1.53371	9.99593	15.8723	15.8723	0	4.40897	11	-1.15106	0.00618333	0.000000000000000E+000	4.36497e+07	0.000000000000000E+000	0.000000000000000E+000	4.40897	4.40897	0.0000000E+000	0.000000000000000E+000	0.0153309	2.68477
1	1	0	0	0	0	0	2293.94	10	1.54837	9.99631	16.1322	16.1322	0	4.48116	11	-1.15218	0.00629444	0.000000000000000E+000	4.26453e+07	0.000000000000000E+000	0.000000000000000E+000	4.48116	4.48116	0.0000000E+000	0.000000000000000E+000	0.015478	2.70055
1	1	0	0	0	0	0	2319.94	10	1.53969	9.99504	16.3921	16.3921	0	4.55335	11	-1.15299	0.00640568	0.000000000000000E+000	4.43504e+07	0.000000000000000E+000	0.000000000000000E+000	4.55335	4.55335	0.0000000E+000	0.000000000000000E+000	0.0153892	2.69268
1	1	0	0	0	0	0	2345.94	10	1.54364	9.99555	16.652	16.652	0	4.62554	11	-1.15376	0.00651695	0.000000000000000E+000	4.45766e+07	0.000000000000000E+000	0.000000000000000E+000	4.62554	4.62554	0.0000000E+000	0.000000000000000E+000	0.0154295	2.6974
1	1	0	0	0	0	0	2371.94	10	1.54705	9.99612	16.9119	16.9119	0	4.69774	11	-1.15338	0.00662891	0.000000000000000E+000	4.48636e+07	0.000000000000000E+000	0.000000000000000E+000	4.69774	4.69774	0.0000000E+000	0.000000000000000E+000	0.0154644	2.70043
1	1	0	0	0	0	0	2397.94	10	1.55947	9.99574	17.1717	17.1717	0	4.76993	11	-1.15394	0.00674118	0.000000000000000E+000	4.41e+07	0.000000000000000E+000	0.000000000000000E+000	4.76993	4.76993	0.0000000E+000	0.000000000000000E+000	0.015588	2.71341
1	1	0	0	0	0	0	2423.94	10	1.55619	9.99555	17.4316	17.4316	0	4.84212	11	-1.15495	0.00685342	0.000000000000000E+000	4.5147e+07	0.000000000000000E+000	0.000000000000000E+000	4.84212	4.84212	0.0000000E+000	0.000000000000000E+000	0.015555	2.71114
1	1	0	0	0	0	0	2449.94	10	1.56625	9.99574	17.6915	17.6915	0	4.91431	11	-1.15553	0.00696602	0.000000000000000E+000	4.4657e+07	0.000000000000000E+000	0.000000000000000E+000	4.91431	4.91431	0.0000000E+000	0.000000000000000E+000	0.0156558	2.72178
1	1	0	0	0	0	0	2475.94	10	1.56234	9.99555	17.9514	17.9514	0	4.9865	11	-1.15629	0.00707896	0.000000000000000E+000	4.57644e+07	0.000000000000000E+000	0.000000000000000E+000	4.9865	4.9865	0.0000000E+000	0.000000000000000E+000	0.0156165	2.71863
1	1	0	0	0	0	0	2501.94	10	1.56307	9.9958	18.2113	18.2113	0	5.0587	11	-1.15548	0.00719185	0.000000000000000E+000	4.63406e+07	0.000000000000000E+000	0.000000000000000E+000	5.0587	5.0587	0.0000000E+000	0.000000000000000E+000	0.0156242	2.71855
1	1	0	0	0	0	0	2527.94	10	1.57606	9.99593	18.4712	18.4712	0	5.13089	11	-1.15584	0.00730553	0.000000000000000E+000	4.54983e+07	0.000000000000000E+000	0.000000000000000E+000	5.13089	5.13089	0.0000000E+000	0.000000000000000E+000	0.0157542	2.7319
1	1	0	0	0	0	0	2553.94	10	1.57693	9.99555	18.7311	18.7311	0	5.20308	11	-1.15658	0.00741918	0.000000000000000E+000	4.60393e+07	0.000000000000000E+000	0.000000000000000E+000	5.20308	5.20308	0.0000000E+000	0.000000000000000E+000	0.0157623	2.73351
1	1	0	0	0	0	0	2579.94	10	1.58538	9.99574	18.991	18.991	0	5.27527	11	-1.15717	0.00753348	0.000000000000000E+000	4.57289e+07	0.000000000000000E+000	0.000000000000000E+000	5.27527	5.27527	0.0000000E+000	0.000000000000000E+000	0.015847	2.74255
1	1	0	0	0	0	0	2605.94	10	1.5849	9.99593	19.2509	19.2509	0	5.34746	11	-1.15805	0.00764768	0.000000000000000E+000	4.64078e+07	0.000000000000000E+000	0.000000000000000E+000	5.34746	5.34746	0.0000000E+000	0.000000000000000E+000	0.0158426	2.74295
1	1	0	0	0	0	0	2631.94	10	1.59213	9.99694	19.5108	19.5108	0	5.41966	11	-1.15895	0.00776228	0.000000000000000E+000	4.62287e+07	0.000000000000000E+000	0.000000000000000E+000	5.41966	5.41966	0.0000000E+000	0.000000000000000E+000	0.0159165	2.75108
1	1	0	0	0	0	0	2657.94	10	1.5884	9.99612	19.7707	19.7707	0	5.49185	11	-1.15959	0.0078774	0.000000000000000E+000	4.72624e+07	0.000000000000000E+000	0.000000000000000E+000	5.49185	5.49185	0.0000000E+000	0.000000000000000E+000	0.0158778	2.74799
1	1	0	0	0	0	0	2683.94	10	1.60284	9.99561	20.0305	20.0305	0	5.56404	11	-1.16038	0.00799259	0.000000000000000E+000	4.62864e+07	0.000000000000000E+000	0.000000000000000E+000	5.56404	5.56404	0.0000000E+000	0.000000000000000E+000	0.0160213	2.76321
1	1	0	0	0	0	0	2709.94	10	1.59651	9.99599	20.2904	20.2904	0	5.63623	11	-1.1591	0.00810768	0.000000000000000E+000	4.75827e+07	0.000000000000000E+000	0.000000000000000E+000	5.63623	5.63623	0.0000000E+000	0.000000000000000E+000	0.0159587	2.75561
1	1	0	0	0	0	0	2735.94	10	1.60564	9.9958	20.5503	20.5503	0	5.70842	11	-1.16014	0.00822293	0.000000000000000E+000	4.71817e+07	0.000000000000000E+000	0.000000000000000E+000	5.70842	5.70842	0.0000000E+000	0.000000000000000E+000	0.0160497	2.76578
1	1	0	0	0	0	0	2761.94	10	1.60479	9.99542	20.8102	20.8102	0	5.78062	11	-1.16089	0.0083389	0.000000000000000E+000	4.7872e+07	0.000000000000000E+000	0.000000000000000E+000	5.78062	5.78062	0.0000000E+000	0.000000000000000E+000	0.0160405	2.76568
1	1	0	0	0	0	0	2787.94	10	1.60994	9.99625	21.0701	21.0701	0	5.85281	11	-1.16175	0.00845479	0.000000000000000E+000	4.79026e+07	0.000000000000000E+000	0.000000000000000E+000	5.85281	5.85281	0.0000000E+000	0.000000000000000E+000	0.0160933	2.77169
1	1	0	0	0	0	0	2813.94	10	1.61068	9.99593	21.33	21.33	0	5.925	11	-1.16202	0.00857136	0.000000000000000E+000	4.84113e+07	0.000000000000000E+000	0.000000000000000E+000	5.925	5.925	0.0000000E+000	0.000000000000000E+000	0.0161003	2.77271
1	1	0	0	0	0	0	2839.94	10	1.60648	9.99536	21.5899	21.5899	0	5.99719	11	-1.16276	0.00868771	0.000000000000000E+000	4.94733e+07	0.000000000000000E+000	0.000000000000000E+000	5.99719	5.99719	0.0000000E+000	0.000000000000000E+000	0.0160573	2.76923
1	1	0	0	0	0	0	2865.94	10	1.62115	9.99637	21.8498	21.8498	0	6.06938	11	-1.16362	0.00880475	0.000000000000000E+000	4.84403e+07	0.000000000000000E+000	0.000000000000000E+000	6.06938	6.06938	0.0000000E+000	0.000000000000000E+000	0.0162056	2.78476
1	1	0	0	0	0	0	2891.94	10	1.61936	9.99498	22.1097	22.1097	0	6.14157	11	-1.16151	0.00892154	0.000000000000000E+000	4.92122e+07	0.000000000000000E+000	0.000000000000000E+000	6.14157	6.14157	0.0000000E+000	0.000000000000000E+000	0.0161854	2.78087
1	1	0	0	0	0	0	2917.94	10	1.62822	9.99561	22.3696	22.3696	0	6.21377	11	-1.16283	0.00903863	0.000000000000000E+000	4.88276e+07	0.000000000000000E+000	0.000000000000000E+000	6.21377	6.21377	0.0000000E+000	0.000000000000000E+000	0.016275	2.79105
1	1	0	0	0	0	0	2943.94	10	1.61981	9.99631	22.6294	22.6294	0	6.28596	11	-1.16335	0.0091557	0.000000000000000E+000	5.03182e+07	0.000000000000000E+000	0.000000000000000E+000	6.28596	6.28596	0.0000000E+000	0.000000000000000E+000	0.0161921	2.78316
1	1	0	0	0	0	0	2969.94	10	1.62376	9.9958	22.8893	22.8893	0	6.35815	11	-1.16389	0.00927295	0.000000000000000E+000	5.04534e+07	0.000000000000000E+000	0.000000000000000E+000	6.35815	6.35815	0.0000000E+000	0.000000000000000E+000	0.0162307	2.78765
1	1	0	0	0	0	0	2995.94	10	1.63386	9.99612	23.1492	23.1492	0	6.43034	11	-1.16446	0.00939064	0.000000000000000E+000	4.99146e+07	0.000000000000000E+000	0.000000000000000E+000	6.43034	6.43034	0.0000000E+000	0.000000000000000E+000	0.0163323	2.79832
1	1	0	0	0	0	0	3021.94	10	1.63301	9.9958	23.4091	23.4091	0	6.50253	11	-1.16508	0.00950827	0.000000000000000E+000	5.05679e+07	0.000000000000000E+000	0.000000000000000E+000	6.50253	6.50253	0.0000000E+000	0.000000000000000E+000	0.0163232	2.79809
1	1	0	0	0	0	0	3047.94	10	1.64289	9.9958	23.669	23.669	0	6.57472	11	-1.1656	0.0096261	0.000000000000000E+000	5.00601e+07	0.000000000000000E+000	0.000000000000000E+000	6.57472	6.57472	0.0000000E+000	0.000000000000000E+000	0.0164221	2.8085
1	1	0	0	0	0	0	3073.94	10	1.63422	9.99561	23.9289	23.9289	0	6.64692	11	-1.16446	0.00974479	0.000000000000000E+000	5.15559e+07	0.000000000000000E+000	0.000000000000000E+000	6.64692	6.64692	0.0000000E+000	0.000000000000000E+000	0.016335	2.79868
1	1	0	0	0	0	0	3099.94	10	1.63678	9.99536	24.1888	24.1888	0	6.71911	11	-1.16529	0.0098632	0.000000000000000E+000	5.18297e+07	0.000000000000000E+000	0.000000000000000E+000	6.71911	6.71911	0.0000000E+000	0.000000000000000E+000	0.0163602	2.80207
1	1	0	0	0	0	0	3125.94	10	1.65274	9.99586	24.4487	24.4487	0	6.7913	11	-1.16613	0.0099819	0.000000000000000E+000	5.06544e+07	0.000000000000000E+000	0.000000000000000E+000	6.7913	6.7913	0.0000000E+000	0.000000000000000E+000	0.0165206	2.81887
1	1	0	0	0	0	0	3151.94	10	1.64443	9.99574	24.7086	24.7086	0	6.86349	11	-1.16655	0.0101003	0.000000000000000E+000	5.20901e+07	0.000000000000000E+000	0.000000000000000E+000	6.86349	6.86349	0.0000000E+000	0.000000000000000E+000	0.0164372	2.81097
1	1	0	0	0	0	0	3177.94	10	1.63301	9.99663	24.9685	24.9685	0	6.93568	11	-1.16721	0.0102185	0.000000000000000E+000	5.39362e+07	0.000000000000000E+000	0.000000000000000E+000	6.93568	6.93568	0.0000000E+000	0.000000000000000E+000	0.0163246	2.80022
1	1	0	0	0	0	0	3203.94	10	1.65864	9.99631	25.2283	25.2283	0	7.00787	11	-1.16783	0.0103377	0.000000000000000E+000	5.16384e+07	0.000000000000000E+000	0.000000000000000E+000	7.00787	7.00787	0.0000000E+000	0.000000000000000E+000	0.0165803	2.82647
1	1	0	0	0	0	0	3229.94	10	1.65226	9.99625	25.4882	25.4882	0	7.08006	11	-1.16844	0.0104572	0.000000000000000E+000	5.28607e+07	0.000000000000000E+000	0.000000000000000E+000	7.08006	7.08006	0.0000000E+000	0.000000000000000E+000	0.0165164	2.8207
1	1	0	0	0	0	0	3255.94	10	1.65658	9.99536	25.7481	25.7481	0	7.15226	11	-1.16895	0.0105766	0.000000000000000E+000	5.29255e+07	0.000000000000000E+000	0.000000000000000E+000	7.15226	7.15226	0.0000000E+000	0.000000000000000E+000	0.0165581	2.82553
1	1	0	0	0	0	0	3281.94	10	1.65184	9.9951	26.008	26.008	0	7.22445	11	-1.16731	0.0106957	0.000000000000000E+000	5.39854e+07	0.000000000000000E+000	0.000000000000000E+000	7.22445	7.22445	0.0000000E+000	0.000000000000000E+000	0.0165103	2.81915
1	1	0	0	0	0	0	3307.94	10	1.65913	9.99606	26.2679	26.2679	0	7.29664	11	-1.16806	0.0108157	0.000000000000000E+000	5.37127e+07	0.000000000000000E+000	0.000000000000000E+000	7.29664	7.29664	0.0000000E+000	0.000000000000000E+000	0.0165847	2.82719
1	1	0	0	0	0	0	3333.94	10	1.66794	9.99574	26.5278	26.5278	0	7.36883	11	-1.16871	0.0109354	0.000000000000000E+000	5.32836e+07	0.000000000000000E+000	0.000000000000000E+000	7.36883	7.36883	0.0000000E+000	0.000000000000000E+000	0.0166723	2.83665
1	1	0	0	0	0	0	3359.94	10	1.65817	9.99574	26.7877	26.7877	0	7.44102	11	-1.16921	0.0110558	0.000000000000000E+000	5.4883e+07	0.000000000000000E+000	0.000000000000000E+000	7.44102	7.44102	0.0000000E+000	0.000000000000000E+000	0.0165746	2.82738
1	1	0	0	0	0	0	3385.94	10	1.66267	9.99536	27.0476	27.0476	0	7.51322	11	-1.16996	0.011176	0.000000000000000E+000	5.49094e+07	0.000000000000000E+000	0.000000000000000E+000	7.51322	7.51322	0.0000000E+000	0.000000000000000E+000	0.016619	2.83263
1	1	0	0	0	0	0	3411.94	10	1.68183	9.99618	27.3075	27.3075	0	7.58541	11	-1.17049	0.0112969	0.000000000000000E+000	5.33617e+07	0.000000000000000E+000	0.000000000000000E+000	7.58541	7.58541	0.0000000E+000	0.000000000000000E+000	0.0168118	2.85231
1	1	0	0	0	0	0	3437.94	10	1.67502	9.99561	27.5674	27.5674	0	7.6576	11	-1.16871	0.0114178	0.000000000000000E+000	5.45953e+07	0.000000000000000E+000	0.000000000000000E+000	7.6576	7.6576	0.0000000E+000	0.000000000000000E+000	0.0167429	2.84373
1	1	0	0	0	0	0	3463.94	10	1.67009	9.99555	27.8272	27.8272	0	7.72979	11	-1.16994	0.0115391	0.000000000000000E+000	5.56538e+07	0.000000000000000E+000	0.000000000000000E+000	7.72979	7.72979	0.0000000E+000	0.000000000000000E+000	0.0166935	2.84003
1	1	0	0	0	0	0	3489.94	10	1.67512	9.99606	28.0871	28.0871	0	7.80198	11	-1.17065	0.0116599	0.000000000000000E+000	5.56136e+07	0.000000000000000E+000	0.000000000000000E+000	7.80198	7.80198	0.0000000E+000	0.000000000000000E+000	0.0167446	2.84578
1	1	0	0	0	0	0	3515.94	10	1.68927	9.99574	28.347	28.347	0	7.87417	11	-1.17119	0.0117817	0.000000000000000E+000	5.45991e+07	0.000000000000000E+000	0.000000000000000E+000	7.87417	7.87417	0.0000000E+000	0.000000000000000E+000	0.0168855	2.86046
1	1	0	0	0	0	0	3541.94	10	1.68118	9.99567	28.6069	28.6069	0	7.94637	11	-1.17197	0.011903	0.000000000000000E+000	5.59721e+07	0.000000000000000E+000	0.000000000000000E+000	7.94637	7.94637	0.0000000E+000	0.000000000000000E+000	0.0168045	2.85315
1	1	0	0	0	0	0	3567.94	10	1.69578	9.99593	28.8668	28.8668	0	8.01856	11	-1.17256	0.0120254	0.000000000000000E+000	5.49118e+07	0.000000000000000E+000	0.000000000000000E+000	8.01856	8.01856	0.0000000E+000	0.000000000000000E+000	0.0169509	2.86834
1	1	0	0	0	0	0	3593.94	10	1.68876	9.99523	29.1267	29.1267	0	8.09075	11	-1.17329	0.012147	0.000000000000000E+000	5.61553e+07	0.000000000000000E+000	0.000000000000000E+000	8.09075	8.09075	0.0000000E+000	0.000000000000000E+000	0.0168796	2.86206
1	1	0	0	0	0	0	3619.94	10	1.70107	9.99574	29.3866	29.3866	0	8.16294	11	-1.17397	0.0122697	0.000000000000000E+000	5.53432e+07	0.000000000000000E+000	0.000000000000000E+000	8.16294	8.16294	0.0000000E+000	0.000000000000000E+000	0.0170035	2.87504
1	1	0	0	0	0	0	3645.94	10	1.69419	9.99548	29.6465	29.6465	0	8.23513	11	-1.17219	0.012392	0.000000000000000E+000	5.65661e+07	0.000000000000000E+000	0.000000000000000E+000	8.23513	8.23513	0.0000000E+000	0.000000000000000E+000	0.0169342	2.86638
1	1	0	0	0	0	0	3671.94	10	1.70309	9.99574	29.9064	29.9064	0	8.30732	11	-1.17276	0.0125143	0.000000000000000E+000	5.6109e+07	0.000000000000000E+000	0.000000000000000E+000	8.30732	8.30732	0.0000000E+000	0.000000000000000E+000	0.0170236	2.87585
1	1	0	0	0	0	0	3697.94	10	1.67137	9.99542	30.1663	30.1663	0	8.37952	11	-1.17362	0.0126371	0.000000000000000E+000	6.01777e+07	0.000000000000000E+000	0.000000000000000E+000	8.37952	8.37952	0.0000000E+000	0.000000000000000E+000	0.016706	2.84499
1	1	0	0	0	0	0	3723.94	10	1.69288	9.99542	30.4261	30.4261	0	8.45171	11	-1.17406	0.0127591	0.000000000000000E+000	5.81993e+07	0.000000000000000E+000	0.000000000000000E+000	8.45171	8.45171	0.0000000E+000	0.000000000000000E+000	0.016921	2.86694
1	1	0	0	0	0	0	3749.94	10	1.68956	9.99606	30.686	30.686	0	8.5239	11	-1.17454	0.0128813	0.000000000000000E+000	5.90715e+07	0.000000000000000E+000	0.000000000000000E+000	8.5239	8.5239	0.0000000E+000	0.000000000000000E+000	0.0168889	2.8641
1	1	0	0	0	0	0	3775.94	10	1.69631	9.99548	30.9459	30.9459	0	8.59609	11	-1.17544	0.0130037	0.000000000000000E+000	5.88069e+07	0.000000000000000E+000	0.000000000000000E+000	8.59609	8.59609	0.0000000E+000	0.000000000000000E+000	0.0169555	2.87176
1	1	0	0	0	0	0	3801.94	10	1.69778	9.99542	31.2058	31.2058	0	8.66828	11	-1.17617	0.0131264	0.000000000000000E+000	5.91362e+07	0.000000000000000E+000	0.000000000000000E+000	8.66828	8.66828	0.0000000E+000	0.000000000000000E+000	0.01697	2.87395
1	1	0	0	0	0	0	3827.94	10	1.69982	9.99516	31.4657	31.4657	0	8.74047	11	-1.17474	0.0132495	0.000000000000000E+000	5.93984e+07	0.000000000000000E+000	0.000000000000000E+000	8.74047	8.74047	0.0000000E+000	0.000000000000000E+000	0.01699	2.87457
1	1	0	0	0	0	0	3853.94	10	1.7147	9.99523	31.7256	31.7256	0	8.81266	11	-1.17558	0.0133732	0.000000000000000E+000	5.82528e+07	0.000000000000000E+000	0.000000000000000E+000	8.81266	8.81266	0.0000000E+000	0.000000000000000E+000	0.0171388	2.89028
1	1	0	0	0	0	0	3879.94	10	1.71241	9.99631	31.9855	31.9855	0	8.88486	11	-1.17607	0.0134966	0.000000000000000E+000	5.89783e+07	0.000000000000000E+000	0.000000000000000E+000	8.88486	8.88486	0.0000000E+000	0.000000000000000E+000	0.0171178	2.88848
1	1	0	0	0	0	0	3905.94	10	1.71869	9.99637	32.2454	32.2454	0	8.95705	11	-1.17651	0.0136203	0.000000000000000E+000	5.87768e+07	0.000000000000000E+000	0.000000000000000E+000	8.95705	8.95705	0.0000000E+000	0.000000000000000E+000	0.0171807	2.8952
1	1	0	0	0	0	0	3931.94	10	1.70652	9.99498	32.5053	32.5053	0	9.02924	11	-1.17697	0.0137444	0.000000000000000E+000	6.05944e+07	0.000000000000000E+000	0.000000000000000E+000	9.02924	9.02924	0.0000000E+000	0.000000000000000E+000	0.0170567	2.8835
1	1	0	0	0	0	0	3957.94	10	1.71289	9.99542	32.7652	32.7652	0	9.10143	11	-1.17753	0.0138682	0.000000000000000E+000	6.03623e+07	0.000000000000000E+000	0.000000000000000E+000	9.10143	9.10143	0.0000000E+000	0.000000000000000E+000	0.0171211	2.89042
1	1	0	0	0	0	0	3983.94	10	1.73235	9.99599	33.025	33.025	0	9.17362	11	-1.17745	0.0139929	0.000000000000000E+000	5.87354e+07	0.000000000000000E+000	0.000000000000000E+000	9.17362	9.17362	0.0000000E+000	0.000000000000000E+000	0.0173166	2.9098
1	1	0	0	0	0	0	4009.94	10	1.71184	9.99586	33.2849	33.2849	0	9.24581	11	-1.17627	0.0141169	0.000000000000000E+000	6.14391e+07	0.000000000000000E+000	0.000000000000000E+000	9.24581	9.24581	0.0000000E+000	0.000000000000000E+000	0.0171113	2.8881
1	1	0	0	0	0	0	4035.94	10	1.73003	9.9951	33.5448	33.5448	0	9.31801	11	-1.17712	0.0142414	0.000000000000000E+000	5.99071e+07	0.000000000000000E+000	0.000000000000000E+000	9.31801	9.31801	0.0000000E+000	0.000000000000000E+000	0.0172918	2.90715
1	1	0	0	0	0	0	4061.94	10	1.71521	9.99618	33.8047	33.8047	0	9.3902	11	-1.17724	0.0143656	0.000000000000000E+000	6.20124e+07	0.000000000000000E+000	0.000000000000000E+000	9.3902	9.3902	0.0000000E+000	0.000000000000000E+000	0.0171456	2.89245
1	1	0	0	0	0	0	4087.94	10	1.717	9.99593	34.0646	34.0646	0	9.46239	11	-1.17777	0.0144895	0.000000000000000E+000	6.22854e+07	0.000000000000000E+000	0.000000000000000E+000	9.46239	9.46239	0.0000000E+000	0.000000000000000E+000	0.017163	2.89476
1	1	0	0	0	0	0	4113.94	10	1.72149	9.99625	34.3245	34.3245	0	9.53458	11	-1.17819	0.0146136	0.000000000000000E+000	6.22491e+07	0.000000000000000E+000	0.000000000000000E+000	9.53458	9.53458	0.0000000E+000	0.000000000000000E+000	0.0172084	2.89968
1	1	0	0	0	0	0	4139.94	10	1.72472	9.99529	34.5844	34.5844	0	9.60677	11	-1.17928	0.0147382	0.000000000000000E+000	6.2355e+07	0.000000000000000E+000	0.000000000000000E+000	9.60677	9.60677	0.0000000E+000	0.000000000000000E+000	0.0172391	2.904
1	1	0	0	0	0	0	4165.94	10	1.72251	9.99567	34.8443	34.8443	0	9.67896	11	-1.17964	0.0148626	0.000000000000000E+000	6.30751e+07	0.000000000000000E+000	0.000000000000000E+000	9.67896	9.67896	0.0000000E+000	0.000000000000000E+000	0.0172176	2.90214
1	1	0	0	0	0	0	4191.94	10	1.72339	9.99574	35.1041	35.1041	0	9.75115	11	-1.17791	0.0149869	0.000000000000000E+000	6.34438e+07	0.000000000000000E+000	0.000000000000000E+000	9.75115	9.75115	0.0000000E+000	0.000000000000000E+000	0.0172266	2.9013
1	1	0	0	0	0	0	4217.94	10	1.7267	9.99586	35.364	35.364	0	9.82334	11	-1.17891	0.0151114	0.000000000000000E+000	6.3534e+07	0.000000000000000E+000	0.000000000000000E+000	9.82334	9.82334	0.0000000E+000	0.000000000000000E+000	0.0172599	2.90561
1	1	0	0	0	0	0	4243.94	10	1.73018	9.99599	35.6239	35.6239	0	9.89554	11	-1.17936	0.0152362	0.000000000000000E+000	6.36031e+07	0.000000000000000E+000	0.000000000000000E+000	9.89554	9.89554	0.0000000E+000	0.000000000000000E+000	0.0172949	2.90954
1	1	0	0	0	0	0	4269.94	10	1.73002	9.99644	35.8838	35.8838	0	9.96773	11	-1.17975	0.0153612	0.000000000000000E+000	6.40854e+07	0.000000000000000E+000	0.000000000000000E+000	9.96773	9.96773	0.0000000E+000	0.000000000000000E+000	0.017294	2.90977
1	1	0	0	0	0	0	4295.94	10	1.73437	9.99567	36.1437	36.1437	0	10.0399	11	-1.18022	0.0154862	0.000000000000000E+000	6.40516e+07	0.000000000000000E+000	0.000000000000000E+000	10.0399	10.0399	0.0000000E+000	0.000000000000000E+000	0.0173362	2.91459
1	1	0	0	0	0	0	4321.94	10	1.73573	9.99586	36.4036	36.4036	0	10.1121	11	-1.18083	0.0156115	0.000000000000000E+000	6.43579e+07	0.000000000000000E+000	0.000000000000000E+000	10.1121	10.1121	0.0000000E+000	0.000000000000000E+000	0.0173501	2.91656
1	1	0	0	0	0	0	4347.94	10	1.73112	9.99542	36.6635	36.6635	0	10.1843	11	-1.17954	0.0157367	0.000000000000000E+000	6.53492e+07	0.000000000000000E+000	0.000000000000000E+000	10.1843	10.1843	0.0000000E+000	0.000000000000000E+000	0.0173033	2.91067
1	1	0	0	0	0	0	4373.94	10	1.73161	9.99536	36.9234	36.9234	0	10.2565	11	-1.17938	0.0158618	0.000000000000000E+000	6.57551e+07	0.000000000000000E+000	0.000000000000000E+000	10.2565	10.2565	0.0000000E+000	0.000000000000000E+000	0.0173081	2.91099
1	1	0	0	0	0	0	4399.94	10	1.73875	9.99618	37.1833	37.1833	0	10.3287	11	-1.18004	0.0159871	0.000000000000000E+000	6.53868e+07	0.000000000000000E+000	0.000000000000000E+000	10.3287	10.3287	0.0000000E+000	0.000000000000000E+000	0.0173809	2.91879
1	1	0	0	0	0	0	4425.94	10	1.74051	9.99529	37.4432	37.4432	0	10.4009	11	-1.18021	0.0161127	0.000000000000000E+000	6.56407e+07	0.000000000000000E+000	0.000000000000000E+000	10.4009	10.4009	0.0000000E+000	0.000000000000000E+000	0.0173969	2.92072
1	1	0	0	0	0	0	4451.94	10	1.75278	9.99567	37.703	37.703	0	10.4731	11	-1.18097	0.0162388	0.000000000000000E+000	6.47045e+07	0.000000000000000E+000	0.000000000000000E+000	10.4731	10.4731	0.0000000E+000	0.000000000000000E+000	0.0175202	2.93375
1	1	0	0	0	0	0	4477.94	10	1.74108	9.99516	37.9629	37.9629	0	10.5453	11	-1.1813	0.0163652	0.000000000000000E+000	6.64849e+07	0.000000000000000E+000	0.000000000000000E+000	10.5453	10.5453	0.0000000E+000	0.000000000000000E+000	0.0174024	2.92239
1	1	0	0	0	0	0	4503.94	10	1.74363	9.9951	38.2228	38.2228	0	10.6175	11	-1.18182	0.0164911	0.000000000000000E+000	6.66433e+07	0.000000000000000E+000	0.000000000000000E+000	10.6175	10.6175	0.0000000E+000	0.000000000000000E+000	0.0174277	2.92544
1	1	0	0	0	0	0	4529.94	10	1.74441	9.99529	38.4827	38.4827	0	10.6896	11	-1.18255	0.0166172	0.000000000000000E+000	6.70048e+07	0.000000000000000E+000	0.000000000000000E+000	10.6896	10.6896	0.0000000E+000	0.000000000000000E+000	0.0174359	2.92696
1	1	0	0	0	0	0	4555.94	10	1.74604	9.99644	38.7426	38.7426	0	10.7618	11	-1.18327	0.0167432	0.000000000000000E+000	6.72669e+07	0.000000000000000E+000	0.000000000000000E+000	10.7618	10.7618	0.0000000E+000	0.000000000000000E+000	0.0174541	2.92931
1	1	0	0	0	0	0	4581.94	10	1.7527	9.99548	39.0025	39.0025	0	10.834	11	-1.18145	0.0168695	0.000000000000000E+000	6.69432e+07	0.000000000000000E+000	0.000000000000000E+000	10.834	10.834	0.0000000E+000	0.000000000000000E+000	0.0175191	2.93415
1	1	0	0	0	0	0	4607.94	10	1.75286	9.99599	39.2624	39.2624	0	10.9062	11	-1.18234	0.0169961	0.000000000000000E+000	6.7371e+07	0.000000000000000E+000	0.000000000000000E+000	10.9062	10.9062	0.0000000E+000	0.000000000000000E+000	0.0175216	2.9352
1	1	0	0	0	0	0	4633.94	10	1.75341	9.99548	39.5223	39.5223	0	10.9784	11	-1.18265	0.0171226	0.000000000000000E+000	6.77537e+07	0.000000000000000E+000	0.000000000000000E+000	10.9784	10.9784	0.0000000E+000	0.000000000000000E+000	0.0175261	2.93606
1	1	0	0	0	0	0	4659.94	10	1.75351	9.99548	39.7822	39.7822	0	11.0506	11	-1.18336	0.0172492	0.000000000000000E+000	6.81867e+07	0.000000000000000E+000	0.000000000000000E+000	11.0506	11.0506	0.0000000E+000	0.000000000000000E+000	0.0175272	2.93687
1	1	0	0	0	0	0	4685.94	10	1.75451	9.99612	40.042	40.042	0	11.1228	11	-1.18286	0.0173758	0.000000000000000E+000	6.85157e+07	0.000000000000000E+000	0.000000000000000E+000	11.1228	11.1228	0.0000000E+000	0.000000000000000E+000	0.0175382	2.93737
1	1	0	0	0	0	0	4711.94	10	1.75637	9.99586	40.3019	40.3019	0	11.195	11	-1.18303	0.0175026	0.000000000000000E+000	6.87414e+07	0.000000000000000E+000	0.000000000000000E+000	11.195	11.195	0.0000000E+000	0.000000000000000E+000	0.0175564	2.93939
1	1	0	0	0	0	0	4737.94	10	1.75955	9.99625	40.5618	40.5618	0	11.2672	11	-1.18204	0.0176295	0.000000000000000E+000	6.88111e+07	0.000000000000000E+000	0.000000000000000E+000	11.2672	11.2672	0.0000000E+000	0.000000000000000E+000	0.0175889	2.94159
1	1	0	0	0	0	0	4763.94	10	1.76002	9.99625	40.8217	40.8217	0	11.3394	11	-1.18268	0.0177566	0.000000000000000E+000	6.91965e+07	0.000000000000000E+000	0.000000000000000E+000	11.3394	11.3394	0.0000000E+000	0.000000000000000E+000	0.0175936	2.94271
1	1	0	0	0	0	0	4789.94	10	1.7659	9.99625	41.0816	41.0816	0	11.4116	11	-1.18274	0.0178839	0.000000000000000E+000	6.89497e+07	0.000000000000000E+000	0.000000000000000E+000	11.4116	11.4116	0.0000000E+000	0.000000000000000E+000	0.0176524	2.94865
1	1	0	0	0	0	0	4815.94	10	1.76572	9.99548	41.3415	41.3415	0	11.4837	11	-1.18749	0.0180114	0.000000000000000E+000	6.94068e+07	0.000000000000000E+000	0.000000000000000E+000	11.4837	11.4837	0.0000000E+000	0.000000000000000E+000	0.0176493	2.95321
1	1	0	0	0	0	0	4841.94	10	1.76773	9.99516	41.6014	41.6014	0	11.5559	11	-1.18938	0.0181389	0.000000000000000E+000	6.96088e+07	0.000000000000000E+000	0.000000000000000E+000	11.5559	11.5559	0.0000000E+000	0.000000000000000E+000	0.0176687	2.95711
1	1	0	0	0	0	0	4867.94	10	1.76511	9.99606	41.8613	41.8613	0	11.6281	11	-1.18573	0.0182664	0.000000000000000E+000	7.03515e+07	0.000000000000000E+000	0.000000000000000E+000	11.6281	11.6281	0.0000000E+000	0.000000000000000E+000	0.0176442	2.95084
1	1	0	0	0	0	0	4893.94	10	1.76381	9.99523	42.1212	42.1212	0	11.7003	11	-1.18517	0.0183936	0.000000000000000E+000	7.09442e+07	0.000000000000000E+000	0.000000000000000E+000	11.7003	11.7003	0.0000000E+000	0.000000000000000E+000	0.0176296	2.94898
1	1	0	0	0	0	0	4919.94	10	1.76365	9.99637	42.3811	42.3811	0	11.7725	11	-1.18486	0.018521	0.000000000000000E+000	7.14013e+07	0.000000000000000E+000	0.000000000000000E+000	11.7725	11.7725	0.0000000E+000	0.000000000000000E+000	0.0176301	2.94851
1	1	0	0	0	0	0	4945.94	10	1.76695	9.99606	42.6409	42.6409	0	11.8447	11	-1.1847	0.0186484	0.000000000000000E+000	7.14409e+07	0.000000000000000E+000	0.000000000000000E+000	11.8447	11.8447	0.0000000E+000	0.000000000000000E+000	0.0176626	2.95165
1	1	0	0	0	0	0	4971.94	10	1.78258	9.99542	42.9008	42.9008	0	11.9169	11	-1.18547	0.0187765	0.000000000000000E+000	7.00429e+07	0.000000000000000E+000	0.000000000000000E+000	11.9169	11.9169	0.0000000E+000	0.000000000000000E+000	0.0178176	2.96805
1	1	0	0	0	0	0	4997.94	10	1.77511	9.9951	43.1607	43.1607	0	11.9891	11	-1.18567	0.0189049	0.000000000000000E+000	7.1337e+07	0.000000000000000E+000	0.000000000000000E+000	11.9891	11.9891	0.0000000E+000	0.000000000000000E+000	0.0177424	2.96078
1	1	0	0	0	0	0	5023.94	10	1.78154	9.99561	43.4206	43.4206	0	12.0613	11	-1.18603	0.0190334	0.000000000000000E+000	7.10114e+07	0.000000000000000E+000	0.000000000000000E+000	12.0613	12.0613	0.0000000E+000	0.000000000000000E+000	0.0178076	2.96757
1	1	0	0	0	0	0	5049.94	10	1.77912	9.99542	43.6805	43.6805	0	12.1335	11	-1.1864	0.0191621	0.000000000000000E+000	7.1721e+07	0.000000000000000E+000	0.000000000000000E+000	12.1335	12.1335	0.0000000E+000	0.000000000000000E+000	0.017783	2.96552
1	1	0	0	0	0	0	5075.94	10	1.78788	9.99631	43.9404	43.9404	0	12.2057	11	-1.18692	0.0192909	0.000000000000000E+000	7.11246e+07	0.000000000000000E+000	0.000000000000000E+000	12.2057	12.2057	0.0000000E+000	0.000000000000000E+000	0.0178722	2.97479
1	1	0	0	0	0	0	5101.94	10	1.7798	9.99548	44.2003	44.2003	0	12.2779	11	-1.18785	0.0194198	0.000000000000000E+000	7.2493e+07	0.000000000000000E+000	0.000000000000000E+000	12.2779	12.2779	0.0000000E+000	0.000000000000000E+000	0.01779	2.96765
1	1	0	0	0	0	0	5127.94	10	1.79043	9.99612	44.4601	44.4601	0	12.35	11	-1.18543	0.0195488	0.000000000000000E+000	7.16702e+07	0.000000000000000E+000	0.000000000000000E+000	12.35	12.35	0.0000000E+000	0.000000000000000E+000	0.0178973	2.97586
1	1	0	0	0	0	0	5153.94	10	1.78991	9.99606	44.72	44.72	0	12.4222	11	-1.18652	0.0196779	0.000000000000000E+000	7.21494e+07	0.000000000000000E+000	0.000000000000000E+000	12.4222	12.4222	0.0000000E+000	0.000000000000000E+000	0.017892	2.97643
1	1	0	0	0	0	0	5179.94	10	1.7969	9.99548	44.9799	44.9799	0	12.4944	11	-1.18677	0.0198074	0.000000000000000E+000	7.17591e+07	0.000000000000000E+000	0.000000000000000E+000	12.4944	12.4944	0.0000000E+000	0.000000000000000E+000	0.0179609	2.98367
1	1	0	0	0	0	0	5205.94	10	1.79391	9.99561	45.2398	45.2398	0	12.5666	11	-1.18741	0.0199367	0.000000000000000E+000	7.25193e+07	0.000000000000000E+000	0.000000000000000E+000	12.5666	12.5666	0.0000000E+000	0.000000000000000E+000	0.0179313	2.98133
1	1	0	0	0	0	0	5231.94	10	1.7988	9.99561	45.4997	45.4997	0	12.6388	11	-1.1864	0.0200664	0.000000000000000E+000	7.23688e+07	0.000000000000000E+000	0.000000000000000E+000	12.6388	12.6388	0.0000000E+000	0.000000000000000E+000	0.0179801	2.9852
1	1	0	0	0	0	0	5257.94	10	1.79444	9.99555	45.7596	45.7596	0	12.711	11	-1.1867	0.0201961	0.000000000000000E+000	7.32904e+07	0.000000000000000E+000	0.000000000000000E+000	12.711	12.711	0.0000000E+000	0.000000000000000E+000	0.0179364	2.98115
1	1	0	0	0	0	0	5283.94	10	1.80187	9.9958	46.0195	46.0195	0	12.7832	11	-1.18722	0.020326	0.000000000000000E+000	7.28402e+07	0.000000000000000E+000	0.000000000000000E+000	12.7832	12.7832	0.0000000E+000	0.000000000000000E+000	0.0180111	2.98909
1	1	0	0	0	0	0	5309.94	10	1.79344	9.99548	46.2794	46.2794	0	12.8554	11	-1.1881	0.0204563	0.000000000000000E+000	7.42422e+07	0.000000000000000E+000	0.000000000000000E+000	12.8554	12.8554	0.0000000E+000	0.000000000000000E+000	0.0179263	2.98154
1	1	0	0	0	0	0	5335.94	10	1.80709	9.99529	46.5392	46.5392	0	12.9276	11	-1.18852	0.0205863	0.000000000000000E+000	7.30598e+07	0.000000000000000E+000	0.000000000000000E+000	12.9276	12.9276	0.0000000E+000	0.000000000000000E+000	0.0180623	2.99561
1	1	0	0	0	0	0	5361.94	10	1.80787	9.99586	46.7991	46.7991	0	12.9998	11	-1.18909	0.0207164	0.000000000000000E+000	7.33768e+07	0.000000000000000E+000	0.000000000000000E+000	12.9998	12.9998	0.0000000E+000	0.000000000000000E+000	0.0180713	2.99696
1	1	0	0	0	0	0	5387.94	10	1.8054	9.99574	47.059	47.059	0	13.0719	11	-1.18992	0.0208467	0.000000000000000E+000	7.40715e+07	0.000000000000000E+000	0.000000000000000E+000	13.0719	13.0719	0.0000000E+000	0.000000000000000E+000	0.0180463	2.99532
1	1	0	0	0	0	0	5413.94	10	1.8055	9.99625	47.3189	47.3189	0	13.1441	11	-1.19029	0.0209771	0.000000000000000E+000	7.44691e+07	0.000000000000000E+000	0.000000000000000E+000	13.1441	13.1441	0.0000000E+000	0.000000000000000E+000	0.0180482	2.99579
1	1	0	0	0	0	0	5439.94	10	1.81468	9.99548	47.5788	47.5788	0	13.2163	11	-1.19014	0.0211078	0.000000000000000E+000	7.38117e+07	0.000000000000000E+000	0.000000000000000E+000	13.2163	13.2163	0.0000000E+000	0.000000000000000E+000	0.0181386	3.00482
1	1	0	0	0	0	0	5465.94	10	1.80812	9.99561	47.8387	47.8387	0	13.2885	11	-1.19082	0.021239	0.000000000000000E+000	7.49778e+07	0.000000000000000E+000	0.000000000000000E+000	13.2885	13.2885	0.0000000E+000	0.000000000000000E+000	0.0180733	2.99895
1	1	0	0	0	0	0	5491.94	10	1.8173	9.99529	48.0986	48.0986	0	13.3607	11	-1.19072	0.0213698	0.000000000000000E+000	7.43161e+07	0.000000000000000E+000	0.000000000000000E+000	13.3607	13.3607	0.0000000E+000	0.000000000000000E+000	0.0181644	3.00802
1	1	0	0	0	0	0	5517.94	10	1.80926	9.99567	48.3584	48.3584	0	13.4329	11	-1.18877	0.0215013	0.000000000000000E+000	7.56579e+07	0.000000000000000E+000	0.000000000000000E+000	13.4329	13.4329	0.0000000E+000	0.000000000000000E+000	0.0180847	2.99803
1	1	0	0	0	0	0	5543.94	10	1.81933	9.99593	48.6183	48.6183	0	13.5051	11	-1.18784	0.0216322	0.000000000000000E+000	7.48845e+07	0.000000000000000E+000	0.000000000000000E+000	13.5051	13.5051	0.0000000E+000	0.000000000000000E+000	0.0181859	3.00717
1	1	0	0	0	0	0	5569.94	10	1.82028	9.99586	48.8782	48.8782	0	13.5773	11	-1.18806	0.0217635	0.000000000000000E+000	7.51745e+07	0.000000000000000E+000	0.000000000000000E+000	13.5773	13.5773	0.0000000E+000	0.000000000000000E+000	0.0181953	3.00834
1	1	0	0	0	0	0	5595.94	10	1.8273	9.99606	49.1381	49.1381	0	13.6495	11	-1.1884	0.021895	0.000000000000000E+000	7.47675e+07	0.000000000000000E+000	0.000000000000000E+000	13.6495	13.6495	0.0000000E+000	0.000000000000000E+000	0.0182657	3.0157
1	1	0	0	0	0	0	5621.94	10	1.82402	9.99593	49.398	49.398	0	13.7217	11	-1.18886	0.0220266	0.000000000000000E+000	7.55391e+07	0.000000000000000E+000	0.000000000000000E+000	13.7217	13.7217	0.0000000E+000	0.000000000000000E+000	0.0182328	3.01288
1	1	0	0	0	0	0	5647.94	10	1.83122	9.99542	49.6579	49.6579	0	13.7939	11	-1.18954	0.0221586	0.000000000000000E+000	7.51099e+07	0.000000000000000E+000	0.000000000000000E+000	13.7939	13.7939	0.0000000E+000	0.000000000000000E+000	0.0183038	3.02076
1	1	0	0	0	0	0	5673.94	10	1.82389	9.99561	49.9178	49.9178	0	13.866	11	-1.19037	0.0222905	0.000000000000000E+000	7.63497e+07	0.000000000000000E+000	0.000000000000000E+000	13.866	13.866	0.0000000E+000	0.000000000000000E+000	0.0182309	3.01426
1	1	0	0	0	0	0	5699.94	10	1.82471	9.99561	50.1777	50.1777	0	13.9382	11	-1.19072	0.0224224	0.000000000000000E+000	7.66503e+07	0.000000000000000E+000	0.000000000000000E+000	13.9382	13.9382	0.0000000E+000	0.000000000000000E+000	0.0182391	3.01543
1	1	0	0	0	0	0	5725.94	10	1.8245	9.99536	50.4376	50.4376	0	14.0104	11	-1.19104	0.0225544	0.000000000000000E+000	7.7072e+07	0.000000000000000E+000	0.000000000000000E+000	14.0104	14.0104	0.0000000E+000	0.000000000000000E+000	0.0182366	3.01555
1	1	0	0	0	0	0	5751.94	10	1.83599	9.99548	50.6974	50.6974	0	14.0826	11	-1.19144	0.0226866	0.000000000000000E+000	7.6133e+07	0.000000000000000E+000	0.000000000000000E+000	14.0826	14.0826	0.0000000E+000	0.000000000000000E+000	0.0183516	3.02743
1	1	0	0	0	0	0	5777.94	10	1.84428	9.99606	50.9573	50.9573	0	14.1548	11	-1.19475	0.0228194	0.000000000000000E+000	7.55822e+07	0.000000000000000E+000	0.000000000000000E+000	14.1548	14.1548	0.0000000E+000	0.000000000000000E+000	0.0184355	3.03903
1	1	0	0	0	0	0	5803.94	10	1.835	9.99606	51.2172	51.2172	0	14.227	11	-1.18667	0.022952	0.000000000000000E+000	7.70281e+07	0.000000000000000E+000	0.000000000000000E+000	14.227	14.227	0.0000000E+000	0.000000000000000E+000	0.0183428	3.02167
1	1	0	0	0	0	0	5829.94	10	1.83259	9.99498	51.4771	51.4771	0	14.2992	11	-1.18681	0.0230846	0.000000000000000E+000	7.77006e+07	0.000000000000000E+000	0.000000000000000E+000	14.2992	14.2992	0.0000000E+000	0.000000000000000E+000	0.0183167	3.0194
1	1	0	0	0	0	0	5855.94	10	1.84614	9.99606	51.737	51.737	0	14.3714	11	-1.18677	0.0232176	0.000000000000000E+000	7.65273e+07	0.000000000000000E+000	0.000000000000000E+000	14.3714	14.3714	0.0000000E+000	0.000000000000000E+000	0.0184541	3.03291
1	1	0	0	0	0	0	5881.94	10	1.84655	9.99555	51.9969	51.9969	0	14.4436	11	-1.18697	0.0233504	0.000000000000000E+000	7.68657e+07	0.000000000000000E+000	0.000000000000000E+000	14.4436	14.4436	0.0000000E+000	0.000000000000000E+000	0.0184572	3.03352
1	1	0	0	0	0	0	5907.94	10	1.84102	9.9958	52.2568	52.2568	0	14.5158	11	-1.18739	0.0234836	0.000000000000000E+000	7.78865e+07	0.000000000000000E+000	0.000000000000000E+000	14.5158	14.5158	0.0000000E+000	0.000000000000000E+000	0.0184025	3.02841
1	1	0	0	0	0	0	5912.82	10	1.84568	9.99574	52.3055	52.3055	0	14.5293	11	-1.18693	0.0235086	0.000000000000000E+000	7.74214e+07	0.000000000000000E+000	0.000000000000000E+000	14.5293	14.5293	0.0000000E+000	0.000000000000000E+000	0.0184489	3.0326