File: Lares Oxides/2024-6-26 Ni45Co45Fe10Ox on FTO_1_07mg_02_CV_C05.mpt
EC-Lab ASCII FILE
Nb header lines : 60

Cyclic Voltammetry

Run on channel : 5 (SN 39658)
User :
CE vs. WE compliance from -10 V to 10 V
Electrode connection : standard
Potential control : Ewe
Ewe ctrl range : min = -2.50 V, max = 2.50 V
Safety Limits :
	Do not start on E overload
Acquisition started on : 06/26/2024 16:18:27.404
Technique started on : 06/26/2024 16:19:46.925
Loaded Setting File :  NONE
Saved on :
	File : 2024-6-26 Ni45Co45Fe10Ox on FTO_1_07mg_02_CV_C05.mpr
	Directory : C:\Users\sfolkman\OneDrive - New Mexico State University\Folkman Group Folder\Scott\
	Host : 172.24.124.15
Device : VSP (SN 1910)
Address : USB
EC-Lab for windows v11.46 (software)
Internet server v11.40 (firmware)
Command interpretor v11.40 (firmware)
Electrode material :
Initial state :
Electrolyte :
Comments :
Current amplifier : VSPB-4A
Electrode surface area : 0.000 cm²
Characteristic mass : 0.001 g
Equivalent Weight : 0.000 g/eq.
Density : 0.000 g/cm3
Volume (V) : 0.001 cm³
Record Ece
Cycle Definition : Charge/Discharge alternance
Ei (V)              0.000
vs.                 Eoc
dE/dt               10.000
dE/dt unit          mV/s
E1 (V)              1.000
vs.                 Ref
Step percent        50
N                   10
E range min (V)     -2.500
E range max (V)     2.500
I Range             Auto
I Range min         Unset
I Range max         Unset
I Range init        Unset
Bandwidth           4
E2 (V)              0.000
vs.                 Ref
nc cycles           2
Reverse Scan        1
Ef (V)              0.000
vs.                 Eoc

mode	ox/red	error	control changes	counter inc.	time/s	control/V	Ewe/V	<I>/mA	cycle number	(Q-Qo)/C	I Range	<Ece>/V	P/W	Ewe-Ece/V
2	1	0	0	0	79.5208	0.237676	0.238489	0.00603135	1	0.0000000E+000	13	0.00915823	1.43841e-06	0.22933
2	0	0	1	0	80.576	0.248229	0.248724	0.000408376	1	7.809e-07	13	0.00669621	1.01573e-07	0.242028
2	0	0	1	0	81.6764	0.259233	0.259439	0.000563366	1	1.79627e-06	13	0.00398632	1.46159e-07	0.255452
2	0	0	1	0	82.7768	0.270237	0.270783	0.00074204	1	3.07768e-06	13	0.00139312	2.00932e-07	0.26939
2	0	0	1	0	83.8772	0.281241	0.282178	0.000891378	1	4.6338e-06	13	-0.00106947	2.51528e-07	0.283248
2	0	0	1	0	84.9776	0.292245	0.292784	0.00110047	1	6.47819e-06	13	-0.00341444	3.22201e-07	0.296199
2	0	0	1	0	86.078	0.303249	0.3039	0.00126219	1	8.62368e-06	13	-0.00574439	3.83579e-07	0.309644
2	0	0	1	0	87.1784	0.314253	0.314649	0.00151501	1	1.10855e-05	13	-0.0079062	4.76696e-07	0.322555
2	0	0	1	0	88.2788	0.325257	0.324996	0.00177895	1	1.38834e-05	13	-0.00992223	5.78151e-07	0.334918
2	0	0	1	0	89.3792	0.33626	0.336671	0.00211457	1	1.70373e-05	13	-0.0118879	7.11916e-07	0.348559
2	0	0	1	0	90.4796	0.347264	0.347244	0.00244471	1	2.05725e-05	13	-0.013808	8.4891e-07	0.361052
2	0	0	1	0	91.58	0.358268	0.358265	0.00286949	1	2.45153e-05	13	-0.0156247	1.02804e-06	0.37389
2	0	0	1	0	92.6804	0.369272	0.369938	0.0032853	1	2.8903e-05	13	-0.0173241	1.21536e-06	0.387263
2	0	0	1	0	93.7808	0.380276	0.380471	0.00378711	1	3.37773e-05	13	-0.019039	1.44089e-06	0.39951
2	0	0	1	0	94.8812	0.39128	0.391594	0.00436069	1	3.9192e-05	13	-0.020763	1.70762e-06	0.412357
2	0	0	1	0	95.9816	0.402284	0.40329	0.00498215	1	4.52101e-05	13	-0.0226054	2.00925e-06	0.425895
2	0	0	1	0	97.112	0.413588	0.414197	0.00534827	1	5.2441e-05	12	-0.0243632	2.21524e-06	0.43856
2	0	0	1	0	98.2123	0.424591	0.424624	0.00587157	1	5.97798e-05	12	-0.026288	2.49321e-06	0.450912
2	0	0	1	0	99.3127	0.435596	0.436059	0.00678158	1	6.80112e-05	12	-0.0280961	2.95717e-06	0.464155
2	0	0	1	0	100.413	0.4466	0.447235	0.00774138	1	7.72695e-05	12	-0.0300858	3.46222e-06	0.477321
2	0	0	0	0	101.513	0.457603	0.458201	0.00903404	1	8.77229e-05	12	-0.0320983	4.1394e-06	0.490299
2	0	0	0	0	102.614	0.468607	0.469422	0.0104913	1	9.95838e-05	12	-0.0343654	4.92486e-06	0.503787
2	0	0	0	0	103.714	0.479611	0.480217	0.012391	1	0.000113099	12	-0.036645	5.95036e-06	0.516862
2	1	0	0	0	104.815	0.490615	0.490721	0.0147856	1	0.000128588	12	-0.0391645	7.25563e-06	0.529885
2	1	0	0	0	105.915	0.501619	0.502212	0.0175279	1	0.000146448	12	-0.041809	8.8027e-06	0.544021
2	1	0	0	0	107.015	0.512623	0.51289	0.0209597	1	0.000167163	12	-0.0446853	1.075e-05	0.557575
2	1	0	0	0	108.116	0.523627	0.524499	0.0246343	1	0.000191339	12	-0.0477022	1.29207e-05	0.572202
2	0	0	0	0	109.216	0.53463	0.535126	0.0285024	1	0.000219724	12	-0.0509913	1.52524e-05	0.586117
2	0	0	0	0	110.317	0.545634	0.545181	0.0334023	1	0.000253271	12	-0.0547145	1.82103e-05	0.599896
2	1	0	0	0	111.417	0.556638	0.557378	0.0390901	1	0.000293187	12	-0.0587256	2.1788e-05	0.616104
2	1	0	0	0	112.517	0.567642	0.567789	0.0461935	1	0.000340932	12	-0.0634441	2.62282e-05	0.631233
2	1	0	0	0	113.618	0.578646	0.579187	0.0551403	1	0.000398323	12	-0.0687716	3.19365e-05	0.647958
2	1	0	0	0	114.718	0.58965	0.589984	0.0669578	1	0.000467626	12	-0.0752201	3.9504e-05	0.665204
2	1	0	0	0	115.819	0.600654	0.600594	0.0822791	1	0.000551775	12	-0.0835557	4.94163e-05	0.68415
2	1	0	0	0	116.919	0.611658	0.612156	0.101842	1	0.000654685	12	-0.0952903	6.23432e-05	0.707446
2	1	0	1	0	118.019	0.622661	0.623149	0.127444	1	0.000781822	12	-0.113128	7.94168e-05	0.736277
2	1	0	1	0	119.12	0.633666	0.634299	0.161365	1	0.000941044	12	-0.141536	0.000102354	0.775836
2	1	0	1	0	120.22	0.644669	0.645139	0.207567	1	0.00114352	12	-0.185506	0.000133909	0.830644
2	1	0	1	0	121.32	0.655673	0.656295	0.270597	1	0.00140513	12	-0.257211	0.000177591	0.913506
2	1	0	1	0	122.421	0.666677	0.667493	0.356003	1	0.00174756	12	-0.390893	0.000237629	1.05839
2	1	0	1	0	123.521	0.677681	0.678162	0.470246	1	0.00219948	12	-0.66552	0.000318903	1.34368
2	1	0	1	0	124.622	0.688685	0.689208	0.620115	1	0.00279684	12	-0.91182	0.000427389	1.60103
2	1	0	1	0	125.722	0.699689	0.700374	0.810643	1	0.0035821	12	-0.945093	0.000567754	1.64547
2	1	0	1	0	126.837	0.710843	0.711184	1.04776	1	0.00461794	12	-0.953832	0.000745149	1.66502
2	1	0	1	0	127.953	0.721997	0.722705	1.32354	1	0.0059397	11	-0.961083	0.000956528	1.68379
2	1	0	1	0	129.053	0.733	0.733482	1.63453	1	0.00756754	11	-0.96768	0.0011989	1.70116
2	1	0	1	0	130.154	0.744004	0.744524	1.97659	1	0.00955459	11	-0.973933	0.00147162	1.71846
2	1	0	1	0	131.254	0.755008	0.755732	2.34208	1	0.0119308	11	-0.979758	0.00176998	1.73549
2	1	0	1	0	132.354	0.766012	0.766227	2.72799	1	0.0147204	11	-0.985381	0.00209025	1.75161
2	1	0	1	0	133.455	0.777016	0.776921	3.12935	1	0.0179432	11	-0.990664	0.00243126	1.76758
2	1	0	1	0	134.555	0.78802	0.788172	3.5435	1	0.0216148	11	-0.995656	0.00279289	1.78383
2	1	0	1	0	135.656	0.799024	0.79948	3.96838	1	0.0257483	11	-1.00052	0.00317264	1.8
2	1	0	1	0	136.756	0.810028	0.811032	4.40198	1	0.0303544	11	-1.00509	0.00357015	1.81613
2	1	0	1	0	137.856	0.821031	0.821428	4.84425	1	0.0354416	11	-1.0095	0.0039792	1.83093
2	1	0	1	0	138.957	0.832035	0.83249	5.29186	1	0.0410183	11	-1.01354	0.00440542	1.84603
2	1	0	1	0	140.057	0.84304	0.843429	5.74506	1	0.0470903	11	-1.01738	0.00484555	1.86081
2	1	0	0	0	141.157	0.854043	0.854699	6.20186	1	0.0536624	11	-1.0211	0.00530072	1.8758
2	1	0	0	0	142.258	0.865047	0.865656	6.66242	1	0.06074	11	-1.02449	0.00576736	1.89014
2	1	0	0	0	143.358	0.876051	0.876625	7.12606	1	0.0683274	11	-1.02765	0.00624688	1.90427
2	1	0	0	0	144.459	0.887055	0.887821	7.59455	1	0.0764279	11	-1.03062	0.0067426	1.91844
2	1	0	0	0	145.559	0.898059	0.8978	8.0647	1	0.085045	11	-1.03364	0.00724048	1.93144
2	1	0	0	0	146.659	0.909063	0.909642	8.53779	1	0.094181	11	-1.03644	0.00776633	1.94608
2	1	0	0	0	147.76	0.920066	0.920478	9.01167	1	0.103838	11	-1.03927	0.00829505	1.95975
2	1	0	0	0	148.86	0.93107	0.931641	9.48648	1	0.114018	11	-1.04196	0.00883799	1.9736
2	1	0	0	0	149.961	0.942074	0.942688	9.96371	1	0.124722	11	-1.04456	0.00939267	1.98725
2	1	0	0	0	151.061	0.953078	0.953431	10.4381	1	0.135949	11	-1.04716	0.00995202	2.00059
2	1	0	0	0	152.191	0.964382	0.964874	10.9208	1	0.148032	10	-1.04966	0.0105372	2.01454
2	1	0	0	0	153.292	0.975386	0.975535	11.3996	1	0.160315	10	-1.05215	0.0111207	2.02769
2	1	0	0	0	154.392	0.98639	0.986925	11.8755	1	0.173122	10	-1.05452	0.0117202	2.04145
2	1	0	0	0	155.493	0.997394	0.997374	12.3481	1	0.186453	10	-1.05684	0.0123157	2.05421
2	1	0	0	0	156.413	0.993492	0.993885	12.1455	1	0.197808	10	-1.05593	0.0120712	2.04982
2	1	0	0	0	157.514	0.982488	0.98292	11.6208	1	0.210883	10	-1.0537	0.0114223	2.03662
2	1	0	0	0	158.614	0.971485	0.971884	11.1011	1	0.223383	10	-1.05127	0.010789	2.02315
2	1	0	0	0	159.715	0.960481	0.960763	10.5914	1	0.235316	10	-1.04891	0.0101758	2.00968
2	1	0	0	0	160.815	0.949477	0.949828	10.0818	1	0.246689	10	-1.04658	0.009576	1.99641
2	1	0	0	0	161.915	0.938473	0.938994	9.58168	1	0.257507	10	-1.04424	0.00899714	1.98324
2	1	0	0	0	163.016	0.927469	0.927704	9.09429	1	0.267781	10	-1.04186	0.0084368	1.96956
2	1	0	0	0	164.116	0.916465	0.91677	8.60837	1	0.27752	10	-1.03946	0.00789189	1.95623
2	1	0	1	0	165.217	0.905462	0.90605	8.13071	1	0.286728	10	-1.03683	0.00736683	1.94288
2	1	0	1	0	166.317	0.894457	0.895521	7.65577	1	0.295412	10	-1.03437	0.0068559	1.92989
2	1	0	1	0	167.417	0.883453	0.883694	7.19485	1	0.30358	10	-1.0317	0.00635805	1.91539
2	1	0	1	0	168.518	0.87245	0.87278	6.734	1	0.31124	10	-1.02897	0.0058773	1.90175
2	1	0	1	0	169.618	0.861446	0.862014	6.27872	1	0.318398	10	-1.02605	0.00541235	1.88806
2	1	0	1	0	170.718	0.850442	0.850288	5.83217	1	0.325061	10	-1.02311	0.00495903	1.8734
2	1	0	1	0	171.819	0.839438	0.83974	5.39346	1	0.331235	10	-1.02002	0.0045291	1.85976
2	1	0	1	0	172.919	0.828434	0.828567	4.96635	1	0.336933	10	-1.01687	0.00411495	1.84544
2	1	0	1	0	174.02	0.81743	0.817898	4.54776	1	0.342165	10	-1.0136	0.0037196	1.83149
2	1	0	1	0	175.15	0.806126	0.806631	4.14327	1	0.347079	11	-1.01009	0.00334209	1.81672
2	1	0	1	0	176.25	0.795122	0.795626	3.74863	1	0.351418	11	-1.00659	0.00298251	1.80222
2	1	0	1	0	177.351	0.784118	0.784501	3.36527	1	0.355329	11	-1.00274	0.00264006	1.78724
2	1	0	1	0	178.451	0.773115	0.773871	2.99848	1	0.358829	11	-0.99888	0.00232044	1.77275
2	1	0	1	0	179.552	0.762111	0.762267	2.64673	1	0.361933	11	-0.994662	0.00201752	1.75693
2	1	0	1	0	180.652	0.751107	0.75171	2.31322	1	0.364659	11	-0.990581	0.00173887	1.74229
2	1	0	1	0	181.752	0.740103	0.740543	1.99876	1	0.367028	11	-0.986251	0.00148016	1.72679
2	1	0	1	0	182.853	0.729099	0.729497	1.70602	1	0.369062	11	-0.981803	0.00124454	1.7113
2	1	0	1	0	183.953	0.718095	0.718533	1.43581	1	0.370786	11	-0.977028	0.00103167	1.69556
2	1	0	1	0	185.054	0.707091	0.707207	1.19044	1	0.372226	11	-0.972343	0.000841885	1.67955
2	1	0	1	0	186.154	0.696088	0.696412	0.970984	1	0.373409	11	-0.96748	0.000676205	1.66389
2	1	0	1	0	187.254	0.685083	0.685526	0.777323	1	0.374366	11	-0.962678	0.000532875	1.6482
2	1	0	0	0	188.355	0.67408	0.67379	0.610657	1	0.375125	11	-0.957825	0.000411454	1.63161
2	1	0	0	0	189.455	0.663076	0.663426	0.47054	1	0.375716	11	-0.953417	0.000312168	1.61684
2	1	0	0	0	190.585	0.651772	0.652344	0.354366	1	0.376179	12	-0.948817	0.000231169	1.60116
2	1	0	0	0	191.686	0.640768	0.641261	0.260489	1	0.376513	12	-0.944826	0.000167042	1.58609
2	1	0	0	0	192.786	0.629764	0.630412	0.185436	1	0.376756	12	-0.94095	0.000116901	1.57136
2	1	0	0	0	193.887	0.61876	0.618768	0.126209	1	0.376926	12	-0.937702	7.80942e-05	1.55647
2	1	0	0	0	194.987	0.607756	0.608048	0.0806197	1	0.377039	12	-0.934732	4.90206e-05	1.54278
2	1	0	0	0	196.087	0.596752	0.596989	0.0456784	1	0.377108	12	-0.931972	2.72695e-05	1.52896
2	1	0	0	0	197.188	0.585748	0.585986	0.0189863	1	0.377142	12	-0.929658	1.11257e-05	1.51564
2	1	0	0	0	198.288	0.574745	0.57488	-0.00094868	1	0.377151	12	-0.927682	-5.45377e-07	1.50256
2	0	0	0	0	199.389	0.563741	0.564584	-0.0158738	1	0.377141	12	-0.925751	-8.9621e-06	1.49034
2	0	0	0	0	200.489	0.552737	0.553188	-0.0267117	1	0.377116	12	-0.924222	-1.47766e-05	1.47741
2	0	0	0	0	201.589	0.541733	0.541955	-0.0346332	1	0.37708	12	-0.922789	-1.87696e-05	1.46474
2	0	0	0	0	202.69	0.530729	0.530916	-0.0401385	1	0.377037	12	-0.921598	-2.13102e-05	1.45251
2	0	0	0	0	203.79	0.519725	0.519723	-0.043692	1	0.376989	12	-0.920691	-2.27077e-05	1.44041
2	0	0	0	0	204.891	0.508721	0.508988	-0.0459246	1	0.376938	12	-0.91991	-2.33751e-05	1.4289
2	0	0	0	0	205.991	0.497717	0.498055	-0.0471421	1	0.376884	12	-0.919068	-2.34794e-05	1.41712
2	0	0	1	0	207.091	0.486713	0.487129	-0.0476885	1	0.37683	12	-0.918373	-2.32304e-05	1.4055
2	0	0	1	0	208.192	0.475709	0.476335	-0.0475868	1	0.376776	12	-0.917953	-2.26673e-05	1.39429
2	0	0	1	0	209.292	0.464706	0.465156	-0.0470135	1	0.376723	12	-0.917336	-2.18686e-05	1.38249
2	0	0	1	0	210.392	0.453702	0.454405	-0.0459429	1	0.376671	12	-0.916937	-2.08767e-05	1.37134
2	0	0	1	0	211.493	0.442698	0.443252	-0.0447173	1	0.37662	12	-0.91661	-1.98211e-05	1.35986
2	0	0	1	0	212.593	0.431694	0.432033	-0.0433133	1	0.376571	12	-0.916326	-1.87128e-05	1.34836
2	0	0	1	0	213.694	0.42069	0.420716	-0.0419698	1	0.376523	12	-0.916	-1.76574e-05	1.33672
2	0	0	1	0	214.794	0.409686	0.410036	-0.0406702	1	0.376477	12	-0.915715	-1.66762e-05	1.32575
2	0	0	1	0	215.894	0.398682	0.399269	-0.0392726	1	0.376433	12	-0.915546	-1.56803e-05	1.31482
2	0	0	1	0	216.995	0.387679	0.388285	-0.0379658	1	0.376391	12	-0.915245	-1.47415e-05	1.30353
2	0	0	1	0	218.095	0.376675	0.376757	-0.0365664	1	0.37635	12	-0.915096	-1.37766e-05	1.29185
2	0	0	1	0	219.196	0.365671	0.365779	-0.0353253	1	0.376311	12	-0.914846	-1.29212e-05	1.28062
2	0	0	1	0	220.296	0.354667	0.355168	-0.0340048	1	0.376273	12	-0.914754	-1.20774e-05	1.26992
2	0	0	1	0	221.396	0.343663	0.343993	-0.0327646	1	0.376236	12	-0.914611	-1.12708e-05	1.2586
2	0	0	1	0	222.497	0.332659	0.332772	-0.0314657	1	0.376202	12	-0.914583	-1.04709e-05	1.24736
2	0	0	1	0	223.597	0.321655	0.321806	-0.0303212	1	0.376168	12	-0.914311	-9.75754e-06	1.23612
2	0	0	1	0	224.698	0.310651	0.310822	-0.0292959	1	0.376136	12	-0.914277	-9.1058e-06	1.2251
2	0	0	1	0	225.798	0.299648	0.300114	-0.0282003	1	0.376104	12	-0.914159	-8.46333e-06	1.21427
2	0	0	1	0	226.898	0.288643	0.289032	-0.0274767	1	0.376074	12	-0.914039	-7.94166e-06	1.20307
2	0	0	1	0	227.999	0.277639	0.277716	-0.0266395	1	0.376045	12	-0.91392	-7.39822e-06	1.19164
2	0	0	0	0	229.099	0.266636	0.2669	-0.0258795	1	0.376017	12	-0.913882	-6.90723e-06	1.18078
2	0	0	0	0	230.199	0.255632	0.25581	-0.0250693	1	0.37599	12	-0.913692	-6.41297e-06	1.1695
2	0	0	0	0	231.3	0.244628	0.245081	-0.0244529	1	0.375963	12	-0.91368	-5.99295e-06	1.15876
2	0	0	0	0	232.4	0.233624	0.233709	-0.0238627	1	0.375937	12	-0.913544	-5.57693e-06	1.14725
2	0	0	0	0	233.501	0.22262	0.223071	-0.0232733	1	0.375912	12	-0.913516	-5.19161e-06	1.13659
2	0	0	0	0	234.601	0.211616	0.211827	-0.0227073	1	0.375888	12	-0.913425	-4.81002e-06	1.12525
2	0	0	0	0	235.701	0.200613	0.200918	-0.022249	1	0.375864	12	-0.913291	-4.47023e-06	1.11421
2	0	0	0	0	236.802	0.189609	0.18963	-0.0217732	1	0.37584	12	-0.913165	-4.12885e-06	1.1028
2	0	0	0	0	237.902	0.178605	0.178465	-0.021361	1	0.375817	12	-0.913162	-3.81218e-06	1.09163
2	0	0	0	0	239.003	0.167601	0.167167	-0.0210173	1	0.375795	12	-0.913097	-3.51341e-06	1.08026
2	0	0	0	0	240.103	0.156597	0.1567	-0.0207439	1	0.375773	12	-0.912976	-3.25058e-06	1.06968
2	0	0	0	0	241.203	0.145593	0.145241	-0.0204914	1	0.375751	12	-0.912746	-2.9762e-06	1.05799
2	0	0	0	0	242.304	0.134589	0.135028	-0.020346	1	0.375729	12	-0.912633	-2.74727e-06	1.04766
2	0	0	0	0	243.404	0.123585	0.123684	-0.020061	1	0.375707	12	-0.912712	-2.48123e-06	1.0364
2	0	0	0	0	244.505	0.112581	0.112989	-0.0195011	1	0.375685	12	-0.912571	-2.20342e-06	1.02556
2	0	0	1	0	245.605	0.101578	0.102078	-0.0185824	1	0.375664	12	-0.912625	-1.89686e-06	1.0147
2	0	0	1	0	246.705	0.0905733	0.090742	-0.0180329	1	0.375644	12	-0.91253	-1.63634e-06	1.00327
2	0	0	1	0	247.806	0.0795698	0.0804192	-0.0176443	1	0.375624	12	-0.912465	-1.41894e-06	0.992885
2	0	0	1	0	248.906	0.068566	0.0693941	-0.0172267	1	0.375604	12	-0.912375	-1.19543e-06	0.981769
2	0	0	1	0	250.006	0.0575621	0.0580677	-0.0169465	1	0.375585	12	-0.912337	-9.84046e-07	0.970404
2	0	0	1	0	251.107	0.0465582	0.0467817	-0.016636	1	0.375566	12	-0.912297	-7.78259e-07	0.959079
2	0	0	1	0	252.207	0.0355543	0.0360483	-0.0164465	1	0.375547	12	-0.912163	-5.9287e-07	0.948212
2	0	0	1	0	253.308	0.0245504	0.0247273	-0.0162242	1	0.375528	12	-0.912149	-4.01181e-07	0.936877
2	0	0	1	0	254.408	0.0135465	0.0140014	-0.0160516	1	0.375509	12	-0.912043	-2.24744e-07	0.926045
2	0	0	1	0	255.508	0.00254265	0.00345269	-0.0164595	1	0.375491	12	-0.911833	-5.68296e-08	0.915286
2	0	0	1	1	256.519	0.00754442	0.00827138	-0.015358	1	0.375475	12	-0.912162	-1.27032e-07	0.920433
2	0	0	1	1	257.62	0.0185483	0.018993	-0.0144936	1	0.37546	12	-0.912175	-2.75277e-07	0.931168
2	0	0	1	1	258.72	0.0295522	0.029894	-0.0139032	1	0.375445	12	-0.91229	-4.15621e-07	0.942183
2	0	0	1	1	259.82	0.0405561	0.0407196	-0.0130011	1	0.37543	12	-0.912331	-5.29401e-07	0.953051
2	0	0	1	1	260.921	0.0515599	0.052273	-0.0119601	1	0.375417	12	-0.912252	-6.25189e-07	0.964525
2	0	0	1	1	262.021	0.0625638	0.0628206	-0.0113264	1	0.375404	12	-0.912247	-7.11531e-07	0.975068
2	0	0	1	1	263.121	0.073567	0.0739978	-0.0108017	1	0.375391	12	-0.912246	-7.993e-07	0.986244
2	0	0	1	1	264.222	0.0845718	0.0845962	-0.0104097	1	0.375379	12	-0.912276	-8.80622e-07	0.996872
2	0	0	1	1	265.322	0.0955764	0.0958808	-0.0103591	1	0.375367	12	-0.91235	-9.93243e-07	1.00823
2	0	0	0	1	266.423	0.106579	0.106924	-0.0104118	1	0.375356	12	-0.91222	-1.11327e-06	1.01914
2	0	0	0	1	267.523	0.117583	0.118579	-0.0104051	1	0.375345	12	-0.912275	-1.23383e-06	1.03085
2	0	0	0	1	268.623	0.128587	0.1288	-0.0104285	1	0.375334	12	-0.912323	-1.3432e-06	1.04112
2	0	0	0	1	269.724	0.139591	0.140098	-0.0104973	1	0.375325	12	-0.912257	-1.47065e-06	1.05235
2	0	0	0	1	270.824	0.150595	0.150971	-0.010289	1	0.375315	12	-0.912315	-1.55335e-06	1.06329
2	0	0	0	1	271.925	0.161599	0.16199	-0.0095528	1	0.375306	12	-0.912119	-1.54746e-06	1.07411
2	0	0	0	1	273.025	0.172603	0.172638	-0.00881711	1	0.375296	12	-0.912333	-1.52217e-06	1.08497
2	1	0	0	1	274.125	0.183607	0.184133	-0.00831342	1	0.375288	12	-0.912304	-1.53078e-06	1.09644
2	1	0	0	1	275.226	0.19461	0.195035	-0.00789814	1	0.375279	12	-0.91211	-1.54042e-06	1.10715
2	1	0	0	1	276.326	0.205614	0.206213	-0.00754663	1	0.375271	12	-0.912214	-1.55622e-06	1.11843
2	1	0	0	1	277.427	0.216618	0.217075	-0.00728598	1	0.375263	12	-0.912177	-1.5816e-06	1.12925
2	1	0	0	1	278.527	0.227622	0.228255	-0.00700528	1	0.375256	12	-0.912182	-1.59899e-06	1.14044
2	0	0	1	1	279.512	0.237476	0.238069	-0.0150046	2	0.375249	12	-0.912071	-3.57211e-06	1.15014
2	1	0	1	1	280.568	0.248029	0.248004	-0.00665761	2	0.375243	12	-0.912186	-1.65111e-06	1.16019
2	1	0	1	1	281.668	0.259033	0.259339	-0.00648016	2	0.375236	12	-0.912193	-1.68056e-06	1.17153
2	1	0	1	1	282.768	0.270037	0.270457	-0.00623891	2	0.37523	12	-0.912241	-1.68736e-06	1.1827
2	1	0	1	1	283.869	0.281041	0.281502	-0.00597763	2	0.375224	12	-0.912331	-1.68272e-06	1.19383
2	1	0	1	1	284.969	0.292045	0.292515	-0.00580219	2	0.375219	12	-0.912327	-1.69723e-06	1.20484
2	1	0	1	1	286.07	0.303049	0.303308	-0.00544744	2	0.375214	12	-0.912283	-1.65225e-06	1.21559
2	1	0	1	1	287.17	0.314053	0.314303	-0.00511642	2	0.375209	12	-0.91234	-1.6081e-06	1.22664
2	1	0	1	1	288.27	0.325056	0.325442	-0.00462461	2	0.375205	12	-0.912386	-1.50504e-06	1.23783
2	1	0	1	1	289.371	0.33606	0.336113	-0.00425031	2	0.375201	12	-0.912413	-1.42859e-06	1.24853
2	1	0	1	1	290.471	0.347064	0.347529	-0.0038182	2	0.375198	12	-0.912462	-1.32693e-06	1.25999
2	1	0	1	1	291.572	0.358068	0.358487	-0.00337049	2	0.375196	12	-0.912439	-1.20828e-06	1.27093
2	1	0	1	1	292.672	0.369072	0.36933	-0.00289941	2	0.375194	12	-0.912584	-1.07084e-06	1.28191
2	1	0	1	1	293.772	0.380076	0.38038	-0.00234073	2	0.375193	12	-0.912705	-8.90369e-07	1.29309
2	1	0	1	1	294.873	0.39108	0.391628	-0.00168837	2	0.375192	12	-0.912771	-6.61215e-07	1.3044
2	1	0	1	1	295.973	0.402083	0.402125	-0.000985983	2	0.375192	12	-0.912881	-3.96488e-07	1.31501
2	1	0	1	1	297.073	0.413088	0.413477	-0.000125489	2	0.375194	12	-0.913007	-5.18868e-08	1.32648
2	1	0	1	1	298.174	0.424092	0.424347	0.000792717	2	0.375196	12	-0.913071	3.36387e-07	1.33742
2	1	0	0	1	299.274	0.435095	0.435574	0.00194049	2	0.3752	12	-0.913253	8.45226e-07	1.34883
2	1	0	0	1	300.375	0.446099	0.446527	0.00331445	2	0.375205	12	-0.913562	1.47999e-06	1.36009
2	1	0	0	1	301.375	0.456103	0.456296	0.00484923	2	0.375211	12	-0.913779	2.21268e-06	1.37008
2	1	0	0	1	302.475	0.467107	0.46744	0.00683467	2	0.37522	12	-0.914014	3.1948e-06	1.38145
2	1	0	0	1	303.576	0.47811	0.478506	0.00918853	2	0.375231	12	-0.914382	4.39676e-06	1.39289
2	1	0	0	1	304.676	0.489114	0.489147	0.0119899	2	0.375244	12	-0.914864	5.86482e-06	1.40401
2	1	0	0	1	305.777	0.500118	0.500522	0.0153192	2	0.375261	12	-0.915301	7.66758e-06	1.41582
2	1	0	0	1	306.877	0.511122	0.512127	0.0193046	2	0.375282	12	-0.915922	9.88639e-06	1.42805
2	1	0	0	1	307.977	0.522126	0.522502	0.0241392	2	0.375308	12	-0.91671	1.26128e-05	1.43921
2	1	0	0	1	309.078	0.53313	0.533174	0.0300774	2	0.375339	12	-0.917585	1.60365e-05	1.45076
2	1	0	0	1	310.178	0.544134	0.544135	0.0370908	2	0.375377	12	-0.918595	2.01824e-05	1.46273
2	1	0	0	1	311.279	0.555138	0.5554	0.0455846	2	0.375423	12	-0.919817	2.53177e-05	1.47522
2	1	0	1	1	312.379	0.566141	0.565906	0.0553001	2	0.37548	12	-0.921149	3.12947e-05	1.48706
2	1	0	1	1	313.479	0.577146	0.577356	0.0670384	2	0.375548	12	-0.922826	3.87051e-05	1.50018
2	1	0	1	1	314.58	0.58815	0.588337	0.080936	2	0.37563	12	-0.924591	4.76176e-05	1.51293
2	1	0	1	1	315.68	0.599153	0.599496	0.0977423	2	0.37573	12	-0.92652	5.85961e-05	1.52602
2	1	0	1	1	316.78	0.610157	0.6105	0.118045	2	0.375849	12	-0.928862	7.20666e-05	1.53936
2	1	0	1	1	317.881	0.621161	0.621479	0.143157	2	0.375993	12	-0.931486	8.8969e-05	1.55296
2	1	0	1	1	318.981	0.632165	0.633038	0.174876	2	0.376169	12	-0.93437	0.000110703	1.56741
2	1	0	1	1	320.082	0.643169	0.643402	0.216057	2	0.376384	12	-0.937862	0.000139012	1.58126
2	1	0	1	1	321.182	0.654173	0.65433	0.27034	2	0.37665	12	-0.941707	0.000176892	1.59604
2	1	0	1	1	322.282	0.665176	0.665483	0.34209	2	0.376986	12	-0.946167	0.000227655	1.61165
2	1	0	1	1	323.383	0.67618	0.677275	0.436888	2	0.377412	12	-0.951319	0.000295893	1.62859
2	1	0	1	1	324.483	0.687184	0.687884	0.560665	2	0.377958	12	-0.956795	0.000385672	1.64468
2	1	0	1	1	325.584	0.698188	0.698592	0.718466	2	0.378659	12	-0.962785	0.000501914	1.66138
2	1	0	1	1	326.684	0.709192	0.709443	0.913452	2	0.379554	12	-0.968816	0.000648042	1.67826
2	1	0	1	1	327.814	0.720496	0.72068	1.15125	2	0.38072	11	-0.975155	0.000829681	1.69584
2	1	0	1	1	328.915	0.7315	0.732118	1.4206	2	0.382133	11	-0.981222	0.00104004	1.71334
2	1	0	1	1	330.015	0.742504	0.742475	1.72072	2	0.38386	11	-0.986938	0.00127759	1.72941
2	1	0	1	1	331.116	0.753508	0.753971	2.04832	2	0.385932	11	-0.992546	0.00154437	1.74652
2	1	0	1	1	332.216	0.764511	0.764811	2.39788	2	0.388378	11	-0.997534	0.00183392	1.76235
2	1	0	1	1	333.316	0.775515	0.775859	2.76712	2	0.391221	11	-1.00242	0.0021469	1.77828
2	1	0	1	1	334.417	0.78652	0.786489	3.15165	2	0.394479	11	-1.00686	0.00247874	1.79334
2	1	0	0	1	335.517	0.797523	0.798307	3.54944	2	0.398169	11	-1.01106	0.00283354	1.80936
2	1	0	0	1	336.617	0.808527	0.808793	3.9586	2	0.402302	11	-1.01502	0.00320169	1.82382
2	1	0	0	1	337.718	0.819531	0.819926	4.37707	2	0.406891	11	-1.0187	0.00358887	1.83862
2	1	0	0	1	338.818	0.830535	0.83101	4.80205	2	0.411945	11	-1.02209	0.00399055	1.8531
2	1	0	0	1	339.919	0.841539	0.842267	5.23462	2	0.41747	11	-1.02528	0.00440895	1.86755
2	1	0	0	1	341.019	0.852543	0.852995	5.67268	2	0.423475	11	-1.02853	0.00483877	1.88152
2	1	0	0	1	342.119	0.863546	0.8641	6.11796	2	0.429966	11	-1.03151	0.00528653	1.89561
2	1	0	0	1	343.22	0.87455	0.875269	6.56761	2	0.43695	11	-1.03443	0.00574842	1.9097
2	1	0	0	1	344.32	0.885554	0.88608	7.02114	2	0.444431	11	-1.03721	0.00622129	1.92329
2	1	0	0	1	345.421	0.896558	0.897036	7.47733	2	0.452411	11	-1.03997	0.00670743	1.93701
2	1	0	0	1	346.521	0.907562	0.907743	7.9364	2	0.460896	11	-1.04259	0.00720421	1.95033
2	1	0	0	1	347.621	0.918566	0.919314	8.39634	2	0.469887	11	-1.0451	0.00771888	1.96441
2	1	0	0	1	348.722	0.92957	0.929985	8.86778	2	0.479389	11	-1.04763	0.0082469	1.97762
2	1	0	0	1	349.822	0.940574	0.941015	9.33462	2	0.489409	11	-1.05014	0.00878402	1.99115
2	1	0	0	1	350.923	0.951578	0.952328	9.81585	2	0.499952	11	-1.05267	0.00934791	2.005
2	1	0	1	1	352.023	0.962581	0.963349	10.2812	2	0.511014	11	-1.05504	0.00990441	2.01839
2	1	0	1	1	353.123	0.973585	0.974334	10.7492	2	0.522592	11	-1.05741	0.0104733	2.03174
2	1	0	1	1	354.254	0.984889	0.985248	11.2172	2	0.535013	10	-1.05981	0.0110517	2.04506
2	1	0	1	1	355.354	0.995893	0.996238	11.6755	2	0.54761	10	-1.06207	0.0116316	2.05831
2	1	0	0	1	356.325	0.994493	0.994843	11.5942	2	0.55901	10	-1.06179	0.0115344	2.05663
2	1	0	0	1	357.425	0.983489	0.983622	11.1233	2	0.571508	10	-1.05946	0.0109411	2.04308
2	1	0	0	1	358.526	0.972485	0.972821	10.6196	2	0.58347	10	-1.05713	0.010331	2.02995
2	1	0	0	1	359.626	0.961481	0.962169	10.1211	2	0.594878	10	-1.05472	0.00973824	2.01689
2	1	0	0	1	360.727	0.950477	0.950934	9.62619	2	0.605742	10	-1.05244	0.00915386	2.00337
2	1	0	1	1	361.827	0.939474	0.939847	9.16638	2	0.616083	10	-1.05007	0.00861499	1.98992
2	1	0	1	1	362.927	0.928469	0.928769	8.68629	2	0.625905	10	-1.04751	0.00806755	1.97628
2	1	0	1	1	364.028	0.917465	0.917719	8.21379	2	0.635203	10	-1.04496	0.00753795	1.96268
2	1	0	1	1	365.128	0.906462	0.906966	7.74529	2	0.643982	10	-1.04222	0.00702472	1.94918
2	1	0	1	1	366.228	0.895458	0.895894	7.28551	2	0.652249	10	-1.03952	0.00652705	1.93541
2	1	0	1	1	367.329	0.884454	0.884834	6.83782	2	0.660022	10	-1.03673	0.00605034	1.92156
2	1	0	1	1	368.429	0.87345	0.873879	6.39228	2	0.667301	10	-1.03387	0.00558608	1.90775
2	1	0	1	1	369.53	0.862446	0.862723	5.9582	2	0.674092	10	-1.03076	0.00514028	1.89349
2	1	0	1	1	370.63	0.851442	0.85177	5.52601	2	0.68041	10	-1.02777	0.00470689	1.87954
2	1	0	1	1	371.73	0.840438	0.840862	5.10217	2	0.686256	10	-1.02456	0.00429022	1.86542
2	1	0	1	1	372.831	0.829435	0.830095	4.68872	2	0.691641	10	-1.02124	0.00389208	1.85134
2	1	0	1	1	373.961	0.81813	0.818938	4.28913	2	0.696713	11	-1.0177	0.00351253	1.83664
2	1	0	1	1	375.062	0.807127	0.807645	3.90094	2	0.701214	11	-1.01407	0.00315057	1.82172
2	1	0	1	1	376.162	0.796123	0.796744	3.52159	2	0.705297	11	-1.01032	0.0028058	1.80706
2	1	0	1	1	377.262	0.785119	0.785237	3.15493	2	0.708968	11	-1.00648	0.00247737	1.79172
2	1	0	1	1	378.363	0.774115	0.774226	2.80008	2	0.712242	11	-1.00232	0.00216789	1.77654
2	1	0	1	1	379.463	0.763111	0.763457	2.45828	2	0.715132	11	-0.997928	0.00187679	1.76138
2	1	0	1	1	380.564	0.752107	0.752475	2.133	2	0.717655	11	-0.993455	0.00160503	1.74593
2	1	0	1	1	381.664	0.741103	0.741541	1.82672	2	0.719829	11	-0.988441	0.00135459	1.72998
2	1	0	1	1	382.764	0.7301	0.730666	1.54061	2	0.721677	11	-0.983433	0.00112567	1.7141
2	1	0	1	1	383.865	0.719095	0.71938	1.2786	2	0.723224	11	-0.978234	0.000919801	1.69761
2	1	0	1	1	384.965	0.708091	0.708502	1.04086	2	0.724495	11	-0.972808	0.000737449	1.68131
2	1	0	0	1	386.065	0.697088	0.697388	0.832331	2	0.72552	11	-0.967313	0.000580458	1.6647
2	1	0	0	1	387.166	0.686084	0.686871	0.649245	2	0.72633	11	-0.961694	0.000445947	1.64857
2	1	0	0	1	388.266	0.67508	0.675557	0.49473	2	0.726954	11	-0.956454	0.000334219	1.63201
2	1	0	0	1	389.397	0.663776	0.664541	0.369158	2	0.727438	12	-0.951202	0.000245321	1.61574
2	1	0	0	1	390.497	0.652772	0.653054	0.270389	2	0.727785	12	-0.946475	0.000176579	1.59953
2	1	0	0	1	391.597	0.641768	0.642023	0.193371	2	0.728037	12	-0.942079	0.000124149	1.5841
2	1	0	0	1	392.698	0.630764	0.631297	0.134047	2	0.728214	12	-0.938313	8.46236e-05	1.56961
2	1	0	0	1	393.798	0.619761	0.620387	0.0889552	2	0.728334	12	-0.935057	5.51867e-05	1.55544
2	1	0	0	1	394.899	0.608757	0.609392	0.0547327	2	0.728411	12	-0.931974	3.33537e-05	1.54137
2	0	0	0	1	395.999	0.597753	0.598272	0.0286174	2	0.728455	12	-0.929414	1.7121e-05	1.52769
2	0	0	0	1	397.099	0.586749	0.587658	0.00877208	2	0.728474	12	-0.927329	5.15499e-06	1.51499
2	0	0	0	1	398.2	0.575745	0.576447	-0.00614996	2	0.728474	12	-0.925464	-3.54513e-06	1.50191
2	0	0	0	1	399.3	0.564741	0.565264	-0.0172678	2	0.728459	12	-0.92375	-9.76085e-06	1.48901
2	0	0	0	1	400.401	0.553737	0.554198	-0.0256053	2	0.728434	12	-0.922378	-1.41904e-05	1.47658
2	0	0	0	1	401.501	0.542733	0.542969	-0.0314159	2	0.7284	12	-0.921013	-1.70579e-05	1.46398
2	0	0	1	1	402.601	0.53173	0.532085	-0.0354797	2	0.728362	12	-0.920055	-1.88782e-05	1.45214
2	0	0	1	1	403.702	0.520726	0.521116	-0.0381161	2	0.728319	12	-0.919223	-1.98629e-05	1.44034
2	0	0	1	1	404.802	0.509721	0.51013	-0.0394323	2	0.728274	12	-0.918493	-2.01156e-05	1.42862
2	0	0	1	1	405.902	0.498718	0.498668	-0.040282	2	0.728227	12	-0.917777	-2.00874e-05	1.41645
2	0	0	1	1	407.003	0.487714	0.488146	-0.0406082	2	0.72818	12	-0.917233	-1.98227e-05	1.40538
2	0	0	1	1	408.103	0.47671	0.47702	-0.0405619	2	0.728133	12	-0.916757	-1.93489e-05	1.39378
2	0	0	1	1	409.204	0.465706	0.466287	-0.0401933	2	0.728087	12	-0.9163	-1.87416e-05	1.38259
2	0	0	1	1	410.304	0.454702	0.455483	-0.0395428	2	0.728041	12	-0.916013	-1.8011e-05	1.3715
2	0	0	1	1	411.404	0.443698	0.444228	-0.0387865	2	0.727997	12	-0.915656	-1.72301e-05	1.35988
2	0	0	1	1	412.505	0.432694	0.433118	-0.0378632	2	0.727953	12	-0.915413	-1.63992e-05	1.34853
2	0	0	1	1	413.605	0.421691	0.421959	-0.0369553	2	0.727911	12	-0.915118	-1.55936e-05	1.33708
2	0	0	1	1	414.706	0.410687	0.410944	-0.0359224	2	0.727871	12	-0.914971	-1.47621e-05	1.32592
2	0	0	1	1	415.806	0.399683	0.400272	-0.0348028	2	0.727831	12	-0.91477	-1.39306e-05	1.31504
2	0	0	1	1	416.906	0.388679	0.38942	-0.033598	2	0.727793	12	-0.914677	-1.30837e-05	1.3041
2	0	0	1	1	418.007	0.377675	0.378395	-0.0324709	2	0.727757	12	-0.91441	-1.22868e-05	1.29281
2	0	0	1	1	419.107	0.366671	0.367043	-0.0314693	2	0.727722	12	-0.914331	-1.15506e-05	1.28137
2	0	0	1	1	420.208	0.355667	0.356133	-0.030468	2	0.727688	12	-0.914189	-1.08507e-05	1.27032
2	0	0	1	1	421.308	0.344663	0.344652	-0.029437	2	0.727655	12	-0.91401	-1.01455e-05	1.25866
2	0	0	1	1	422.408	0.33366	0.334156	-0.0285992	2	0.727623	12	-0.913934	-9.55659e-06	1.24809
2	0	0	1	1	423.509	0.322656	0.32328	-0.0278368	2	0.727593	12	-0.913882	-8.99908e-06	1.23716
2	0	0	1	1	424.609	0.311651	0.312041	-0.0271237	2	0.727563	12	-0.913826	-8.46371e-06	1.22587
2	0	0	0	1	425.709	0.300648	0.30097	-0.0263049	2	0.727534	12	-0.913598	-7.91701e-06	1.21457
2	0	0	0	1	426.81	0.289644	0.289959	-0.0254704	2	0.727507	12	-0.91365	-7.38538e-06	1.20361
2	0	0	0	1	427.91	0.27864	0.279126	-0.024644	2	0.72748	12	-0.913525	-6.87879e-06	1.19265
2	0	0	0	1	429.011	0.267636	0.268064	-0.0237827	2	0.727454	12	-0.913576	-6.37528e-06	1.18164
2	0	0	0	1	430.111	0.256632	0.256522	-0.0229134	2	0.727428	12	-0.913431	-5.87778e-06	1.16995
2	0	0	0	1	431.211	0.245628	0.246039	-0.0220955	2	0.727404	12	-0.913343	-5.43635e-06	1.15938
2	0	0	0	1	432.312	0.234625	0.234814	-0.0210512	2	0.727379	12	-0.913269	-4.94311e-06	1.14808
2	0	0	0	1	433.412	0.223621	0.223573	-0.0201951	2	0.727356	12	-0.913251	-4.51509e-06	1.13682
2	0	0	0	1	434.513	0.212617	0.213472	-0.0192633	2	0.727333	12	-0.913134	-4.11218e-06	1.12661
2	0	0	0	1	435.613	0.201613	0.201911	-0.0182837	2	0.727311	12	-0.912971	-3.69168e-06	1.11488
2	0	0	0	1	436.713	0.190609	0.191213	-0.0175922	2	0.727289	12	-0.91306	-3.36386e-06	1.10427
2	0	0	0	1	437.814	0.179605	0.180133	-0.0172429	2	0.727267	12	-0.912923	-3.10601e-06	1.09306
2	0	0	0	1	438.914	0.168601	0.169074	-0.0171478	2	0.727246	12	-0.912796	-2.89924e-06	1.08187
2	0	0	0	1	440.015	0.157597	0.158341	-0.0170298	2	0.727226	12	-0.912769	-2.69653e-06	1.07111
2	0	0	0	1	441.115	0.146593	0.146984	-0.0169081	2	0.727205	12	-0.912683	-2.48523e-06	1.05967
2	0	0	1	1	442.215	0.13559	0.135846	-0.0170618	2	0.727185	12	-0.912702	-2.31779e-06	1.04855
2	0	0	1	1	443.316	0.124585	0.124981	-0.0171491	2	0.727165	12	-0.912519	-2.14331e-06	1.0375
2	0	0	1	1	444.416	0.113582	0.114391	-0.0169111	2	0.727145	12	-0.912481	-1.93448e-06	1.02687
2	0	0	1	1	445.516	0.102578	0.103228	-0.0164979	2	0.727126	12	-0.912392	-1.70304e-06	1.01562
2	0	0	1	1	446.617	0.0915741	0.0923025	-0.016134	2	0.727107	12	-0.912431	-1.4892e-06	1.00473
2	0	0	1	1	447.717	0.0805702	0.0814175	-0.0157712	2	0.727089	12	-0.912304	-1.28405e-06	0.993721
2	0	0	1	1	448.818	0.0695663	0.069985	-0.0155346	2	0.727071	12	-0.912284	-1.08719e-06	0.982269
2	0	0	1	1	449.918	0.0585624	0.0595042	-0.015322	2	0.727053	12	-0.912268	-9.11723e-07	0.971773
2	0	0	1	1	451.018	0.0475585	0.0476399	-0.0150984	2	0.727036	12	-0.912211	-7.19288e-07	0.95985
2	0	0	1	1	452.119	0.0365547	0.0369554	-0.0148741	2	0.727018	12	-0.912151	-5.49677e-07	0.949106
2	0	0	1	1	453.219	0.0255508	0.0257797	-0.0146734	2	0.727001	12	-0.912096	-3.78277e-07	0.937876
2	0	0	1	1	454.32	0.0145469	0.0149011	-0.0145131	2	0.726984	12	-0.912034	-2.16261e-07	0.926935
2	0	0	1	1	455.42	0.00354301	0.00365002	-0.0143692	2	0.726968	12	-0.911949	-5.24478e-08	0.915599
2	0	0	1	0	456.431	0.00654407	0.0070057	-0.0135187	2	0.726953	12	-0.912014	-9.47079e-08	0.91902
2	0	0	1	0	457.531	0.0175479	0.0178218	-0.0127449	2	0.726938	12	-0.912119	-2.27137e-07	0.929941
2	0	0	1	0	458.632	0.0285518	0.029076	-0.0122093	2	0.726924	12	-0.912123	-3.54996e-07	0.941199
2	0	0	1	0	459.732	0.0395553	0.0398597	-0.0117969	2	0.72691	12	-0.912142	-4.70221e-07	0.952001
2	0	0	1	0	460.832	0.0505598	0.0517937	-0.0114033	2	0.726897	12	-0.912161	-5.90618e-07	0.963954
2	0	0	1	0	461.933	0.0615644	0.0622558	-0.0111367	2	0.726885	12	-0.912175	-6.93322e-07	0.974431
2	0	0	0	0	463.033	0.0725674	0.0731232	-0.0110881	2	0.726873	12	-0.912144	-8.10798e-07	0.985267
2	0	0	0	0	464.133	0.0835712	0.0840316	-0.0109253	2	0.726861	12	-0.91212	-9.18072e-07	0.996151
2	0	0	0	0	465.234	0.0945751	0.0947288	-0.0107001	2	0.72685	12	-0.9122	-1.01361e-06	1.00693
2	0	0	0	0	466.334	0.105579	0.106222	-0.0105764	2	0.726839	12	-0.912106	-1.12344e-06	1.01833
2	0	0	0	0	467.435	0.116583	0.116761	-0.0104072	2	0.726828	12	-0.91213	-1.21515e-06	1.02889
2	0	0	0	0	468.535	0.127587	0.127748	-0.0102294	2	0.726818	12	-0.912099	-1.30679e-06	1.03985
2	0	0	0	0	469.635	0.138591	0.139114	-0.0101368	2	0.726808	12	-0.912037	-1.41017e-06	1.05115
2	0	0	0	0	470.736	0.149595	0.149775	-0.00983246	2	0.726799	12	-0.912085	-1.47265e-06	1.06186
2	1	0	0	0	471.836	0.160598	0.160653	-0.00904071	2	0.72679	12	-0.912102	-1.45242e-06	1.07276
2	1	0	0	0	472.937	0.171602	0.172118	-0.00829071	2	0.726781	12	-0.912208	-1.42698e-06	1.08433
2	0	0	0	0	474.037	0.182606	0.18272	-0.00773131	2	0.726773	12	-0.912105	-1.41267e-06	1.09483
2	0	0	0	0	475.137	0.19361	0.193639	-0.00705979	2	0.726764	12	-0.912123	-1.36705e-06	1.10576
2	1	0	0	0	476.238	0.204614	0.205378	-0.00656396	2	0.726756	12	-0.912139	-1.3481e-06	1.11752
2	0	0	0	0	477.338	0.215618	0.216072	-0.00626724	2	0.726748	12	-0.912098	-1.35418e-06	1.12817
2	1	0	1	0	478.438	0.226621	0.22716	-0.00587222	2	0.726741	12	-0.912166	-1.33393e-06	1.13933
2	0	0	1	0	479.504	0.237276	0.238341	-0.00670645	2	0.726734	12	-0.911947	-1.59842e-06	1.15029
2	0	0	1	0	480.479	0.247029	0.247135	-0.00538057	3	0.726728	12	-0.912157	-1.32973e-06	1.15929
2	0	0	1	0	481.58	0.258033	0.258178	-0.00505763	3	0.726721	12	-0.912178	-1.30577e-06	1.17036
2	0	0	1	0	482.68	0.269037	0.269175	-0.00475855	3	0.726715	12	-0.912274	-1.28088e-06	1.18145
2	0	0	1	0	483.78	0.280041	0.280196	-0.00445361	3	0.726709	12	-0.912373	-1.24789e-06	1.19257
2	0	0	1	0	484.881	0.291044	0.291343	-0.00415411	3	0.726704	12	-0.912252	-1.21027e-06	1.20359
2	0	0	1	0	485.981	0.302048	0.302272	-0.00386754	3	0.726698	12	-0.912287	-1.16905e-06	1.21456
2	0	0	1	0	487.082	0.313052	0.31323	-0.00362781	3	0.726694	12	-0.912186	-1.13634e-06	1.22542
2	0	0	1	0	488.182	0.324056	0.32464	-0.00327962	3	0.726689	12	-0.912314	-1.0647e-06	1.23695
2	0	0	1	0	489.282	0.33506	0.335458	-0.00293203	3	0.726685	12	-0.912289	-9.83571e-07	1.24775
2	0	0	1	0	490.383	0.346064	0.346542	-0.0025835	3	0.726681	12	-0.912404	-8.95292e-07	1.25895
2	0	0	1	0	491.483	0.357068	0.357516	-0.00224131	3	0.726678	12	-0.912427	-8.01305e-07	1.26994
2	0	0	1	0	492.583	0.368071	0.368439	-0.00193894	3	0.726676	12	-0.912557	-7.1438e-07	1.281
2	0	0	1	0	493.684	0.379076	0.379765	-0.00160959	3	0.726673	12	-0.912568	-6.11268e-07	1.29233
2	0	0	1	0	494.784	0.39008	0.390121	-0.00114873	3	0.726672	12	-0.912603	-4.48142e-07	1.30272
2	0	0	0	0	495.885	0.401083	0.40138	-0.000484431	3	0.726671	12	-0.912694	-1.94441e-07	1.31407
2	0	0	0	0	496.985	0.412087	0.412478	0.000288209	3	0.726671	12	-0.912837	1.1888e-07	1.32532
2	0	0	0	0	498.085	0.423091	0.423186	0.00122397	3	0.726672	12	-0.913065	5.17968e-07	1.33625
2	0	0	0	0	499.186	0.434095	0.434467	0.00233901	3	0.726674	12	-0.913041	1.01622e-06	1.34751
2	1	0	0	0	500.286	0.445099	0.445658	0.00359	3	0.726677	12	-0.913352	1.59991e-06	1.35901
2	1	0	0	0	501.387	0.456103	0.45636	0.0050627	3	0.726681	12	-0.913566	2.31041e-06	1.36993
2	1	0	0	0	502.487	0.467107	0.467354	0.00677576	3	0.726687	12	-0.913729	3.16668e-06	1.38108
2	0	0	0	0	503.587	0.47811	0.478594	0.00869807	3	0.726695	12	-0.914122	4.16284e-06	1.39272
2	0	0	0	0	504.688	0.489114	0.48949	0.010754	3	0.726704	12	-0.914389	5.26399e-06	1.40388
2	0	0	0	0	505.788	0.500118	0.500414	0.0129851	3	0.726717	12	-0.91492	6.49794e-06	1.41533
2	0	0	0	0	506.889	0.511122	0.511373	0.0156716	3	0.726732	12	-0.91535	8.01404e-06	1.42672
2	0	0	0	0	507.989	0.522126	0.523031	0.0187875	3	0.726751	12	-0.915929	9.82646e-06	1.43896
2	0	0	0	0	509.089	0.53313	0.533467	0.0225327	3	0.726775	12	-0.916738	1.20205e-05	1.45021
2	1	0	0	0	510.19	0.544134	0.544654	0.0272015	3	0.726804	12	-0.91749	1.48154e-05	1.46214
2	1	0	0	0	511.29	0.555138	0.554854	0.0331798	3	0.726839	12	-0.918557	1.841e-05	1.47341
2	1	0	1	0	512.39	0.566141	0.566134	0.0411173	3	0.726882	12	-0.919799	2.32779e-05	1.48593
2	1	0	1	0	513.491	0.577146	0.577264	0.05037	3	0.726934	12	-0.921099	2.90768e-05	1.49836
2	1	0	1	0	514.591	0.58815	0.588589	0.0615702	3	0.726997	12	-0.922515	3.62395e-05	1.5111
2	1	0	1	0	515.692	0.599153	0.599693	0.0745606	3	0.727073	12	-0.924497	4.47135e-05	1.52419
2	1	0	1	0	516.792	0.610157	0.610687	0.0902225	3	0.727163	12	-0.926424	5.50977e-05	1.53711
2	1	0	1	0	517.892	0.621161	0.621665	0.10889	3	0.727272	12	-0.928727	6.7693e-05	1.55039
2	1	0	1	0	518.993	0.632165	0.63281	0.13172	3	0.727404	12	-0.93133	8.33534e-05	1.56414
2	1	0	1	0	520.093	0.643169	0.643365	0.161577	3	0.727565	12	-0.934383	0.000103953	1.57775
2	1	0	1	0	521.194	0.654173	0.654884	0.201385	3	0.727765	12	-0.938085	0.000131884	1.59297
2	1	0	1	0	522.294	0.665176	0.665525	0.255484	3	0.728017	12	-0.942323	0.000170031	1.60785
2	1	0	1	0	523.394	0.67618	0.676436	0.329554	3	0.728339	12	-0.947361	0.000222922	1.6238
2	1	0	1	0	524.495	0.687184	0.687889	0.429306	3	0.728756	12	-0.952986	0.000295315	1.64088
2	1	0	1	0	525.595	0.698188	0.698805	0.560388	3	0.729301	12	-0.959125	0.000391602	1.65793
2	1	0	1	0	526.696	0.709192	0.709702	0.726593	3	0.730009	12	-0.965478	0.000515664	1.67518
2	1	0	1	0	527.796	0.720196	0.720939	0.928601	3	0.73092	12	-0.971999	0.000669465	1.69294
2	1	0	1	0	528.926	0.7315	0.731824	1.17147	3	0.732109	11	-0.978438	0.000857308	1.71026
2	1	0	1	0	530.027	0.742504	0.743007	1.43963	3	0.733546	11	-0.984606	0.00106965	1.72761
2	1	0	1	0	531.127	0.753508	0.753983	1.7352	3	0.735293	11	-0.990278	0.00130831	1.74426
2	1	0	1	0	532.227	0.764511	0.764811	2.05395	3	0.737378	11	-0.995765	0.00157089	1.76058
2	1	0	1	0	533.328	0.775515	0.776038	2.39287	3	0.739826	11	-1.00083	0.00185696	1.77687
2	1	0	1	0	534.428	0.78652	0.78685	2.74903	3	0.742657	11	-1.00559	0.00216307	1.79244
2	1	0	0	0	535.529	0.797523	0.79788	3.12009	3	0.745887	11	-1.01005	0.00248946	1.80793
2	1	0	0	0	536.629	0.808527	0.808928	3.50369	3	0.749532	11	-1.01438	0.00283423	1.82331
2	1	0	0	0	537.729	0.819531	0.820198	3.89765	3	0.753605	11	-1.0182	0.00319685	1.8384
2	1	0	0	0	538.83	0.830535	0.83107	4.30126	3	0.758117	11	-1.02195	0.00357465	1.85302
2	1	0	0	0	539.93	0.841539	0.842008	4.71341	3	0.763078	11	-1.02542	0.00396873	1.86743
2	1	0	0	0	541.031	0.852543	0.853067	5.13315	3	0.768496	11	-1.02887	0.00437892	1.88193
2	1	0	0	0	542.131	0.863546	0.863792	5.55939	3	0.774379	11	-1.03223	0.00480216	1.89602
2	1	0	0	0	543.231	0.87455	0.875254	5.99081	3	0.780735	11	-1.03522	0.00524348	1.91047
2	1	0	0	0	544.332	0.885554	0.886066	6.43307	3	0.78757	11	-1.03822	0.00570012	1.92429
2	1	0	0	0	545.432	0.896558	0.897235	6.88375	3	0.794899	11	-1.04123	0.00617634	1.93847
2	1	0	0	0	546.533	0.907562	0.908136	7.32885	3	0.802719	11	-1.04409	0.00665559	1.95223
2	1	0	0	0	547.633	0.918566	0.919512	7.77604	3	0.81103	11	-1.04688	0.00715017	1.96639
2	1	0	0	0	548.733	0.92957	0.930017	8.22676	3	0.819835	11	-1.04949	0.00765103	1.97951
2	1	0	0	0	549.834	0.940574	0.941189	8.69247	3	0.829146	11	-1.05213	0.00818125	1.99332
2	1	0	0	0	550.934	0.951578	0.951831	9.15286	3	0.838966	11	-1.05484	0.00871198	2.00667
2	1	0	1	0	552.034	0.962581	0.962349	9.6094	3	0.849289	11	-1.05737	0.00924759	2.01972
2	1	0	1	0	553.135	0.973585	0.97406	10.0714	3	0.860118	11	-1.0599	0.00981017	2.03396
2	1	0	1	0	554.235	0.98459	0.98489	10.5526	3	0.871464	11	-1.06245	0.0103932	2.04734
2	1	0	1	0	555.366	0.995893	0.996286	11.0148	3	0.883659	10	-1.06498	0.0109738	2.06127
2	1	0	0	0	556.337	0.994493	0.995021	10.938	3	0.894414	10	-1.06455	0.0108836	2.05957
2	1	0	0	0	557.437	0.983489	0.983869	10.4594	3	0.90618	10	-1.06214	0.0102907	2.04601
2	1	0	0	0	558.537	0.972485	0.972973	9.97297	3	0.917418	10	-1.0597	0.00970343	2.03268
2	1	0	0	0	559.638	0.961481	0.961908	9.48906	3	0.928126	10	-1.05728	0.0091276	2.01918
2	1	0	0	0	560.738	0.950477	0.951323	9.0043	3	0.9383	10	-1.05478	0.008566	2.0061
2	1	0	1	0	561.838	0.939474	0.940134	8.52821	3	0.947944	10	-1.05217	0.00801765	1.9923
2	1	0	1	0	562.939	0.928469	0.929064	8.05669	3	0.957068	10	-1.04947	0.00748518	1.97854
2	1	0	1	0	564.039	0.917465	0.918222	7.60649	3	0.965681	10	-1.04682	0.00698445	1.96504
2	1	0	1	0	565.14	0.906462	0.906735	7.15452	3	0.973799	10	-1.04401	0.00648725	1.95075
2	1	0	1	0	566.24	0.895458	0.895824	6.70929	3	0.981424	10	-1.04098	0.00601034	1.9368
2	1	0	1	0	567.34	0.884454	0.884995	6.2808	3	0.988564	10	-1.03823	0.00555848	1.92322
2	1	0	1	0	568.441	0.87345	0.873742	5.84964	3	0.995236	10	-1.0351	0.00511107	1.90884
2	1	0	1	0	569.541	0.862446	0.862849	5.42899	3	1.00144	10	-1.03202	0.0046844	1.89487
2	1	0	1	0	570.642	0.851442	0.851762	5.01149	3	1.00718	10	-1.02856	0.00426859	1.88032
2	1	0	1	0	571.742	0.840438	0.841053	4.60795	3	1.01247	10	-1.02517	0.00387553	1.86623
2	1	0	1	0	572.872	0.829134	0.828463	4.20611	3	1.01745	11	-1.02147	0.00348461	1.84994
2	1	0	1	0	573.973	0.81813	0.818601	3.82714	3	1.02186	11	-1.01775	0.0031329	1.83635
2	1	0	1	0	575.073	0.807127	0.807375	3.45044	3	1.02586	11	-1.01382	0.0027858	1.8212
2	1	0	1	0	576.174	0.796123	0.797427	3.08764	3	1.02945	11	-1.00989	0.00246217	1.80732
2	1	0	1	0	577.274	0.785119	0.785518	2.73969	3	1.03266	11	-1.00542	0.00215208	1.79094
2	1	0	1	0	578.374	0.774115	0.774663	2.40338	3	1.03548	11	-1.00089	0.00186181	1.77556
2	1	0	1	0	579.475	0.763111	0.763181	2.08463	3	1.03794	11	-0.996174	0.00159095	1.75936
2	1	0	1	0	580.575	0.752107	0.75216	1.78426	3	1.04007	11	-0.991168	0.00134205	1.74333
2	1	0	1	0	581.676	0.741103	0.741395	1.50372	3	1.04187	11	-0.985939	0.00111485	1.72733
2	1	0	1	0	582.776	0.7301	0.730272	1.24383	3	1.04338	11	-0.980575	0.000908336	1.71085
2	1	0	1	0	583.876	0.719095	0.719469	1.00847	3	1.04462	11	-0.974759	0.000725564	1.69423
2	1	0	1	0	584.977	0.708091	0.708673	0.799673	3	1.04561	11	-0.968874	0.000566707	1.67755
2	1	0	0	0	586.077	0.697088	0.697604	0.618442	3	1.04638	11	-0.962959	0.000431428	1.66056
2	1	0	0	0	587.177	0.686084	0.686256	0.466058	3	1.04698	11	-0.957068	0.000319835	1.64332
2	1	0	0	0	588.308	0.67478	0.67476	0.339968	3	1.04743	12	-0.951346	0.000229397	1.62611
2	1	0	0	0	589.408	0.663776	0.664329	0.244159	3	1.04775	12	-0.946263	0.000162202	1.61059
2	1	0	0	0	590.509	0.652772	0.653119	0.17175	3	1.04798	12	-0.941763	0.000112173	1.59488
2	1	0	0	0	591.609	0.641768	0.642565	0.118322	3	1.04813	12	-0.937956	7.60297e-05	1.58052
2	1	0	0	0	592.709	0.630764	0.631164	0.0793477	3	1.04824	12	-0.934646	5.00814e-05	1.56581
2	1	0	0	0	593.81	0.619761	0.619816	0.0511655	3	1.04831	12	-0.931811	3.17132e-05	1.55163
2	1	0	0	0	594.91	0.608757	0.608978	0.030632	3	1.04836	12	-0.929596	1.86542e-05	1.53857
2	1	0	0	0	596.011	0.597753	0.598313	0.0154664	3	1.04838	12	-0.92759	9.25374e-06	1.5259
2	1	0	0	0	597.111	0.586749	0.587303	0.0042563	3	1.04839	12	-0.9259	2.49974e-06	1.5132
2	1	0	0	0	598.211	0.575745	0.5761	-0.0040325	3	1.04839	12	-0.924561	-2.32313e-06	1.50066
2	1	0	0	0	599.312	0.564741	0.565103	-0.0102969	3	1.04838	12	-0.923252	-5.81881e-06	1.48836
2	1	0	0	0	600.412	0.553737	0.554168	-0.014924	3	1.04836	12	-0.922143	-8.27041e-06	1.47631
2	0	0	0	0	601.513	0.542733	0.54327	-0.0183107	3	1.04834	12	-0.92121	-9.94766e-06	1.46448
2	0	0	1	0	602.613	0.53173	0.532206	-0.0207734	3	1.04832	12	-0.920442	-1.10557e-05	1.45265
2	0	0	1	0	603.713	0.520726	0.521317	-0.0225869	3	1.04829	12	-0.919626	-1.17749e-05	1.44094
2	0	0	1	0	604.814	0.509721	0.510333	-0.023659	3	1.04826	12	-0.919023	-1.2074e-05	1.42936
2	0	0	1	0	605.914	0.498718	0.499046	-0.0243973	3	1.04823	12	-0.91848	-1.21754e-05	1.41753
2	0	0	1	0	607.014	0.487714	0.488077	-0.0249654	3	1.04821	12	-0.918026	-1.21851e-05	1.4061
2	0	0	1	0	608.115	0.47671	0.477422	-0.0254349	3	1.04818	12	-0.917563	-1.21432e-05	1.39499
2	0	0	1	0	609.215	0.465706	0.466232	-0.0256248	3	1.04815	12	-0.917097	-1.19471e-05	1.38333
2	0	0	1	0	610.316	0.454702	0.45528	-0.0256876	3	1.04812	12	-0.916759	-1.1695e-05	1.37204
2	0	0	1	0	611.416	0.443698	0.443873	-0.0252699	3	1.04809	12	-0.916451	-1.12166e-05	1.36032
2	0	0	1	0	612.516	0.432694	0.433053	-0.0240044	3	1.04807	12	-0.916226	-1.03952e-05	1.34928
2	0	0	1	0	613.617	0.421691	0.42267	-0.0228145	3	1.04804	12	-0.915962	-9.643e-06	1.33863
2	0	0	1	0	614.717	0.410687	0.410894	-0.0214076	3	1.04801	12	-0.915727	-8.79626e-06	1.32662
2	0	0	1	0	615.818	0.399683	0.400533	-0.0201284	3	1.04799	12	-0.915532	-8.06209e-06	1.31606
2	0	0	1	0	616.918	0.388679	0.38912	-0.0189361	3	1.04797	12	-0.915339	-7.36843e-06	1.30446
2	0	0	1	0	618.018	0.377675	0.37815	-0.0183601	3	1.04794	12	-0.915243	-6.94287e-06	1.29339
2	0	0	1	0	619.119	0.366671	0.366675	-0.0185746	3	1.04792	12	-0.914933	-6.81083e-06	1.28161
2	0	0	1	0	620.219	0.355667	0.356241	-0.0188084	3	1.0479	12	-0.914754	-6.70033e-06	1.271
2	0	0	1	0	621.32	0.344663	0.344781	-0.0188923	3	1.04788	12	-0.914586	-6.51371e-06	1.25937
2	0	0	1	0	622.42	0.33366	0.333161	-0.0187513	3	1.04786	12	-0.914371	-6.24721e-06	1.24753
2	0	0	1	0	623.52	0.322656	0.32287	-0.0178622	3	1.04784	12	-0.914306	-5.76717e-06	1.23718
2	0	0	1	0	624.621	0.311651	0.312618	-0.0168375	3	1.04782	12	-0.914148	-5.2637e-06	1.22677
2	0	0	0	0	625.721	0.300648	0.300655	-0.0157306	3	1.0478	12	-0.914133	-4.72949e-06	1.21479
2	0	0	0	0	626.821	0.289644	0.29037	-0.0148966	3	1.04778	12	-0.913898	-4.32553e-06	1.20427
2	0	0	0	0	627.922	0.27864	0.279055	-0.0141864	3	1.04777	12	-0.913748	-3.95879e-06	1.1928
2	0	0	0	0	629.022	0.267636	0.26856	-0.0142505	3	1.04775	12	-0.913636	-3.82712e-06	1.1822
2	0	0	0	0	630.123	0.256632	0.257084	-0.0145011	3	1.04773	12	-0.913552	-3.72802e-06	1.17064
2	0	0	0	0	631.223	0.245628	0.246052	-0.014827	3	1.04772	12	-0.913279	-3.64821e-06	1.15933
2	0	0	0	0	632.323	0.234625	0.234632	-0.0148705	3	1.0477	12	-0.913244	-3.48909e-06	1.14788
2	0	0	0	0	633.424	0.223621	0.224072	-0.0148396	3	1.04768	12	-0.91312	-3.32514e-06	1.13719
0	0	0	0	0	0.000000000000000E+000	0.0000000E+000	0.0000000E+000	0.000000000000000E+000	0.000000000000000E+000	0.0000000E+000	0	0.0000000E+000	0.0000000E+000	0.0000000E+000
0	0	0	0	0	0.000000000000000E+000	0.0000000E+000	0.0000000E+000	0.000000000000000E+000	0.000000000000000E+000	0.0000000E+000	0	0.0000000E+000	0.0000000E+000	0.0000000E+000
2	0	0	0	0	636.725	0.190609	0.191485	-0.0134427	3	1.04764	12	-0.912775	-2.57407e-06	1.10426
2	0	0	0	0	637.825	0.179605	0.180156	-0.0129866	3	1.04762	12	-0.91271	-2.33962e-06	1.09287
2	1	0	0	0	638.926	0.168601	0.169232	-0.0125673	3	1.04761	12	-0.912602	-2.12678e-06	1.08183
2	1	0	0	0	640.026	0.157597	0.157759	-0.0121358	3	1.0476	12	-0.912547	-1.91453e-06	1.07031
2	1	0	0	0	641.127	0.146593	0.146912	-0.0117541	3	1.04758	12	-0.912472	-1.72682e-06	1.05938
2	1	0	1	0	642.227	0.13559	0.136393	-0.0113184	3	1.04757	12	-0.912398	-1.54375e-06	1.04879
2	1	0	1	0	643.327	0.124585	0.125006	-0.010824	3	1.04756	12	-0.912328	-1.35306e-06	1.03733
2	1	0	1	0	644.428	0.113582	0.114177	-0.0100827	3	1.04754	12	-0.912344	-1.15121e-06	1.02652
2	0	0	1	0	645.528	0.102578	0.102983	-0.00948687	3	1.04753	12	-0.912376	-9.76984e-07	1.01536
2	0	0	1	0	646.628	0.0915741	0.0919662	-0.0092369	3	1.04752	12	-0.912318	-8.49482e-07	1.00428
2	0	0	1	0	647.729	0.0805702	0.0813517	-0.00933357	3	1.04751	12	-0.91224	-7.59302e-07	0.993592
2	0	0	1	0	648.829	0.0695663	0.0702863	-0.00962956	3	1.0475	12	-0.91223	-6.76827e-07	0.982516
2	0	0	1	0	649.93	0.0585624	0.0592591	-0.00994037	3	1.04749	12	-0.912022	-5.89057e-07	0.971281
2	0	0	1	0	651.03	0.0475585	0.047362	-0.0100411	3	1.04748	12	-0.912001	-4.75567e-07	0.959363
2	0	0	1	0	652.13	0.0365547	0.0368165	-0.0100134	3	1.04747	12	-0.911858	-3.68658e-07	0.948674
2	0	0	1	0	653.231	0.0255508	0.0255877	-0.0100724	3	1.04745	12	-0.911838	-2.57729e-07	0.937425
2	0	0	1	0	654.331	0.0145469	0.0151811	-0.0101107	3	1.04744	12	-0.911903	-1.53492e-07	0.927084
2	0	0	1	0	655.432	0.00354301	0.00330098	-0.0100474	3	1.04743	12	-0.911774	-3.31664e-08	0.915075
2	0	0	1	1	656.442	0.00654407	0.00727836	-0.00902458	3	1.04742	12	-0.911778	-6.56841e-08	0.919057
2	0	0	1	1	657.543	0.0175479	0.0178228	-0.00836552	3	1.04742	12	-0.91185	-1.49097e-07	0.929673
2	0	0	1	1	658.643	0.0285518	0.0286856	-0.00790435	3	1.04741	12	-0.911802	-2.26741e-07	0.940487
2	0	0	1	1	659.743	0.0395553	0.0399672	-0.00750886	3	1.0474	12	-0.911842	-3.00108e-07	0.951809
2	0	0	1	1	660.844	0.0505598	0.0505388	-0.00729808	3	1.04739	12	-0.911765	-3.68836e-07	0.962304
2	0	0	1	1	661.944	0.0615644	0.0617755	-0.00713065	3	1.04738	12	-0.911829	-4.40499e-07	0.973605
2	0	0	0	1	663.045	0.0725674	0.0728124	-0.00684089	3	1.04738	12	-0.9118	-4.98102e-07	0.984613
2	0	0	0	1	664.145	0.0835712	0.0839976	-0.00643664	3	1.04737	12	-0.911759	-5.40662e-07	0.995757
2	0	0	0	1	665.245	0.0945751	0.0947278	-0.00607932	3	1.04736	12	-0.911787	-5.7588e-07	1.00651
2	0	0	0	1	666.346	0.105579	0.105299	-0.00576956	3	1.04736	12	-0.911802	-6.07527e-07	1.0171
2	0	0	0	1	667.446	0.116583	0.116865	-0.00555025	3	1.04735	12	-0.911861	-6.48629e-07	1.02873
2	0	0	0	1	668.547	0.127587	0.127204	-0.00524915	3	1.04735	12	-0.911876	-6.67711e-07	1.03908
2	0	0	0	1	669.647	0.138591	0.139481	-0.00504689	3	1.04734	12	-0.911774	-7.03943e-07	1.05125
2	0	0	0	1	670.747	0.149595	0.150399	-0.00481125	3	1.04734	12	-0.91172	-7.23609e-07	1.06212
2	0	0	0	1	671.848	0.160598	0.161113	-0.00456513	3	1.04733	12	-0.911843	-7.355e-07	1.07296
2	0	0	0	1	672.948	0.171602	0.172339	-0.00438839	3	1.04733	12	-0.911733	-7.56291e-07	1.08407
2	0	0	0	1	674.049	0.182606	0.182981	-0.00424012	3	1.04732	12	-0.911744	-7.75862e-07	1.09473
2	0	0	0	1	675.149	0.19361	0.194485	-0.00405568	3	1.04732	12	-0.911706	-7.88769e-07	1.10619
2	0	0	0	1	676.249	0.204614	0.205663	-0.00383538	3	1.04731	12	-0.911732	-7.88794e-07	1.11739
2	0	0	0	1	677.35	0.215618	0.216414	-0.00365829	3	1.04731	12	-0.911871	-7.91706e-07	1.12828
2	0	0	1	1	678.45	0.226621	0.226682	-0.00341698	3	1.0473	12	-0.911822	-7.74566e-07	1.1385
2	0	0	1	1	679.51	0.237226	0.238174	-0.003573	3	1.0473	12	-0.911872	-8.50995e-07	1.15005
2	0	0	0	1	679.519	0.237376	0.237515	-0.00969715	3	1.0473	12	-0.912009	-2.30322e-06	1.14952