File: Lares Oxides/2024-6-19 FeOx on FTO_1_03mg_03_CP_C05.mpt
EC-Lab ASCII FILE
Nb header lines : 57

Chronopotentiometry

Run on channel : 5 (SN 39658)
User :
CE vs. WE compliance from -10 V to 10 V
Electrode connection : standard
Potential control : Ewe
Ewe ctrl range : min = -2.50 V, max = 2.50 V
Safety Limits :
	Do not start on E overload
Acquisition started on : 06/19/2024 15:35:49.269
Technique started on : 06/19/2024 15:47:11.294
Loaded Setting File :  NONE
Saved on :
	File : 2024-6-19 FeOx on FTO_1_03mg_03_CP_C05.mpr
	Directory : C:\Users\sfolkman\OneDrive - New Mexico State University\Folkman Group Folder\Scott\
	Host : 172.24.124.15
Device : VSP (SN 1910)
Address : USB
EC-Lab for windows v11.46 (software)
Internet server v11.40 (firmware)
Command interpretor v11.40 (firmware)
Electrode material :
Initial state :
Electrolyte :
Comments :
Current amplifier : VSPB-4A
Electrode surface area : 0.001 cm²
Characteristic mass : 0.001 g
Equivalent Weight : 0.000 g/eq.
Density : 0.000 g/cm3
Volume (V) : 0.001 cm³
Cycle Definition : Charge/Discharge alternance
Is                  10.000
unit Is             mA
vs.                 <None>
ts (h:m:s)          48:00:0.0000
EM (V)              2.000
dQM                 480.000
unit dQM            mA.h
record              <Ewe>
dEs (mV)            0.00
dts (s)             2.0000
E range min (V)     -2.500
E range max (V)     2.500
I Range             10 mA
Bandwidth           4
goto Ns'            0
nc cycles           0

Modify on : 06/19/2024 15:40
EM (V)              5.000

mode	ox/red	error	control changes	Ns changes	counter inc.	Ns	time/s	control/mA	<Ewe>/V	I/mA	dQ/C	(Q-Qo)/C	half cycle	Q charge/discharge/mA.h	I Range	Energy charge/W.h	Energy discharge/W.h	Capacitance charge/µF	Capacitance discharge/µF	Q discharge/mA.h	Q charge/mA.h	Capacity/mA.h	Efficiency/%	cycle number	P/W
1	1	0	0	0	0	0	682.025	10	1.22969	9.99644	0.0189725	0.0189725	0	0.00527013	11	6.48063e-06	0.000000000000000E+000	0.000000000000000E+000	0.000000000000000E+000	0.000000000000000E+000	0.00527013	0.00527013	0.0000000E+000	0.000000000000000E+000	0.0122925
1	1	0	0	0	0	0	688.025	10	1.26655	9.99593	0.078949	0.078949	0	0.0219303	11	2.7416e-05	0.000000000000000E+000	2.14192e+06	0.000000000000000E+000	0.000000000000000E+000	0.0219303	0.0219303	0.0000000E+000	0.000000000000000E+000	0.0126603
1	1	0	0	0	0	0	694.025	10	1.2528	9.99542	0.138925	0.138925	0	0.0385904	11	4.84415e-05	0.000000000000000E+000	6.01225e+06	0.000000000000000E+000	0.000000000000000E+000	0.0385904	0.0385904	0.0000000E+000	0.000000000000000E+000	0.0125222
1	1	0	0	0	0	0	700.025	10	1.24382	9.99542	0.198902	0.198902	0	0.0552504	11	6.91672e-05	0.000000000000000E+000	1.40773e+07	0.000000000000000E+000	0.000000000000000E+000	0.0552504	0.0552504	0.0000000E+000	0.000000000000000E+000	0.0124325
1	1	0	0	0	0	0	706.025	10	1.24473	9.99593	0.258878	0.258878	0	0.0719105	11	8.99132e-05	0.000000000000000E+000	1.72161e+07	0.000000000000000E+000	0.000000000000000E+000	0.0719105	0.0719105	0.0000000E+000	0.000000000000000E+000	0.0124422
1	1	0	0	0	0	0	712.025	10	1.25168	9.99561	0.318854	0.318854	0	0.0885705	11	0.000110729	0.000000000000000E+000	1.4497e+07	0.000000000000000E+000	0.000000000000000E+000	0.0885705	0.0885705	0.0000000E+000	0.000000000000000E+000	0.0125114
1	1	0	0	0	0	0	718.025	10	1.25553	9.99593	0.37883	0.37883	0	0.105231	11	0.000131632	0.000000000000000E+000	1.46595e+07	0.000000000000000E+000	0.000000000000000E+000	0.105231	0.105231	0.0000000E+000	0.000000000000000E+000	0.0125502
1	1	0	0	0	0	0	724.025	10	1.25867	9.99586	0.438806	0.438806	0	0.121891	11	0.000152578	0.000000000000000E+000	1.51429e+07	0.000000000000000E+000	0.000000000000000E+000	0.121891	0.121891	0.0000000E+000	0.000000000000000E+000	0.0125815
1	1	0	0	0	0	0	730.025	10	1.26272	9.99606	0.498782	0.498782	0	0.13855	11	0.000173586	0.000000000000000E+000	1.51028e+07	0.000000000000000E+000	0.000000000000000E+000	0.13855	0.13855	0.0000000E+000	0.000000000000000E+000	0.0126222
1	1	0	0	0	0	0	736.025	10	1.26452	9.99618	0.558758	0.558758	0	0.15521	11	0.000194636	0.000000000000000E+000	1.60421e+07	0.000000000000000E+000	0.000000000000000E+000	0.15521	0.15521	0.0000000E+000	0.000000000000000E+000	0.0126404
1	1	0	0	0	0	0	742.025	10	1.26683	9.99599	0.618734	0.618734	0	0.17187	11	0.000215741	0.000000000000000E+000	1.66577e+07	0.000000000000000E+000	0.000000000000000E+000	0.17187	0.17187	0.0000000E+000	0.000000000000000E+000	0.0126633
1	1	0	0	0	0	0	748.025	10	1.26972	9.99574	0.67871	0.67871	0	0.18853	11	0.000236879	0.000000000000000E+000	1.69532e+07	0.000000000000000E+000	0.000000000000000E+000	0.18853	0.18853	0.0000000E+000	0.000000000000000E+000	0.0126918
1	1	0	0	0	0	0	754.025	10	1.27287	9.99625	0.738686	0.738686	0	0.20519	11	0.00025807	0.000000000000000E+000	1.7107e+07	0.000000000000000E+000	0.000000000000000E+000	0.20519	0.20519	0.0000000E+000	0.000000000000000E+000	0.0127239
1	1	0	0	0	0	0	760.025	10	1.27512	9.99555	0.798661	0.798661	0	0.22185	11	0.000279299	0.000000000000000E+000	1.75791e+07	0.000000000000000E+000	0.000000000000000E+000	0.22185	0.22185	0.0000000E+000	0.000000000000000E+000	0.0127456
1	1	0	0	0	0	0	766.025	10	1.27785	9.99599	0.858637	0.858637	0	0.23851	11	0.000300574	0.000000000000000E+000	1.78306e+07	0.000000000000000E+000	0.000000000000000E+000	0.23851	0.23851	0.0000000E+000	0.000000000000000E+000	0.0127733
1	1	0	0	0	0	0	772.025	10	1.28019	9.99631	0.918613	0.918613	0	0.25517	11	0.000321886	0.000000000000000E+000	1.81898e+07	0.000000000000000E+000	0.000000000000000E+000	0.25517	0.25517	0.0000000E+000	0.000000000000000E+000	0.0127972
1	1	0	0	0	0	0	778.025	10	1.28305	9.99606	0.978589	0.978589	0	0.27183	11	0.000343247	0.000000000000000E+000	1.83407e+07	0.000000000000000E+000	0.000000000000000E+000	0.27183	0.27183	0.0000000E+000	0.000000000000000E+000	0.0128254
1	1	0	0	0	0	0	784.025	10	1.28414	9.99567	1.03856	1.03856	0	0.28849	11	0.000364633	0.000000000000000E+000	1.90733e+07	0.000000000000000E+000	0.000000000000000E+000	0.28849	0.28849	0.0000000E+000	0.000000000000000E+000	0.0128359
1	1	0	0	0	0	0	790.025	10	1.28657	9.99536	1.09854	1.09854	0	0.30515	11	0.000386053	0.000000000000000E+000	1.93125e+07	0.000000000000000E+000	0.000000000000000E+000	0.30515	0.30515	0.0000000E+000	0.000000000000000E+000	0.0128598
1	1	0	0	0	0	0	796.025	10	1.28886	9.99586	1.15852	1.15852	0	0.32181	11	0.000407512	0.000000000000000E+000	1.95788e+07	0.000000000000000E+000	0.000000000000000E+000	0.32181	0.32181	0.0000000E+000	0.000000000000000E+000	0.0128833
1	1	0	0	0	0	0	802.025	10	1.29085	9.99593	1.21849	1.21849	0	0.33847	11	0.000429007	0.000000000000000E+000	1.99225e+07	0.000000000000000E+000	0.000000000000000E+000	0.33847	0.33847	0.0000000E+000	0.000000000000000E+000	0.0129033
1	1	0	0	0	0	0	808.025	10	1.29317	9.99612	1.27847	1.27847	0	0.35513	11	0.000450538	0.000000000000000E+000	2.01393e+07	0.000000000000000E+000	0.000000000000000E+000	0.35513	0.35513	0.0000000E+000	0.000000000000000E+000	0.0129267
1	1	0	0	0	0	0	814.025	10	1.295	9.99644	1.33844	1.33844	0	0.37179	11	0.000472104	0.000000000000000E+000	2.04951e+07	0.000000000000000E+000	0.000000000000000E+000	0.37179	0.37179	0.0000000E+000	0.000000000000000E+000	0.0129453
1	1	0	0	0	0	0	820.025	10	1.29706	9.99548	1.39842	1.39842	0	0.38845	11	0.000493701	0.000000000000000E+000	2.07559e+07	0.000000000000000E+000	0.000000000000000E+000	0.38845	0.38845	0.0000000E+000	0.000000000000000E+000	0.0129648
1	1	0	0	0	0	0	826.025	10	1.29895	9.9951	1.45839	1.45839	0	0.405109	11	0.000515332	0.000000000000000E+000	2.10562e+07	0.000000000000000E+000	0.000000000000000E+000	0.405109	0.405109	0.0000000E+000	0.000000000000000E+000	0.0129832
1	1	0	0	0	0	0	832.025	10	1.30101	9.99548	1.51837	1.51837	0	0.421769	11	0.000536997	0.000000000000000E+000	2.12884e+07	0.000000000000000E+000	0.000000000000000E+000	0.421769	0.421769	0.0000000E+000	0.000000000000000E+000	0.0130043
1	1	0	0	0	0	0	838.025	10	1.30345	9.9965	1.57835	1.57835	0	0.438429	11	0.000558699	0.000000000000000E+000	2.13973e+07	0.000000000000000E+000	0.000000000000000E+000	0.438429	0.438429	0.0000000E+000	0.000000000000000E+000	0.01303
1	1	0	0	0	0	0	844.025	10	1.30542	9.99625	1.63832	1.63832	0	0.455089	11	0.000580438	0.000000000000000E+000	2.16347e+07	0.000000000000000E+000	0.000000000000000E+000	0.455089	0.455089	0.0000000E+000	0.000000000000000E+000	0.0130493
1	1	0	0	0	0	0	850.025	10	1.30734	9.99612	1.6983	1.6983	0	0.471749	11	0.000602207	0.000000000000000E+000	2.18724e+07	0.000000000000000E+000	0.000000000000000E+000	0.471749	0.471749	0.0000000E+000	0.000000000000000E+000	0.0130683
1	1	0	0	0	0	0	856.025	10	1.30906	9.99574	1.75827	1.75827	0	0.488409	11	0.000624006	0.000000000000000E+000	2.2154e+07	0.000000000000000E+000	0.000000000000000E+000	0.488409	0.488409	0.0000000E+000	0.000000000000000E+000	0.013085
1	1	0	0	0	0	0	862.025	10	1.31106	9.99555	1.81825	1.81825	0	0.505069	11	0.000645837	0.000000000000000E+000	2.23461e+07	0.000000000000000E+000	0.000000000000000E+000	0.505069	0.505069	0.0000000E+000	0.000000000000000E+000	0.0131047
1	1	0	0	0	0	0	868.025	10	1.31288	9.99516	1.87822	1.87822	0	0.521729	11	0.000667701	0.000000000000000E+000	2.25772e+07	0.000000000000000E+000	0.000000000000000E+000	0.521729	0.521729	0.0000000E+000	0.000000000000000E+000	0.0131225
1	1	0	0	0	0	0	874.025	10	1.31491	9.99618	1.9382	1.9382	0	0.538389	11	0.000689594	0.000000000000000E+000	2.27447e+07	0.000000000000000E+000	0.000000000000000E+000	0.538389	0.538389	0.0000000E+000	0.000000000000000E+000	0.013144
1	1	0	0	0	0	0	880.025	10	1.31702	9.99669	1.99818	1.99818	0	0.555049	11	0.000711525	0.000000000000000E+000	2.2882e+07	0.000000000000000E+000	0.000000000000000E+000	0.555049	0.555049	0.0000000E+000	0.000000000000000E+000	0.0131658
1	1	0	0	0	0	0	886.025	10	1.319	9.9965	2.05815	2.05815	0	0.571709	11	0.000733489	0.000000000000000E+000	2.30453e+07	0.000000000000000E+000	0.000000000000000E+000	0.571709	0.571709	0.0000000E+000	0.000000000000000E+000	0.0131854
1	1	0	0	0	0	0	892.025	10	1.3204	9.9958	2.11813	2.11813	0	0.588368	11	0.000755476	0.000000000000000E+000	2.33495e+07	0.000000000000000E+000	0.000000000000000E+000	0.588368	0.588368	0.0000000E+000	0.000000000000000E+000	0.0131985
1	1	0	0	0	0	0	898.025	10	1.32253	9.99599	2.1781	2.1781	0	0.605028	11	0.000777498	0.000000000000000E+000	2.3461e+07	0.000000000000000E+000	0.000000000000000E+000	0.605028	0.605028	0.0000000E+000	0.000000000000000E+000	0.01322
1	1	0	0	0	0	0	904.025	10	1.32372	9.99593	2.23808	2.23808	0	0.621688	11	0.000799544	0.000000000000000E+000	2.38022e+07	0.000000000000000E+000	0.000000000000000E+000	0.621688	0.621688	0.0000000E+000	0.000000000000000E+000	0.0132318
1	1	0	0	0	0	0	910.025	10	1.32595	9.99516	2.29805	2.29805	0	0.638348	11	0.000821621	0.000000000000000E+000	2.38732e+07	0.000000000000000E+000	0.000000000000000E+000	0.638348	0.638348	0.0000000E+000	0.000000000000000E+000	0.0132531
1	1	0	0	0	0	0	916.025	10	1.32757	9.99656	2.35803	2.35803	0	0.655008	11	0.000843727	0.000000000000000E+000	2.40903e+07	0.000000000000000E+000	0.000000000000000E+000	0.655008	0.655008	0.0000000E+000	0.000000000000000E+000	0.0132712
1	1	0	0	0	0	0	922.025	10	1.32956	9.99637	2.418	2.418	0	0.671668	11	0.000865866	0.000000000000000E+000	2.42106e+07	0.000000000000000E+000	0.000000000000000E+000	0.671668	0.671668	0.0000000E+000	0.000000000000000E+000	0.0132908
1	1	0	0	0	0	0	928.025	10	1.33076	9.99612	2.47798	2.47798	0	0.688327	11	0.000888031	0.000000000000000E+000	2.45174e+07	0.000000000000000E+000	0.000000000000000E+000	0.688327	0.688327	0.0000000E+000	0.000000000000000E+000	0.0133024
1	1	0	0	0	0	0	934.025	10	1.33269	9.99631	2.53795	2.53795	0	0.704987	11	0.000910223	0.000000000000000E+000	2.46397e+07	0.000000000000000E+000	0.000000000000000E+000	0.704987	0.704987	0.0000000E+000	0.000000000000000E+000	0.013322
1	1	0	0	0	0	0	940.025	10	1.33408	9.99656	2.59793	2.59793	0	0.721647	11	0.000932439	0.000000000000000E+000	2.48863e+07	0.000000000000000E+000	0.000000000000000E+000	0.721647	0.721647	0.0000000E+000	0.000000000000000E+000	0.0133362
1	1	0	0	0	0	0	946.025	10	1.33617	9.99606	2.6579	2.6579	0	0.738307	11	0.000954688	0.000000000000000E+000	2.4961e+07	0.000000000000000E+000	0.000000000000000E+000	0.738307	0.738307	0.0000000E+000	0.000000000000000E+000	0.0133565
1	1	0	0	0	0	0	952.025	10	1.33817	9.99548	2.71788	2.71788	0	0.754967	11	0.000976971	0.000000000000000E+000	2.50552e+07	0.000000000000000E+000	0.000000000000000E+000	0.754967	0.754967	0.0000000E+000	0.000000000000000E+000	0.0133756
1	1	0	0	0	0	0	958.025	10	1.33929	9.99625	2.77786	2.77786	0	0.771626	11	0.000999272	0.000000000000000E+000	2.53465e+07	0.000000000000000E+000	0.000000000000000E+000	0.771626	0.771626	0.0000000E+000	0.000000000000000E+000	0.0133878
1	1	0	0	0	0	0	964.025	10	1.3409	9.99548	2.83783	2.83783	0	0.788286	11	0.0010216	0.000000000000000E+000	2.55185e+07	0.000000000000000E+000	0.000000000000000E+000	0.788286	0.788286	0.0000000E+000	0.000000000000000E+000	0.0134029
1	1	0	0	0	0	0	970.025	10	1.34237	9.99548	2.89781	2.89781	0	0.804946	11	0.00104396	0.000000000000000E+000	2.57173e+07	0.000000000000000E+000	0.000000000000000E+000	0.804946	0.804946	0.0000000E+000	0.000000000000000E+000	0.0134176
1	1	0	0	0	0	0	976.025	10	1.34419	9.99574	2.95778	2.95778	0	0.821606	11	0.00106634	0.000000000000000E+000	2.58334e+07	0.000000000000000E+000	0.000000000000000E+000	0.821606	0.821606	0.0000000E+000	0.000000000000000E+000	0.0134361
1	1	0	0	0	0	0	982.025	10	1.34547	9.99574	3.01776	3.01776	0	0.838266	11	0.00108875	0.000000000000000E+000	2.60657e+07	0.000000000000000E+000	0.000000000000000E+000	0.838266	0.838266	0.0000000E+000	0.000000000000000E+000	0.0134489
1	1	0	0	0	0	0	988.025	10	1.34725	9.99593	3.07773	3.07773	0	0.854926	11	0.00111118	0.000000000000000E+000	2.61808e+07	0.000000000000000E+000	0.000000000000000E+000	0.854926	0.854926	0.0000000E+000	0.000000000000000E+000	0.013467
1	1	0	0	0	0	0	994.025	10	1.34876	9.9958	3.13771	3.13771	0	0.871586	11	0.00113364	0.000000000000000E+000	2.6352e+07	0.000000000000000E+000	0.000000000000000E+000	0.871586	0.871586	0.0000000E+000	0.000000000000000E+000	0.0134819
1	1	0	0	0	0	0	1000.02	10	1.35025	9.99586	3.19768	3.19768	0	0.888245	11	0.00115613	0.000000000000000E+000	2.65235e+07	0.000000000000000E+000	0.000000000000000E+000	0.888245	0.888245	0.0000000E+000	0.000000000000000E+000	0.0134969
1	1	0	0	0	0	0	1006.02	10	1.35178	9.99529	3.25766	3.25766	0	0.904905	11	0.00117864	0.000000000000000E+000	2.66835e+07	0.000000000000000E+000	0.000000000000000E+000	0.904905	0.904905	0.0000000E+000	0.000000000000000E+000	0.0135114
1	1	0	0	0	0	0	1012.02	10	1.35341	9.99542	3.31763	3.31763	0	0.921565	11	0.00120118	0.000000000000000E+000	2.6815e+07	0.000000000000000E+000	0.000000000000000E+000	0.921565	0.921565	0.0000000E+000	0.000000000000000E+000	0.0135279
1	1	0	0	0	0	0	1018.02	10	1.3547	9.99586	3.37761	3.37761	0	0.938225	11	0.00122374	0.000000000000000E+000	2.70183e+07	0.000000000000000E+000	0.000000000000000E+000	0.938225	0.938225	0.0000000E+000	0.000000000000000E+000	0.0135414
1	1	0	0	0	0	0	1024.02	10	1.35646	9.99529	3.43758	3.43758	0	0.954885	11	0.00124633	0.000000000000000E+000	2.71166e+07	0.000000000000000E+000	0.000000000000000E+000	0.954885	0.954885	0.0000000E+000	0.000000000000000E+000	0.0135582
1	1	0	0	0	0	0	1030.02	10	1.35744	9.99542	3.49756	3.49756	0	0.971544	11	0.00126894	0.000000000000000E+000	2.73781e+07	0.000000000000000E+000	0.000000000000000E+000	0.971544	0.971544	0.0000000E+000	0.000000000000000E+000	0.0135682
1	1	0	0	0	0	0	1036.02	10	1.35932	9.99599	3.55754	3.55754	0	0.988204	11	0.00129157	0.000000000000000E+000	2.74448e+07	0.000000000000000E+000	0.000000000000000E+000	0.988204	0.988204	0.0000000E+000	0.000000000000000E+000	0.0135877
1	1	0	0	0	0	0	1042.02	10	1.36045	9.99548	3.61751	3.61751	0	1.00486	11	0.00131423	0.000000000000000E+000	2.76663e+07	0.000000000000000E+000	0.000000000000000E+000	1.00486	1.00486	0.0000000E+000	0.000000000000000E+000	0.0135983
1	1	0	0	0	0	0	1048.02	10	1.36236	9.99561	3.67749	3.67749	0	1.02152	11	0.00133692	0.000000000000000E+000	2.77193e+07	0.000000000000000E+000	0.000000000000000E+000	1.02152	1.02152	0.0000000E+000	0.000000000000000E+000	0.0136176
1	1	0	0	0	0	0	1054.02	10	1.36326	9.99555	3.73746	3.73746	0	1.03818	11	0.00135962	0.000000000000000E+000	2.79824e+07	0.000000000000000E+000	0.000000000000000E+000	1.03818	1.03818	0.0000000E+000	0.000000000000000E+000	0.0136265
1	1	0	0	0	0	0	1060.02	10	1.36488	9.9965	3.79744	3.79744	0	1.05484	11	0.00138235	0.000000000000000E+000	2.80902e+07	0.000000000000000E+000	0.000000000000000E+000	1.05484	1.05484	0.0000000E+000	0.000000000000000E+000	0.013644
1	1	0	0	0	0	0	1066.02	10	1.36608	9.99618	3.85741	3.85741	0	1.0715	11	0.0014051	0.000000000000000E+000	2.82816e+07	0.000000000000000E+000	0.000000000000000E+000	1.0715	1.0715	0.0000000E+000	0.000000000000000E+000	0.0136556
1	1	0	0	0	0	0	1072.02	10	1.36793	9.99599	3.91739	3.91739	0	1.08816	11	0.00142788	0.000000000000000E+000	2.83369e+07	0.000000000000000E+000	0.000000000000000E+000	1.08816	1.08816	0.0000000E+000	0.000000000000000E+000	0.0136739
1	1	0	0	0	0	0	1078.02	10	1.36902	9.99523	3.97736	3.97736	0	1.10482	11	0.00145068	0.000000000000000E+000	2.85461e+07	0.000000000000000E+000	0.000000000000000E+000	1.10482	1.10482	0.0000000E+000	0.000000000000000E+000	0.0136837
1	1	0	0	0	0	0	1084.02	10	1.37079	9.9965	4.03734	4.03734	0	1.12148	11	0.00147351	0.000000000000000E+000	2.86137e+07	0.000000000000000E+000	0.000000000000000E+000	1.12148	1.12148	0.0000000E+000	0.000000000000000E+000	0.0137031
1	1	0	0	0	0	0	1090.02	10	1.37169	9.99606	4.09731	4.09731	0	1.13814	11	0.00149636	0.000000000000000E+000	2.88538e+07	0.000000000000000E+000	0.000000000000000E+000	1.13814	1.13814	0.0000000E+000	0.000000000000000E+000	0.0137115
1	1	0	0	0	0	0	1096.02	10	1.37356	9.9965	4.15729	4.15729	0	1.1548	11	0.00151923	0.000000000000000E+000	2.88954e+07	0.000000000000000E+000	0.000000000000000E+000	1.1548	1.1548	0.0000000E+000	0.000000000000000E+000	0.0137308
1	1	0	0	0	0	0	1102.02	10	1.37431	9.99548	4.21726	4.21726	0	1.17146	11	0.00154212	0.000000000000000E+000	2.91609e+07	0.000000000000000E+000	0.000000000000000E+000	1.17146	1.17146	0.0000000E+000	0.000000000000000E+000	0.0137369
1	1	0	0	0	0	0	1108.02	10	1.37627	9.99555	4.27724	4.27724	0	1.18812	11	0.00156504	0.000000000000000E+000	2.91806e+07	0.000000000000000E+000	0.000000000000000E+000	1.18812	1.18812	0.0000000E+000	0.000000000000000E+000	0.0137566
1	1	0	0	0	0	0	1114.02	10	1.37714	9.99586	4.33721	4.33721	0	1.20478	11	0.00158797	0.000000000000000E+000	2.94147e+07	0.000000000000000E+000	0.000000000000000E+000	1.20478	1.20478	0.0000000E+000	0.000000000000000E+000	0.0137657
1	1	0	0	0	0	0	1120.02	10	1.37898	9.99593	4.39719	4.39719	0	1.22144	11	0.00161094	0.000000000000000E+000	2.94542e+07	0.000000000000000E+000	0.000000000000000E+000	1.22144	1.22144	0.0000000E+000	0.000000000000000E+000	0.0137842
1	1	0	0	0	0	0	1126.02	10	1.37966	9.99586	4.45716	4.45716	0	1.2381	11	0.00163392	0.000000000000000E+000	2.97196e+07	0.000000000000000E+000	0.000000000000000E+000	1.2381	1.2381	0.0000000E+000	0.000000000000000E+000	0.0137909
1	1	0	0	0	0	0	1132.02	10	1.38143	9.99567	4.51714	4.51714	0	1.25476	11	0.00165692	0.000000000000000E+000	2.97688e+07	0.000000000000000E+000	0.000000000000000E+000	1.25476	1.25476	0.0000000E+000	0.000000000000000E+000	0.0138083
1	1	0	0	0	0	0	1138.02	10	1.38222	9.99555	4.57711	4.57711	0	1.27142	11	0.00167995	0.000000000000000E+000	3.00074e+07	0.000000000000000E+000	0.000000000000000E+000	1.27142	1.27142	0.0000000E+000	0.000000000000000E+000	0.0138161
1	1	0	0	0	0	0	1144.02	10	1.38374	9.9958	4.63709	4.63709	0	1.28808	11	0.00170299	0.000000000000000E+000	3.01012e+07	0.000000000000000E+000	0.000000000000000E+000	1.28808	1.28808	0.0000000E+000	0.000000000000000E+000	0.0138316
1	1	0	0	0	0	0	1150.02	10	1.38522	9.99555	4.69706	4.69706	0	1.30474	11	0.00172606	0.000000000000000E+000	3.02007e+07	0.000000000000000E+000	0.000000000000000E+000	1.30474	1.30474	0.0000000E+000	0.000000000000000E+000	0.013846
1	1	0	0	0	0	0	1156.02	10	1.38568	9.99637	4.75704	4.75704	0	1.3214	11	0.00174914	0.000000000000000E+000	3.0495e+07	0.000000000000000E+000	0.000000000000000E+000	1.3214	1.3214	0.0000000E+000	0.000000000000000E+000	0.0138518
1	1	0	0	0	0	0	1162.02	10	1.38723	9.99593	4.81702	4.81702	0	1.33806	11	0.00177225	0.000000000000000E+000	3.05763e+07	0.000000000000000E+000	0.000000000000000E+000	1.33806	1.33806	0.0000000E+000	0.000000000000000E+000	0.0138667
1	1	0	0	0	0	0	1168.02	10	1.38798	9.99574	4.87699	4.87699	0	1.35472	11	0.00179537	0.000000000000000E+000	3.08096e+07	0.000000000000000E+000	0.000000000000000E+000	1.35472	1.35472	0.0000000E+000	0.000000000000000E+000	0.0138739
1	1	0	0	0	0	0	1174.02	10	1.38966	9.99606	4.93697	4.93697	0	1.37138	11	0.00181851	0.000000000000000E+000	3.08624e+07	0.000000000000000E+000	0.000000000000000E+000	1.37138	1.37138	0.0000000E+000	0.000000000000000E+000	0.0138911
1	1	0	0	0	0	0	1180.02	10	1.39127	9.99548	4.99694	4.99694	0	1.38804	11	0.00184168	0.000000000000000E+000	3.09264e+07	0.000000000000000E+000	0.000000000000000E+000	1.38804	1.38804	0.0000000E+000	0.000000000000000E+000	0.0139064
1	1	0	0	0	0	0	1186.02	10	1.39251	9.99612	5.05692	5.05692	0	1.4047	11	0.00186487	0.000000000000000E+000	3.10575e+07	0.000000000000000E+000	0.000000000000000E+000	1.4047	1.4047	0.0000000E+000	0.000000000000000E+000	0.0139197
1	1	0	0	0	0	0	1192.02	10	1.39394	9.9958	5.11689	5.11689	0	1.42136	11	0.00188809	0.000000000000000E+000	3.11529e+07	0.000000000000000E+000	0.000000000000000E+000	1.42136	1.42136	0.0000000E+000	0.000000000000000E+000	0.0139336
1	1	0	0	0	0	0	1198.02	10	1.39546	9.99618	5.17687	5.17687	0	1.43802	11	0.00191133	0.000000000000000E+000	3.12301e+07	0.000000000000000E+000	0.000000000000000E+000	1.43802	1.43802	0.0000000E+000	0.000000000000000E+000	0.0139492
1	1	0	0	0	0	0	1204.02	10	1.39692	9.99593	5.23684	5.23684	0	1.45468	11	0.0019346	0.000000000000000E+000	3.13148e+07	0.000000000000000E+000	0.000000000000000E+000	1.45468	1.45468	0.0000000E+000	0.000000000000000E+000	0.0139635
1	1	0	0	0	0	0	1210.02	10	1.39869	9.99606	5.29682	5.29682	0	1.47134	11	0.00195789	0.000000000000000E+000	3.13415e+07	0.000000000000000E+000	0.000000000000000E+000	1.47134	1.47134	0.0000000E+000	0.000000000000000E+000	0.0139814
1	1	0	0	0	0	0	1216.02	10	1.39983	9.99618	5.35679	5.35679	0	1.488	11	0.0019812	0.000000000000000E+000	3.14852e+07	0.000000000000000E+000	0.000000000000000E+000	1.488	1.488	0.0000000E+000	0.000000000000000E+000	0.0139929
1	1	0	0	0	0	0	1222.02	10	1.40142	9.99599	5.41677	5.41677	0	1.50466	11	0.00200454	0.000000000000000E+000	3.15427e+07	0.000000000000000E+000	0.000000000000000E+000	1.50466	1.50466	0.0000000E+000	0.000000000000000E+000	0.0140086
1	1	0	0	0	0	0	1228.02	10	1.40288	9.99625	5.47674	5.47674	0	1.52132	11	0.0020279	0.000000000000000E+000	3.16235e+07	0.000000000000000E+000	0.000000000000000E+000	1.52132	1.52132	0.0000000E+000	0.000000000000000E+000	0.0140235
1	1	0	0	0	0	0	1234.02	10	1.40415	9.99586	5.53672	5.53672	0	1.53798	11	0.00205129	0.000000000000000E+000	3.17365e+07	0.000000000000000E+000	0.000000000000000E+000	1.53798	1.53798	0.0000000E+000	0.000000000000000E+000	0.0140357
1	1	0	0	0	0	0	1240.02	10	1.40554	9.99637	5.59669	5.59669	0	1.55464	11	0.0020747	0.000000000000000E+000	3.18273e+07	0.000000000000000E+000	0.000000000000000E+000	1.55464	1.55464	0.0000000E+000	0.000000000000000E+000	0.0140503
1	1	0	0	0	0	0	1246.02	10	1.40714	9.99567	5.65667	5.65667	0	1.5713	11	0.00209813	0.000000000000000E+000	3.18775e+07	0.000000000000000E+000	0.000000000000000E+000	1.5713	1.5713	0.0000000E+000	0.000000000000000E+000	0.0140653
1	1	0	0	0	0	0	1252.02	10	1.40877	9.99548	5.71664	5.71664	0	1.58796	11	0.00212159	0.000000000000000E+000	3.19218e+07	0.000000000000000E+000	0.000000000000000E+000	1.58796	1.58796	0.0000000E+000	0.000000000000000E+000	0.0140814
1	1	0	0	0	0	0	1258.02	10	1.40966	9.99625	5.77662	5.77662	0	1.60462	11	0.00214508	0.000000000000000E+000	3.20974e+07	0.000000000000000E+000	0.000000000000000E+000	1.60462	1.60462	0.0000000E+000	0.000000000000000E+000	0.0140913
1	1	0	0	0	0	0	1264.02	10	1.41123	9.99675	5.83659	5.83659	0	1.62128	11	0.00216858	0.000000000000000E+000	3.21506e+07	0.000000000000000E+000	0.000000000000000E+000	1.62128	1.62128	0.0000000E+000	0.000000000000000E+000	0.0141077
1	1	0	0	0	0	0	1270.02	10	1.4128	9.99567	5.89657	5.89657	0	1.63794	11	0.00219211	0.000000000000000E+000	3.22025e+07	0.000000000000000E+000	0.000000000000000E+000	1.63794	1.63794	0.0000000E+000	0.000000000000000E+000	0.0141219
1	1	0	0	0	0	0	1276.02	10	1.41401	9.99631	5.95655	5.95655	0	1.6546	11	0.00221566	0.000000000000000E+000	3.2316e+07	0.000000000000000E+000	0.000000000000000E+000	1.6546	1.6546	0.0000000E+000	0.000000000000000E+000	0.0141349
1	1	0	0	0	0	0	1282.02	10	1.41523	9.99606	6.01652	6.01652	0	1.67126	11	0.00223923	0.000000000000000E+000	3.24265e+07	0.000000000000000E+000	0.000000000000000E+000	1.67126	1.67126	0.0000000E+000	0.000000000000000E+000	0.0141468
1	1	0	0	0	0	0	1288.02	10	1.41696	9.99586	6.0765	6.0765	0	1.68792	11	0.00226283	0.000000000000000E+000	3.2447e+07	0.000000000000000E+000	0.000000000000000E+000	1.68792	1.68792	0.0000000E+000	0.000000000000000E+000	0.0141638
1	1	0	0	0	0	0	1294.02	10	1.41807	9.99625	6.13647	6.13647	0	1.70458	11	0.00228644	0.000000000000000E+000	3.25748e+07	0.000000000000000E+000	0.000000000000000E+000	1.70458	1.70458	0.0000000E+000	0.000000000000000E+000	0.0141754
1	1	0	0	0	0	0	1300.02	10	1.4198	9.99599	6.19645	6.19645	0	1.72123	11	0.00231009	0.000000000000000E+000	3.25945e+07	0.000000000000000E+000	0.000000000000000E+000	1.72123	1.72123	0.0000000E+000	0.000000000000000E+000	0.0141923
1	1	0	0	0	0	0	1306.02	10	1.42068	9.99618	6.25642	6.25642	0	1.73789	11	0.00233375	0.000000000000000E+000	3.27575e+07	0.000000000000000E+000	0.000000000000000E+000	1.73789	1.73789	0.0000000E+000	0.000000000000000E+000	0.0142014
1	1	0	0	0	0	0	1312.02	10	1.42216	9.9958	6.3164	6.3164	0	1.75455	11	0.00235744	0.000000000000000E+000	3.28169e+07	0.000000000000000E+000	0.000000000000000E+000	1.75455	1.75455	0.0000000E+000	0.000000000000000E+000	0.0142157
1	1	0	0	0	0	0	1318.02	10	1.42354	9.9958	6.37637	6.37637	0	1.77121	11	0.00238115	0.000000000000000E+000	3.2894e+07	0.000000000000000E+000	0.000000000000000E+000	1.77121	1.77121	0.0000000E+000	0.000000000000000E+000	0.0142294
1	1	0	0	0	0	0	1324.02	10	1.42499	9.99618	6.43635	6.43635	0	1.78787	11	0.00240488	0.000000000000000E+000	3.2956e+07	0.000000000000000E+000	0.000000000000000E+000	1.78787	1.78787	0.0000000E+000	0.000000000000000E+000	0.0142445
1	1	0	0	0	0	0	1330.02	10	1.42642	9.99536	6.49632	6.49632	0	1.80453	11	0.00242863	0.000000000000000E+000	3.3021e+07	0.000000000000000E+000	0.000000000000000E+000	1.80453	1.80453	0.0000000E+000	0.000000000000000E+000	0.0142576
1	1	0	0	0	0	0	1336.02	10	1.42743	9.99542	6.5563	6.5563	0	1.82119	11	0.0024524	0.000000000000000E+000	3.31562e+07	0.000000000000000E+000	0.000000000000000E+000	1.82119	1.82119	0.0000000E+000	0.000000000000000E+000	0.0142678
1	1	0	0	0	0	0	1342.02	10	1.42897	9.99574	6.61627	6.61627	0	1.83785	11	0.0024762	0.000000000000000E+000	3.32017e+07	0.000000000000000E+000	0.000000000000000E+000	1.83785	1.83785	0.0000000E+000	0.000000000000000E+000	0.0142836
1	1	0	0	0	0	0	1348.02	10	1.43033	9.99612	6.67625	6.67625	0	1.85451	11	0.00250003	0.000000000000000E+000	3.32755e+07	0.000000000000000E+000	0.000000000000000E+000	1.85451	1.85451	0.0000000E+000	0.000000000000000E+000	0.0142977
1	1	0	0	0	0	0	1354.02	10	1.43186	9.99625	6.73622	6.73622	0	1.87117	11	0.00252387	0.000000000000000E+000	3.3319e+07	0.000000000000000E+000	0.000000000000000E+000	1.87117	1.87117	0.0000000E+000	0.000000000000000E+000	0.0143133
1	1	0	0	0	0	0	1360.02	10	1.43287	9.99555	6.7962	6.7962	0	1.88783	11	0.00254774	0.000000000000000E+000	3.34496e+07	0.000000000000000E+000	0.000000000000000E+000	1.88783	1.88783	0.0000000E+000	0.000000000000000E+000	0.0143223
1	1	0	0	0	0	0	1366.02	10	1.43425	9.99644	6.85617	6.85617	0	1.90449	11	0.00257163	0.000000000000000E+000	3.35173e+07	0.000000000000000E+000	0.000000000000000E+000	1.90449	1.90449	0.0000000E+000	0.000000000000000E+000	0.0143374
1	1	0	0	0	0	0	1372.02	10	1.43607	9.99548	6.91615	6.91615	0	1.92115	11	0.00259554	0.000000000000000E+000	3.35115e+07	0.000000000000000E+000	0.000000000000000E+000	1.92115	1.92115	0.0000000E+000	0.000000000000000E+000	0.0143542
1	1	0	0	0	0	0	1378.02	10	1.43736	9.99656	6.97613	6.97613	0	1.93781	11	0.00261948	0.000000000000000E+000	3.35924e+07	0.000000000000000E+000	0.000000000000000E+000	1.93781	1.93781	0.0000000E+000	0.000000000000000E+000	0.0143687
1	1	0	0	0	0	0	1384.02	10	1.43869	9.99599	7.0361	7.0361	0	1.95447	11	0.00264344	0.000000000000000E+000	3.36655e+07	0.000000000000000E+000	0.000000000000000E+000	1.95447	1.95447	0.0000000E+000	0.000000000000000E+000	0.0143811
1	1	0	0	0	0	0	1390.02	10	1.4397	9.99599	7.09608	7.09608	0	1.97113	11	0.00266741	0.000000000000000E+000	3.37889e+07	0.000000000000000E+000	0.000000000000000E+000	1.97113	1.97113	0.0000000E+000	0.000000000000000E+000	0.0143913
1	1	0	0	0	0	0	1396.02	10	1.44141	9.99606	7.15605	7.15605	0	1.98779	11	0.00269142	0.000000000000000E+000	3.37994e+07	0.000000000000000E+000	0.000000000000000E+000	1.98779	1.98779	0.0000000E+000	0.000000000000000E+000	0.0144084
1	1	0	0	0	0	0	1402.02	10	1.44225	9.99644	7.21603	7.21603	0	2.00445	11	0.00271544	0.000000000000000E+000	3.39478e+07	0.000000000000000E+000	0.000000000000000E+000	2.00445	2.00445	0.0000000E+000	0.000000000000000E+000	0.0144174
1	1	0	0	0	0	0	1408.02	10	1.44338	9.99593	7.276	7.276	0	2.02111	11	0.00273949	0.000000000000000E+000	3.40495e+07	0.000000000000000E+000	0.000000000000000E+000	2.02111	2.02111	0.0000000E+000	0.000000000000000E+000	0.0144279
1	1	0	0	0	0	0	1414.02	10	1.44514	9.99574	7.33598	7.33598	0	2.03777	11	0.00276355	0.000000000000000E+000	3.40489e+07	0.000000000000000E+000	0.000000000000000E+000	2.03777	2.03777	0.0000000E+000	0.000000000000000E+000	0.0144453
1	1	0	0	0	0	0	1420.02	10	1.44637	9.99561	7.39595	7.39595	0	2.05443	11	0.00278764	0.000000000000000E+000	3.41331e+07	0.000000000000000E+000	0.000000000000000E+000	2.05443	2.05443	0.0000000E+000	0.000000000000000E+000	0.0144574
1	1	0	0	0	0	0	1426.02	10	1.44746	9.99529	7.45593	7.45593	0	2.07109	11	0.00281174	0.000000000000000E+000	3.4237e+07	0.000000000000000E+000	0.000000000000000E+000	2.07109	2.07109	0.0000000E+000	0.000000000000000E+000	0.0144678
1	1	0	0	0	0	0	1432.02	10	1.44896	9.99669	7.5159	7.5159	0	2.08775	11	0.00283587	0.000000000000000E+000	3.42768e+07	0.000000000000000E+000	0.000000000000000E+000	2.08775	2.08775	0.0000000E+000	0.000000000000000E+000	0.0144848
1	1	0	0	0	0	0	1438.02	10	1.44987	9.9958	7.57588	7.57588	0	2.10441	11	0.00286003	0.000000000000000E+000	3.44073e+07	0.000000000000000E+000	0.000000000000000E+000	2.10441	2.10441	0.0000000E+000	0.000000000000000E+000	0.0144926
1	1	0	0	0	0	0	1444.02	10	1.45134	9.99606	7.63585	7.63585	0	2.12107	11	0.0028842	0.000000000000000E+000	3.44508e+07	0.000000000000000E+000	0.000000000000000E+000	2.12107	2.12107	0.0000000E+000	0.000000000000000E+000	0.0145076
1	1	0	0	0	0	0	1450.02	10	1.45293	9.9958	7.69583	7.69583	0	2.13773	11	0.0029084	0.000000000000000E+000	3.44738e+07	0.000000000000000E+000	0.000000000000000E+000	2.13773	2.13773	0.0000000E+000	0.000000000000000E+000	0.0145232
1	1	0	0	0	0	0	1456.02	10	1.45409	9.99574	7.7558	7.7558	0	2.15439	11	0.00293261	0.000000000000000E+000	3.45622e+07	0.000000000000000E+000	0.000000000000000E+000	2.15439	2.15439	0.0000000E+000	0.000000000000000E+000	0.0145347
1	1	0	0	0	0	0	1462.02	10	1.45488	9.9958	7.81578	7.81578	0	2.17105	11	0.00295684	0.000000000000000E+000	3.4707e+07	0.000000000000000E+000	0.000000000000000E+000	2.17105	2.17105	0.0000000E+000	0.000000000000000E+000	0.0145427
1	1	0	0	0	0	0	1468.02	10	1.45643	9.99574	7.87575	7.87575	0	2.18771	11	0.0029811	0.000000000000000E+000	3.47346e+07	0.000000000000000E+000	0.000000000000000E+000	2.18771	2.18771	0.0000000E+000	0.000000000000000E+000	0.0145581
1	1	0	0	0	0	0	1474.02	10	1.45769	9.99637	7.93573	7.93573	0	2.20437	11	0.00300538	0.000000000000000E+000	3.48055e+07	0.000000000000000E+000	0.000000000000000E+000	2.20437	2.20437	0.0000000E+000	0.000000000000000E+000	0.0145716
1	1	0	0	0	0	0	1480.02	10	1.45915	9.99567	7.9957	7.9957	0	2.22103	11	0.00302968	0.000000000000000E+000	3.4846e+07	0.000000000000000E+000	0.000000000000000E+000	2.22103	2.22103	0.0000000E+000	0.000000000000000E+000	0.0145852
1	1	0	0	0	0	0	1486.02	10	1.46018	9.99561	8.05568	8.05568	0	2.23769	11	0.003054	0.000000000000000E+000	3.49505e+07	0.000000000000000E+000	0.000000000000000E+000	2.23769	2.23769	0.0000000E+000	0.000000000000000E+000	0.0145954
1	1	0	0	0	0	0	1492.02	10	1.46198	9.9965	8.11565	8.11565	0	2.25435	11	0.00307834	0.000000000000000E+000	3.49382e+07	0.000000000000000E+000	0.000000000000000E+000	2.25435	2.25435	0.0000000E+000	0.000000000000000E+000	0.0146146
1	1	0	0	0	0	0	1498.02	10	1.46279	9.99599	8.17563	8.17563	0	2.27101	11	0.00310271	0.000000000000000E+000	3.50732e+07	0.000000000000000E+000	0.000000000000000E+000	2.27101	2.27101	0.0000000E+000	0.000000000000000E+000	0.0146221
1	1	0	0	0	0	0	1504.02	10	1.464	9.99618	8.2356	8.2356	0	2.28767	11	0.00312709	0.000000000000000E+000	3.51479e+07	0.000000000000000E+000	0.000000000000000E+000	2.28767	2.28767	0.0000000E+000	0.000000000000000E+000	0.0146344
1	1	0	0	0	0	0	1510.02	10	1.46568	9.99542	8.29558	8.29558	0	2.30433	11	0.0031515	0.000000000000000E+000	3.5153e+07	0.000000000000000E+000	0.000000000000000E+000	2.30433	2.30433	0.0000000E+000	0.000000000000000E+000	0.01465
1	1	0	0	0	0	0	1516.02	10	1.46652	9.99516	8.35555	8.35555	0	2.32099	11	0.00317593	0.000000000000000E+000	3.5281e+07	0.000000000000000E+000	0.000000000000000E+000	2.32099	2.32099	0.0000000E+000	0.000000000000000E+000	0.0146581
1	1	0	0	0	0	0	1522.02	10	1.46775	9.99536	8.41553	8.41553	0	2.33765	11	0.00320038	0.000000000000000E+000	3.53512e+07	0.000000000000000E+000	0.000000000000000E+000	2.33765	2.33765	0.0000000E+000	0.000000000000000E+000	0.0146706
1	1	0	0	0	0	0	1528.02	10	1.46907	9.99606	8.4755	8.4755	0	2.35431	11	0.00322484	0.000000000000000E+000	3.54064e+07	0.000000000000000E+000	0.000000000000000E+000	2.35431	2.35431	0.0000000E+000	0.000000000000000E+000	0.0146849
1	1	0	0	0	0	0	1534.02	10	1.46987	9.99612	8.53548	8.53548	0	2.37097	11	0.00324933	0.000000000000000E+000	3.55377e+07	0.000000000000000E+000	0.000000000000000E+000	2.37097	2.37097	0.0000000E+000	0.000000000000000E+000	0.014693
1	1	0	0	0	0	0	1540.02	10	1.47151	9.99586	8.59546	8.59546	0	2.38763	11	0.00327383	0.000000000000000E+000	3.55453e+07	0.000000000000000E+000	0.000000000000000E+000	2.38763	2.38763	0.0000000E+000	0.000000000000000E+000	0.014709
1	1	0	0	0	0	0	1546.02	10	1.47239	9.99567	8.65543	8.65543	0	2.40429	11	0.00329836	0.000000000000000E+000	3.56635e+07	0.000000000000000E+000	0.000000000000000E+000	2.40429	2.40429	0.0000000E+000	0.000000000000000E+000	0.0147175
1	1	0	0	0	0	0	1552.02	10	1.47358	9.99631	8.71541	8.71541	0	2.42095	11	0.0033229	0.000000000000000E+000	3.57353e+07	0.000000000000000E+000	0.000000000000000E+000	2.42095	2.42095	0.0000000E+000	0.000000000000000E+000	0.0147303
1	1	0	0	0	0	0	1558.02	10	1.47478	9.99618	8.77538	8.77538	0	2.43761	11	0.00334747	0.000000000000000E+000	3.58052e+07	0.000000000000000E+000	0.000000000000000E+000	2.43761	2.43761	0.0000000E+000	0.000000000000000E+000	0.0147421
1	1	0	0	0	0	0	1564.02	10	1.47612	9.99542	8.83536	8.83536	0	2.45427	11	0.00337205	0.000000000000000E+000	3.5854e+07	0.000000000000000E+000	0.000000000000000E+000	2.45427	2.45427	0.0000000E+000	0.000000000000000E+000	0.0147544
1	1	0	0	0	0	0	1570.02	10	1.47734	9.99618	8.89533	8.89533	0	2.47093	11	0.00339666	0.000000000000000E+000	3.59195e+07	0.000000000000000E+000	0.000000000000000E+000	2.47093	2.47093	0.0000000E+000	0.000000000000000E+000	0.0147677
1	1	0	0	0	0	0	1576.02	10	1.47847	9.99586	8.95531	8.95531	0	2.48759	11	0.00342128	0.000000000000000E+000	3.59969e+07	0.000000000000000E+000	0.000000000000000E+000	2.48759	2.48759	0.0000000E+000	0.000000000000000E+000	0.0147786
1	1	0	0	0	0	0	1582.02	10	1.47989	9.99529	9.01528	9.01528	0	2.50424	11	0.00344593	0.000000000000000E+000	3.6032e+07	0.000000000000000E+000	0.000000000000000E+000	2.50424	2.50424	0.0000000E+000	0.000000000000000E+000	0.014792
1	1	0	0	0	0	0	1588.02	10	1.48066	9.99586	9.07526	9.07526	0	2.5209	11	0.00347059	0.000000000000000E+000	3.61601e+07	0.000000000000000E+000	0.000000000000000E+000	2.5209	2.5209	0.0000000E+000	0.000000000000000E+000	0.0148005
1	1	0	0	0	0	0	1594.02	10	1.4822	9.99618	9.13523	9.13523	0	2.53756	11	0.00349528	0.000000000000000E+000	3.61772e+07	0.000000000000000E+000	0.000000000000000E+000	2.53756	2.53756	0.0000000E+000	0.000000000000000E+000	0.0148164
1	1	0	0	0	0	0	1600.02	10	1.48337	9.99561	9.19521	9.19521	0	2.55422	11	0.00351998	0.000000000000000E+000	3.6248e+07	0.000000000000000E+000	0.000000000000000E+000	2.55422	2.55422	0.0000000E+000	0.000000000000000E+000	0.0148271
1	1	0	0	0	0	0	1606.02	10	1.48474	9.99631	9.25518	9.25518	0	2.57088	11	0.00354471	0.000000000000000E+000	3.6288e+07	0.000000000000000E+000	0.000000000000000E+000	2.57088	2.57088	0.0000000E+000	0.000000000000000E+000	0.0148419
1	1	0	0	0	0	0	1612.02	10	1.48523	9.99694	9.31516	9.31516	0	2.58754	11	0.00356945	0.000000000000000E+000	3.64529e+07	0.000000000000000E+000	0.000000000000000E+000	2.58754	2.58754	0.0000000E+000	0.000000000000000E+000	0.0148478
1	1	0	0	0	0	0	1618.02	10	1.48711	9.99478	9.37513	9.37513	0	2.6042	11	0.00359422	0.000000000000000E+000	3.64199e+07	0.000000000000000E+000	0.000000000000000E+000	2.6042	2.6042	0.0000000E+000	0.000000000000000E+000	0.0148633
1	1	0	0	0	0	0	1624.02	10	1.48856	9.99618	9.43511	9.43511	0	2.62086	11	0.00361901	0.000000000000000E+000	3.6448e+07	0.000000000000000E+000	0.000000000000000E+000	2.62086	2.62086	0.0000000E+000	0.000000000000000E+000	0.0148799
1	1	0	0	0	0	0	1630.02	10	1.49014	9.99599	9.49508	9.49508	0	2.63752	11	0.00364383	0.000000000000000E+000	3.64566e+07	0.000000000000000E+000	0.000000000000000E+000	2.63752	2.63752	0.0000000E+000	0.000000000000000E+000	0.0148954
1	1	0	0	0	0	0	1636.02	10	1.48975	9.9951	9.55506	9.55506	0	2.65418	11	0.00366864	0.000000000000000E+000	3.6742e+07	0.000000000000000E+000	0.000000000000000E+000	2.65418	2.65418	0.0000000E+000	0.000000000000000E+000	0.0148902
1	1	0	0	0	0	0	1642.02	10	1.49131	9.99529	9.61504	9.61504	0	2.67084	11	0.00369348	0.000000000000000E+000	3.67525e+07	0.000000000000000E+000	0.000000000000000E+000	2.67084	2.67084	0.0000000E+000	0.000000000000000E+000	0.014906
1	1	0	0	0	0	0	1648.02	10	1.4934	9.9958	9.67501	9.67501	0	2.6875	11	0.00371835	0.000000000000000E+000	3.66876e+07	0.000000000000000E+000	0.000000000000000E+000	2.6875	2.6875	0.0000000E+000	0.000000000000000E+000	0.0149278
1	1	0	0	0	0	0	1654.02	10	1.49468	9.99631	9.73499	9.73499	0	2.70416	11	0.00374324	0.000000000000000E+000	3.67375e+07	0.000000000000000E+000	0.000000000000000E+000	2.70416	2.70416	0.0000000E+000	0.000000000000000E+000	0.0149413
1	1	0	0	0	0	0	1660.02	10	1.49465	9.99516	9.79496	9.79496	0	2.72082	11	0.00376814	0.000000000000000E+000	3.69684e+07	0.000000000000000E+000	0.000000000000000E+000	2.72082	2.72082	0.0000000E+000	0.000000000000000E+000	0.0149392
1	1	0	0	0	0	0	1666.02	10	1.49596	9.99599	9.85494	9.85494	0	2.73748	11	0.00379306	0.000000000000000E+000	3.70105e+07	0.000000000000000E+000	0.000000000000000E+000	2.73748	2.73748	0.0000000E+000	0.000000000000000E+000	0.0149536
1	1	0	0	0	0	0	1672.02	10	1.49785	9.99555	9.91491	9.91491	0	2.75414	11	0.003818	0.000000000000000E+000	3.69743e+07	0.000000000000000E+000	0.000000000000000E+000	2.75414	2.75414	0.0000000E+000	0.000000000000000E+000	0.0149718
1	1	0	0	0	0	0	1678.02	10	1.49935	9.99548	9.97489	9.97489	0	2.7708	11	0.00384297	0.000000000000000E+000	3.69906e+07	0.000000000000000E+000	0.000000000000000E+000	2.7708	2.7708	0.0000000E+000	0.000000000000000E+000	0.0149867
1	1	0	0	0	0	0	1684.02	10	1.49907	9.99542	10.0349	10.0349	0	2.78746	11	0.00386796	0.000000000000000E+000	3.72524e+07	0.000000000000000E+000	0.000000000000000E+000	2.78746	2.78746	0.0000000E+000	0.000000000000000E+000	0.0149838
1	1	0	0	0	0	0	1690.02	10	1.50078	9.99599	10.0948	10.0948	0	2.80412	11	0.00389295	0.000000000000000E+000	3.72387e+07	0.000000000000000E+000	0.000000000000000E+000	2.80412	2.80412	0.0000000E+000	0.000000000000000E+000	0.0150017
1	1	0	0	0	0	0	1696.02	10	1.50203	9.99593	10.1548	10.1548	0	2.82078	11	0.00391796	0.000000000000000E+000	3.72869e+07	0.000000000000000E+000	0.000000000000000E+000	2.82078	2.82078	0.0000000E+000	0.000000000000000E+000	0.0150142
1	1	0	0	0	0	0	1702.02	10	1.50526	9.99542	10.2148	10.2148	0	2.83744	11	0.00394302	0.000000000000000E+000	3.70678e+07	0.000000000000000E+000	0.000000000000000E+000	2.83744	2.83744	0.0000000E+000	0.000000000000000E+000	0.0150457
1	1	0	0	0	0	0	1708.02	10	1.50661	9.99599	10.2748	10.2748	0	2.8541	11	0.00396811	0.000000000000000E+000	3.71044e+07	0.000000000000000E+000	0.000000000000000E+000	2.8541	2.8541	0.0000000E+000	0.000000000000000E+000	0.01506
1	1	0	0	0	0	0	1714.02	10	1.5073	9.99561	10.3347	10.3347	0	2.87076	11	0.00399322	0.000000000000000E+000	3.72274e+07	0.000000000000000E+000	0.000000000000000E+000	2.87076	2.87076	0.0000000E+000	0.000000000000000E+000	0.0150664
1	1	0	0	0	0	0	1715.73	10	5.14477	9.99606	10.3518	10.3518	0	2.87551	11	0.00400035	0.000000000000000E+000	2.64409e+06	0.000000000000000E+000	0.000000000000000E+000	2.87551	2.87551	0.0000000E+000	0.000000000000000E+000	0.0514274