File: Lares Oxides/2024-6-19 FeOx on FTO_1_03mg_01_PEIS_C05.mpt
EC-Lab ASCII FILE
Nb header lines : 65

Potentio Electrochemical Impedance Spectroscopy

Run on channel : 5 (SN 39658)
User :
CE vs. WE compliance from -10 V to 10 V
Electrode connection : standard
Potential control : Ewe
Ewe ctrl range : min = -2.50 V, max = 2.50 V
Safety Limits :
	Do not start on E overload
Acquisition started on : 06/19/2024 15:35:49.269
Technique started on : 06/19/2024 15:35:50.807
Loaded Setting File :  NONE
Saved on :
	File : 2024-6-19 FeOx on FTO_1_03mg_01_PEIS_C05.mpr
	Directory : C:\Users\sfolkman\OneDrive - New Mexico State University\Folkman Group Folder\Scott\
	Host : 172.24.124.15
Device : VSP (SN 1910)
Address : USB
EC-Lab for windows v11.46 (software)
Internet server v11.40 (firmware)
Command interpretor v11.40 (firmware)
Electrode material :
Initial state :
Electrolyte :
Comments :
Current amplifier : VSPB-4A
Electrode surface area : 0.001 cm²
Characteristic mass : 0.001 g
Equivalent Weight : 0.000 g/eq.
Density : 0.000 g/cm3
Volume (V) : 0.001 cm³
Cycle Definition : Charge/Discharge alternance
Mode                Single sine
E (V)               0.0000
vs.                 Eoc
tE (h:m:s)          0:00:0.0000
record              0
dI                  0.000
unit dI             mA
dt (s)              0.000
fi                  200.000
unit fi             kHz
ff                  100.000
unit ff             mHz
Nd                  6
Points              per decade
spacing             Logarithmic
Va (mV)             10.0
pw                  0.10
Na                  2
corr                0
E range min (V)     -2.500
E range max (V)     2.500
I Range             Auto
Bandwidth           4
nc cycles           0
goto Ns'            0
nr cycles           0
inc. cycle          0

freq/Hz	Re(Z)/Ohm	-Im(Z)/Ohm	|Z|/Ohm	Phase(Z)/deg	time/s	<Ewe>/V	<I>/mA	Cs/µF	Cp/µF	cycle number	I Range	|Ewe|/V	|I|/A	Ns	(Q-Qo)/mA.h	Re(Y)/Ohm-1	Im(Y)/Ohm-1	|Y|/Ohm-1	Phase(Y)/deg	Re(C)/nF	Im(C)/nF	|C|/nF	Phase(C)/deg	Re(M)	Im(M)	|M|	Phase(M)/deg	Re(Permittivity)	Im(Permittivity)	|Permittivity|	Phase(Permittivity)/deg	Re(Resistivity)/Ohm.cm	Im(Resistivity)/Ohm.cm	|Resistivity|/Ohm.cm	Phase(Resistivity)/deg	Re(Conductivity)/mS/cm	Im(Conductivity)/mS/cm	|Conductivity|/mS/cm	Phase(Conductivity)/deg	Tan(Delta)	Loss Angle(Delta)/deg	dq/mA.h
199998	9.28652	15.816	18.3408	-59.5802	1.53848	0.0427792	-0.0132126	0.0503151	0.0374157	1	10	0.0093661	0.00051067	0	-6.1234e-06	0.0276068	0.0470175	0.0545233	59.5802	37.4157	21.969	43.3886	-30.4198	0.0000000E+000	0.0000000E+000	0.0000000E+000	30.4198	0.0000000E+000	0.0000000E+000	0.0000000E+000	-30.4198	0.0000000E+000	0.0000000E+000	0.0000000E+000	-59.5802	0.0000000E+000	0.0000000E+000	0.0000000E+000	59.5802	0.58716	59.5802	-6.1234e-06
135123	13.4687	13.8131	19.2926	-45.7232	2.13348	0.0428418	-0.0130786	0.085271	0.0437117	1	10	0.0101306	0.000525104	0	-1.15064e-05	0.0361861	0.0371113	0.0518332	45.7232	43.7117	42.6219	61.052	-44.2768	0.0000000E+000	0.0000000E+000	0.0000000E+000	44.2768	0.0000000E+000	0.0000000E+000	0.0000000E+000	-44.2768	0.0000000E+000	0.0000000E+000	0.0000000E+000	-45.7232	0.0000000E+000	0.0000000E+000	0.0000000E+000	45.7232	0.975069	45.7232	-5.38302e-06
91291.2	17.6539	10.3332	20.4557	-30.3413	2.72848	0.0428756	-0.0124774	0.168717	0.0430524	1	10	0.0101434	0.000495873	0	-1.57361e-05	0.0421904	0.0246948	0.0488862	30.3413	43.0524	73.5537	85.2271	-59.6587	0.0000000E+000	0.0000000E+000	0.0000000E+000	59.6587	0.0000000E+000	0.0000000E+000	0.0000000E+000	-59.6587	0.0000000E+000	0.0000000E+000	0.0000000E+000	-30.3413	0.0000000E+000	0.0000000E+000	0.0000000E+000	30.3413	1.70847	30.3413	-4.22966e-06
61674.2	18.887	6.00683	19.8192	-17.6428	3.1745	0.0428672	-0.0125965	0.429607	0.0394629	1	10	0.0106408	0.000536891	0	-1.3119e-05	0.0480828	0.0152923	0.0504561	17.6428	39.4629	124.081	130.206	-72.3572	0.0000000E+000	0.0000000E+000	0.0000000E+000	72.3572	0.0000000E+000	0.0000000E+000	0.0000000E+000	-72.3572	0.0000000E+000	0.0000000E+000	0.0000000E+000	-17.6428	0.0000000E+000	0.0000000E+000	0.0000000E+000	17.6428	3.14426	17.6428	2.61709e-06
41669.8	18.3599	3.60752	18.7109	-11.1164	3.62048	0.0428717	-0.0128646	1.05874	0.0393567	1	10	0.0104986	0.000561096	0	-9.86023e-06	0.052442	0.0103043	0.0534447	11.1164	39.3567	200.299	204.129	-78.8836	0.0000000E+000	0.0000000E+000	0.0000000E+000	78.8836	0.0000000E+000	0.0000000E+000	0.0000000E+000	-78.8836	0.0000000E+000	0.0000000E+000	0.0000000E+000	-11.1164	0.0000000E+000	0.0000000E+000	0.0000000E+000	11.1164	5.08932	11.1164	3.25875e-06
28151	17.9084	2.74766	18.118	-8.72278	4.06648	0.0428648	-0.0129706	2.05761	0.0473227	1	10	0.0103772	0.000572759	0	-1.39029e-05	0.0545554	0.00837034	0.0551938	8.72278	47.3227	308.435	312.045	-81.2772	0.0000000E+000	0.0000000E+000	0.0000000E+000	81.2772	0.0000000E+000	0.0000000E+000	0.0000000E+000	-81.2772	0.0000000E+000	0.0000000E+000	0.0000000E+000	-8.72278	0.0000000E+000	0.0000000E+000	0.0000000E+000	8.72278	6.5177	8.72278	-4.04269e-06
19020.9	17.7011	2.59319	17.8901	-8.33444	4.5125	0.0428755	-0.0134192	3.22667	0.0677949	1	10	0.0103372	0.000577818	0	-1.43043e-05	0.0553066	0.00810231	0.0558969	8.33444	67.7949	462.77	467.709	-81.6656	0.0000000E+000	0.0000000E+000	0.0000000E+000	81.6656	0.0000000E+000	0.0000000E+000	0.0000000E+000	-81.6656	0.0000000E+000	0.0000000E+000	0.0000000E+000	-8.33444	0.0000000E+000	0.0000000E+000	0.0000000E+000	8.33444	6.82602	8.33444	-4.01347e-07
12850.7	17.6778	2.77193	17.8938	-8.91159	4.95849	0.0428638	-0.0130786	4.46797	0.107219	1	10	0.0103522	0.000578534	0	-1.87953e-05	0.0552108	0.00865722	0.0558854	8.91159	107.219	683.78	692.135	-81.0884	0.0000000E+000	0.0000000E+000	0.0000000E+000	81.0884	0.0000000E+000	0.0000000E+000	0.0000000E+000	-81.0884	0.0000000E+000	0.0000000E+000	0.0000000E+000	-8.91159	0.0000000E+000	0.0000000E+000	0.0000000E+000	8.91159	6.37743	8.91159	-4.49099e-06
8683.37	17.6903	3.33544	18.002	-10.6776	5.432	0.0429057	-0.0120698	5.49513	0.188645	1	10	0.0101584	0.000564294	0	-2.02922e-05	0.0545877	0.0102923	0.0555495	10.6776	188.645	1000.52	1018.15	-79.3224	0.0000000E+000	0.0000000E+000	0.0000000E+000	79.3224	0.0000000E+000	0.0000000E+000	0.0000000E+000	-79.3224	0.0000000E+000	0.0000000E+000	0.0000000E+000	-10.6776	0.0000000E+000	0.0000000E+000	0.0000000E+000	10.6776	5.30372	10.6776	-1.4969e-06
5865.09	17.772	4.31625	18.2886	-13.651	6.06986	0.0428235	-0.0166502	6.28694	0.350178	1	10	0.0101119	0.000552906	0	-2.10785e-05	0.0531341	0.0129046	0.0546787	13.651	350.178	1441.85	1483.76	-76.349	0.0000000E+000	0.0000000E+000	0.0000000E+000	76.349	0.0000000E+000	0.0000000E+000	0.0000000E+000	-76.349	0.0000000E+000	0.0000000E+000	0.0000000E+000	-13.651	0.0000000E+000	0.0000000E+000	0.0000000E+000	13.651	4.11747	13.651	-7.86388e-07
3961.2	17.847	6.00901	18.8314	-18.6082	6.54495	0.0428982	-0.0149547	6.68637	0.680816	1	10	0.0105782	0.000561731	0	-2.56267e-05	0.0503266	0.0169448	0.0531027	18.6082	680.816	2022.05	2133.59	-71.3918	0.0000000E+000	0.0000000E+000	0.0000000E+000	71.3918	0.0000000E+000	0.0000000E+000	0.0000000E+000	-71.3918	0.0000000E+000	0.0000000E+000	0.0000000E+000	-18.6082	0.0000000E+000	0.0000000E+000	0.0000000E+000	18.6082	2.97004	18.6082	-4.54817e-06
2677.43	17.9429	8.53096	19.8677	-25.4288	7.01893	0.0429012	-0.0150142	6.96793	1.28471	1	10	0.0108042	0.000543806	0	-3.03187e-05	0.0454567	0.0216124	0.0503329	25.4288	1284.71	2702.09	2991.95	-64.5712	0.0000000E+000	0.0000000E+000	0.0000000E+000	64.5712	0.0000000E+000	0.0000000E+000	0.0000000E+000	-64.5712	0.0000000E+000	0.0000000E+000	0.0000000E+000	-25.4288	0.0000000E+000	0.0000000E+000	0.0000000E+000	25.4288	2.10327	25.4288	-4.69202e-06
1808.26	17.9639	12.4198	21.8392	-34.6591	7.49295	0.0429032	-0.014616	7.08669	2.29191	1	10	0.0108542	0.000497003	0	-3.4267e-05	0.0376639	0.0260399	0.0457891	34.6591	2291.91	3315	4030.14	-55.3409	0.0000000E+000	0.0000000E+000	0.0000000E+000	55.3409	0.0000000E+000	0.0000000E+000	0.0000000E+000	-55.3409	0.0000000E+000	0.0000000E+000	0.0000000E+000	-34.6591	0.0000000E+000	0.0000000E+000	0.0000000E+000	34.6591	1.44639	34.6591	-3.94826e-06
1221.96	18.0894	18.1623	25.6339	-45.1153	7.96644	0.0429035	-0.015554	7.17122	3.60004	1	10	0.0108166	0.000421965	0	-3.85727e-05	0.0275293	0.0276403	0.0390108	45.1153	3600.04	3585.58	5081.01	-44.8847	0.0000000E+000	0.0000000E+000	0.0000000E+000	44.8847	0.0000000E+000	0.0000000E+000	0.0000000E+000	-44.8847	0.0000000E+000	0.0000000E+000	0.0000000E+000	-45.1153	0.0000000E+000	0.0000000E+000	0.0000000E+000	45.1153	0.995983	45.1153	-4.30566e-06
825.264	18.266	26.7989	32.4319	-55.7218	8.93567	0.0428924	-0.00175505	7.19632	4.9136	1	11	0.0102175	0.000315046	0	-3.65042e-05	0.017366	0.0254784	0.0308338	55.7218	4913.6	3349.09	5946.41	-34.2782	0.0000000E+000	0.0000000E+000	0.0000000E+000	34.2782	0.0000000E+000	0.0000000E+000	0.0000000E+000	-34.2782	0.0000000E+000	0.0000000E+000	0.0000000E+000	-55.7218	0.0000000E+000	0.0000000E+000	0.0000000E+000	55.7218	0.681596	55.7218	2.06844e-06
558.036	18.5941	39.4251	43.5899	-64.75	9.41147	0.0428829	-0.00181594	7.23412	5.91779	1	11	0.00978896	0.00022457	0	-3.68426e-05	0.00978595	0.0207492	0.0229411	64.75	5917.79	2791.01	6542.94	-25.25	0.0000000E+000	0.0000000E+000	0.0000000E+000	25.25	0.0000000E+000	0.0000000E+000	0.0000000E+000	-25.25	0.0000000E+000	0.0000000E+000	0.0000000E+000	-64.75	0.0000000E+000	0.0000000E+000	0.0000000E+000	64.75	0.47163	64.75	-3.38371e-07
377.051	19.0838	58.1635	61.2142	-71.835	9.88265	0.0429022	-0.00183549	7.25721	6.55187	1	11	0.00953176	0.000155711	0	-3.80949e-05	0.00509286	0.0155219	0.0163361	71.835	6551.87	2149.72	6895.53	-18.165	0.0000000E+000	0.0000000E+000	0.0000000E+000	18.165	0.0000000E+000	0.0000000E+000	0.0000000E+000	-18.165	0.0000000E+000	0.0000000E+000	0.0000000E+000	-71.835	0.0000000E+000	0.0000000E+000	0.0000000E+000	71.835	0.328107	71.835	-1.25233e-06
254.755	20.2245	85.4649	87.8253	-76.6864	10.357	0.0428981	-0.00178299	7.30986	6.92222	1	11	0.00938601	0.000106871	0	-3.77589e-05	0.00262204	0.0110802	0.0113862	76.6864	6922.22	1638.08	7113.4	-13.3136	0.0000000E+000	0.0000000E+000	0.0000000E+000	13.3136	0.0000000E+000	0.0000000E+000	0.0000000E+000	-13.3136	0.0000000E+000	0.0000000E+000	0.0000000E+000	-76.6864	0.0000000E+000	0.0000000E+000	0.0000000E+000	76.6864	0.236641	76.6864	3.3604e-07
172.037	21.9295	125.662	127.561	-80.1009	10.8264	0.0428842	-0.00186379	7.36201	7.14442	1	11	0.00931852	7.30517e-05	0	-3.75034e-05	0.00134771	0.00772269	0.00783941	80.1009	7144.42	1246.79	7252.4	-9.89915	0.0000000E+000	0.0000000E+000	0.0000000E+000	9.89915	0.0000000E+000	0.0000000E+000	0.0000000E+000	-9.89915	0.0000000E+000	0.0000000E+000	0.0000000E+000	-80.1009	0.0000000E+000	0.0000000E+000	0.0000000E+000	80.1009	0.174513	80.1009	2.55475e-07
116.227	25.3439	183.78	185.52	-82.1483	11.2956	0.0428903	-0.00189767	7.45096	7.31191	1	11	0.00929457	5.01002e-05	0	-3.74808e-05	0.000736365	0.00533973	0.00539026	82.1483	7311.91	1008.33	7381.11	-7.85174	0.0000000E+000	0.0000000E+000	0.0000000E+000	7.85174	0.0000000E+000	0.0000000E+000	0.0000000E+000	-7.85174	0.0000000E+000	0.0000000E+000	0.0000000E+000	-82.1483	0.0000000E+000	0.0000000E+000	0.0000000E+000	82.1483	0.137903	82.1483	2.261e-08
78.5176	30.1412	269.018	270.701	-83.6072	12.0445	0.0428945	-0.00026336	7.5348	7.44139	1	12	0.00937818	3.4644e-05	0	-3.75114e-05	0.00041132	0.00367114	0.00369411	83.6072	7441.39	833.744	7487.95	-6.39285	0.0000000E+000	0.0000000E+000	0.0000000E+000	6.39285	0.0000000E+000	0.0000000E+000	0.0000000E+000	-6.39285	0.0000000E+000	0.0000000E+000	0.0000000E+000	-83.6072	0.0000000E+000	0.0000000E+000	0.0000000E+000	83.6072	0.112041	83.6072	-3.06219e-08
53.0478	34.7097	390.139	391.68	-84.9159	12.5331	0.0428993	-0.000213343	7.69013	7.62974	1	12	0.00933205	2.38257e-05	0	-3.75851e-05	0.00022625	0.00254306	0.00255311	84.9159	7629.74	678.799	7659.87	-5.08408	0.0000000E+000	0.0000000E+000	0.0000000E+000	5.08408	0.0000000E+000	0.0000000E+000	0.0000000E+000	-5.08408	0.0000000E+000	0.0000000E+000	0.0000000E+000	-84.9159	0.0000000E+000	0.0000000E+000	0.0000000E+000	84.9159	0.0889676	84.9159	-7.36926e-08
35.8372	41.488	576.169	577.661	-85.8814	12.9971	0.0428735	-0.000234452	7.70791	7.66815	1	12	0.00928519	1.60738e-05	0	-3.76086e-05	0.00012433	0.00172665	0.00173112	85.8814	7668.15	552.158	7688	-4.11857	0.0000000E+000	0.0000000E+000	0.0000000E+000	4.11857	0.0000000E+000	0.0000000E+000	0.0000000E+000	-4.11857	0.0000000E+000	0.0000000E+000	0.0000000E+000	-85.8814	0.0000000E+000	0.0000000E+000	0.0000000E+000	85.8814	0.0720066	85.8814	-2.34478e-08
24.2323	47.2284	831.069	832.409	-86.7475	13.4841	0.0429065	-0.000162656	7.90293	7.87749	1	12	0.00928973	1.11601e-05	0	-3.76933e-05	6.81599e-05	0.0011994	0.00120133	86.7475	7877.49	447.666	7890.2	-3.25253	0.0000000E+000	0.0000000E+000	0.0000000E+000	3.25253	0.0000000E+000	0.0000000E+000	0.0000000E+000	-3.25253	0.0000000E+000	0.0000000E+000	0.0000000E+000	-86.7475	0.0000000E+000	0.0000000E+000	0.0000000E+000	86.7475	0.0568285	86.7475	-8.47719e-08
16.367	53.0362	1228.16	1229.3	-87.5273	13.923	0.0428726	-0.000211333	7.91767	7.90293	1	12	0.00928002	7.54901e-06	0	-3.76846e-05	3.50957e-05	0.000812711	0.000813469	87.5273	7902.93	341.276	7910.3	-2.47269	0.0000000E+000	0.0000000E+000	0.0000000E+000	2.47269	0.0000000E+000	0.0000000E+000	0.0000000E+000	-2.47269	0.0000000E+000	0.0000000E+000	0.0000000E+000	-87.5273	0.0000000E+000	0.0000000E+000	0.0000000E+000	87.5273	0.0431835	87.5273	8.71504e-09
11.0502	59.5398	1813.07	1814.05	-88.1191	14.6037	0.0428786	-8.99559e-06	7.9439	7.93535	1	13	0.00930697	5.13049e-06	0	-3.77287e-05	1.80929e-05	0.000550955	0.000551252	88.1191	7935.35	260.59	7939.62	-1.88087	0.0000000E+000	0.0000000E+000	0.0000000E+000	1.88087	0.0000000E+000	0.0000000E+000	0.0000000E+000	-1.88087	0.0000000E+000	0.0000000E+000	0.0000000E+000	-88.1191	0.0000000E+000	0.0000000E+000	0.0000000E+000	88.1191	0.0328391	88.1191	-4.40821e-08
7.46893	75.8936	2659.77	2660.85	-88.3656	14.9416	0.0428758	-2.49008e-05	8.01156	8.00505	1	13	0.00927864	3.48709e-06	0	-3.77376e-05	1.07192e-05	0.000375666	0.000375819	88.3656	8005.05	228.415	8008.3	-1.63443	0.0000000E+000	0.0000000E+000	0.0000000E+000	1.63443	0.0000000E+000	0.0000000E+000	0.0000000E+000	-1.63443	0.0000000E+000	0.0000000E+000	0.0000000E+000	-88.3656	0.0000000E+000	0.0000000E+000	0.0000000E+000	88.3656	0.0285339	88.3656	-8.87464e-09
5.04683	200.213	3989.31	3994.33	-87.1269	15.4169	0.0429114	-5.83585e-05	7.90503	7.88517	1	13	0.00928586	2.32476e-06	0	-3.7741e-05	1.25489e-05	0.00025004	0.000250355	87.1269	7885.17	395.736	7895.09	-2.87312	0.0000000E+000	0.0000000E+000	0.0000000E+000	2.87312	0.0000000E+000	0.0000000E+000	0.0000000E+000	-2.87312	0.0000000E+000	0.0000000E+000	0.0000000E+000	-87.1269	0.0000000E+000	0.0000000E+000	0.0000000E+000	87.1269	0.0501874	87.1269	-3.46486e-09
3.4086	198.187	5752.63	5756.04	-88.0269	16.0852	0.0429002	6.78843e-07	8.11668	8.10706	1	13	0.0092703	1.61053e-06	0	-3.77069e-05	5.98173e-06	0.000173627	0.000173731	88.0269	8107.06	279.3	8111.87	-1.97314	0.0000000E+000	0.0000000E+000	0.0000000E+000	1.97314	0.0000000E+000	0.0000000E+000	0.0000000E+000	-1.97314	0.0000000E+000	0.0000000E+000	0.0000000E+000	-88.0269	0.0000000E+000	0.0000000E+000	0.0000000E+000	88.0269	0.0344515	88.0269	3.41605e-08
2.30321	244.907	8318.53	8322.13	-88.3136	17.5411	0.0429123	-2.65617e-05	8.30691	8.29972	1	14	0.00927063	1.11397e-06	0	-3.77371e-05	3.53615e-06	0.00012011	0.000120162	88.3136	8299.72	244.353	8303.31	-1.68636	0.0000000E+000	0.0000000E+000	0.0000000E+000	1.68636	0.0000000E+000	0.0000000E+000	0.0000000E+000	-1.68636	0.0000000E+000	0.0000000E+000	0.0000000E+000	-88.3136	0.0000000E+000	0.0000000E+000	0.0000000E+000	88.3136	0.0294411	88.3136	-3.02008e-08
1.55627	257.096	11665.5	11668.3	-88.7375	18.9375	0.0428849	0.000116574	8.76658	8.76233	1	14	0.0092883	7.96026e-07	0	-3.77361e-05	1.88832e-06	8.56812e-05	8.5702e-05	88.7375	8762.33	193.113	8764.45	-1.26254	0.0000000E+000	0.0000000E+000	0.0000000E+000	1.26254	0.0000000E+000	0.0000000E+000	0.0000000E+000	-1.26254	0.0000000E+000	0.0000000E+000	0.0000000E+000	-88.7375	0.0000000E+000	0.0000000E+000	0.0000000E+000	88.7375	0.022039	88.7375	9.87468e-10
1.05233	186.256	18369.5	18370.4	-89.4191	20.9796	0.0428965	-1.93606e-06	8.23324	8.2324	1	14	0.00927414	5.04841e-07	0	-3.7668e-05	5.51913e-07	5.44325e-05	5.44353e-05	89.4191	8232.4	83.4716	8232.82	-0.580925	0.0000000E+000	0.0000000E+000	0.0000000E+000	0.580925	0.0000000E+000	0.0000000E+000	0.0000000E+000	-0.580925	0.0000000E+000	0.0000000E+000	0.0000000E+000	-89.4191	0.0000000E+000	0.0000000E+000	0.0000000E+000	89.4191	0.0101394	89.4191	6.81317e-08
0.710357	-758.712	32023.4	32032.4	-91.3572	23.9822	0.0428827	-8.69431e-06	6.99643	6.9925	1	14	0.00926174	2.89137e-07	0	-3.77202e-05	-7.39433e-07	3.12097e-05	3.12184e-05	91.3572	6992.5	-165.67	6994.47	1.35722	0.0000000E+000	0.0000000E+000	0.0000000E+000	-1.35722	0.0000000E+000	0.0000000E+000	0.0000000E+000	1.35722	0.0000000E+000	0.0000000E+000	0.0000000E+000	-91.3572	0.0000000E+000	0.0000000E+000	0.0000000E+000	91.3572	-0.0236924	91.3572	-5.22662e-08
0.480355	669.584	40378.9	40384.4	-89.05	28.4007	0.0429088	-6.70547e-06	8.20546	8.20321	1	14	0.00926485	2.29416e-07	0	-3.77333e-05	4.10559e-07	2.47586e-05	2.4762e-05	89.05	8203.21	136.03	8204.33	-0.95002	0.0000000E+000	0.0000000E+000	0.0000000E+000	0.95002	0.0000000E+000	0.0000000E+000	0.0000000E+000	-0.95002	0.0000000E+000	0.0000000E+000	0.0000000E+000	-89.05	0.0000000E+000	0.0000000E+000	0.0000000E+000	89.05	0.0165825	89.05	-1.31032e-08
0.324439	2500.84	59657.1	59709.5	-87.5996	34.9211	0.0429043	-1.39404e-06	8.22289	8.20847	1	14	0.00926103	1.55102e-07	0	-3.76861e-05	7.01453e-07	1.67331e-05	1.67478e-05	87.5996	8208.47	344.101	8215.68	-2.40044	0.0000000E+000	0.0000000E+000	0.0000000E+000	2.40044	0.0000000E+000	0.0000000E+000	0.0000000E+000	-2.40044	0.0000000E+000	0.0000000E+000	0.0000000E+000	-87.5996	0.0000000E+000	0.0000000E+000	0.0000000E+000	87.5996	0.0419202	87.5996	4.72142e-08
0.218838	11803.7	98213.9	98920.6	-83.1468	44.5658	0.0429029	5.59721e-06	7.40501	7.29957	1	14	0.00926318	9.36426e-08	0	-3.76766e-05	1.20627e-06	1.00369e-05	1.01091e-05	83.1468	7299.57	877.293	7352.1	-6.85317	0.0000000E+000	0.0000000E+000	0.0000000E+000	6.85317	0.0000000E+000	0.0000000E+000	0.0000000E+000	-6.85317	0.0000000E+000	0.0000000E+000	0.0000000E+000	-83.1468	0.0000000E+000	0.0000000E+000	0.0000000E+000	83.1468	0.120184	83.1468	9.52584e-09
0.147897	1432.48	166313	166319	-89.5065	58.8156	0.0429018	5.42181e-06	6.47047	6.46999	1	14	0.00926203	5.56884e-08	0	-3.764e-05	5.1785e-08	6.01232e-06	6.01255e-06	89.5065	6469.99	55.727	6470.23	-0.493484	0.0000000E+000	0.0000000E+000	0.0000000E+000	0.493484	0.0000000E+000	0.0000000E+000	0.0000000E+000	-0.493484	0.0000000E+000	0.0000000E+000	0.0000000E+000	-89.5065	0.0000000E+000	0.0000000E+000	0.0000000E+000	89.5065	0.00861316	89.5065	3.65647e-08
0.0999041	9104.12	184758	184982	-87.179	79.8905	0.0429028	-7.76496e-07	8.62251	8.60162	1	14	0.009265	5.0086e-08	0	-3.76892e-05	2.66059e-07	5.39938e-06	5.40593e-06	87.179	8601.62	423.853	8612.06	-2.82102	0.0000000E+000	0.0000000E+000	0.0000000E+000	2.82102	0.0000000E+000	0.0000000E+000	0.0000000E+000	-2.82102	0.0000000E+000	0.0000000E+000	0.0000000E+000	-87.179	0.0000000E+000	0.0000000E+000	0.0000000E+000	87.179	0.049276	87.179	-4.92075e-08