File: Lares Oxides/2024-6-21 NiOx on FTO_2_50mg_02_CV_C05.mpt
EC-Lab ASCII FILE
Nb header lines : 59

Cyclic Voltammetry

Run on channel : 5 (SN 39658)
User :
CE vs. WE compliance from -10 V to 10 V
Electrode connection : standard
Potential control : Ewe
Ewe ctrl range : min = -2.50 V, max = 2.50 V
Safety Limits :
	Do not start on E overload
Acquisition started on : 06/21/2024 11:53:45.401
Technique started on : 06/21/2024 12:00:09.817
Loaded Setting File :  NONE
Saved on :
	File : 2024-6-21 NiOx on FTO_2_50mg_02_CV_C05.mpr
	Directory : C:\Users\sfolkman\OneDrive - New Mexico State University\Folkman Group Folder\Scott\
	Host : 172.24.124.15
Device : VSP (SN 1910)
Address : USB
EC-Lab for windows v11.46 (software)
Internet server v11.40 (firmware)
Command interpretor v11.40 (firmware)
Electrode material :
Initial state :
Electrolyte :
Comments :
Current amplifier : VSPB-4A
Electrode surface area : 0.001 cm²
Characteristic mass : 0.001 g
Equivalent Weight : 0.000 g/eq.
Density : 0.000 g/cm3
Volume (V) : 0.001 cm³
Cycle Definition : Charge/Discharge alternance
Ei (V)              0.000
vs.                 Eoc
dE/dt               10.000
dE/dt unit          mV/s
E1 (V)              1.000
vs.                 Ref
Step percent        50
N                   10
E range min (V)     -2.500
E range max (V)     2.500
I Range             Auto
I Range min         Unset
I Range max         Unset
I Range init        Unset
Bandwidth           4
E2 (V)              0.000
vs.                 Ref
nc cycles           2
Reverse Scan        1
Ef (V)              0.000
vs.                 Eoc

mode	ox/red	error	control changes	counter inc.	time/s	control/V	Ewe/V	<I>/mA	cycle number	(Q-Qo)/C	I Range	P/W
2	1	0	1	0	384.416	0.247197	0.247898	0.00103766	1	0.0000000E+000	13	2.57233e-07
2	0	0	0	0	385.271	0.255749	0.256593	7.59371e-05	1	5.00405e-08	13	1.9485e-08
2	1	0	1	0	386.171	0.264752	0.264302	7.48662e-05	1	1.5743e-07	13	1.97873e-08
2	1	0	1	0	387.072	0.273755	0.274232	0.000219938	1	2.94646e-07	13	6.03141e-08
2	0	0	0	0	387.972	0.282757	0.283612	0.000420537	1	4.5823e-07	13	1.19269e-07
2	0	0	1	0	388.872	0.29176	0.292356	0.000619281	1	6.4613e-07	13	1.8105e-07
2	0	0	1	0	389.772	0.300763	0.301455	0.000591449	1	8.57323e-07	13	1.78295e-07
2	0	0	0	0	390.673	0.309766	0.309817	0.000358477	1	1.09607e-06	13	1.11062e-07
2	0	0	0	0	391.573	0.318769	0.318588	0.000249363	1	1.36324e-06	13	7.94441e-08
2	0	0	1	0	392.473	0.327771	0.327997	0.000417963	1	1.66414e-06	13	1.37091e-07
2	0	0	0	0	393.373	0.336774	0.337403	0.000726755	1	1.9987e-06	13	2.4521e-07
2	0	0	0	0	394.274	0.345777	0.346225	0.000772359	1	2.37034e-06	13	2.6741e-07
2	0	0	1	0	395.174	0.35478	0.355317	0.000472919	1	2.77471e-06	13	1.68036e-07
2	1	0	1	0	396.074	0.363783	0.36409	0.000120628	1	3.21626e-06	13	4.39193e-08
2	0	0	0	0	396.975	0.372785	0.373226	0.000208544	1	3.69305e-06	13	7.7834e-08
2	1	0	1	0	397.875	0.381788	0.382112	0.000429212	1	4.20787e-06	13	1.64007e-07
2	0	0	1	0	398.775	0.390791	0.391692	0.000393445	1	4.76171e-06	13	1.54109e-07
2	1	0	0	0	399.675	0.399794	0.400426	0.000155591	1	5.35786e-06	13	6.23029e-08
2	1	0	0	0	400.576	0.408797	0.409723	0.000136569	1	6.002e-06	13	5.59554e-08
2	1	0	1	0	401.476	0.417799	0.418739	0.000455545	1	6.69416e-06	13	1.90754e-07
2	1	0	0	0	402.376	0.426802	0.427541	0.000683463	1	7.43792e-06	13	2.92209e-07
2	1	0	0	0	403.277	0.435805	0.436036	0.000483279	1	8.23473e-06	13	2.10727e-07
2	1	0	1	0	404.177	0.444808	0.44498	0.000366921	1	9.08683e-06	13	1.63272e-07
2	1	0	1	0	405.077	0.453809	0.454556	0.000747582	1	1.00022e-05	13	3.39818e-07
2	0	0	0	0	405.977	0.462813	0.463983	0.00121832	1	1.09925e-05	13	5.65278e-07
2	1	0	1	0	406.878	0.471816	0.473095	0.0013422	1	1.20629e-05	13	6.34989e-07
2	0	0	1	0	407.778	0.480819	0.480888	0.00129552	1	1.32213e-05	13	6.23e-07
2	0	0	0	0	408.678	0.489822	0.490136	0.00157409	1	1.44811e-05	13	7.71519e-07
2	0	0	1	0	409.579	0.498824	0.499293	0.00206408	1	1.58622e-05	13	1.03058e-06
2	0	0	1	0	410.479	0.507827	0.508475	0.00218572	1	1.73793e-05	13	1.11138e-06
2	0	0	0	0	411.379	0.51683	0.517693	0.00208296	1	1.90627e-05	13	1.07833e-06
2	0	0	0	0	412.279	0.525833	0.526252	0.00227114	1	2.09517e-05	13	1.19519e-06
2	0	0	1	0	413.18	0.534836	0.535457	0.00277946	1	2.30977e-05	13	1.48828e-06
2	0	0	1	0	414.11	0.544138	0.544446	0.00258003	1	2.53582e-05	12	1.40469e-06
2	0	0	0	0	415.01	0.553141	0.553149	0.00315487	1	2.82536e-05	12	1.74511e-06
2	0	0	1	0	415.91	0.562144	0.562626	0.00520958	1	3.19093e-05	12	2.93104e-06
2	0	0	1	0	416.811	0.571147	0.571901	0.00721201	1	3.67283e-05	12	4.12456e-06
2	0	0	0	0	417.711	0.58015	0.581261	0.00869454	1	4.33842e-05	12	5.0538e-06
2	0	0	1	0	418.611	0.589152	0.58987	0.0120908	1	5.30421e-05	12	7.132e-06
2	1	0	1	0	419.512	0.598155	0.598116	0.0205418	1	6.79549e-05	12	1.22864e-05
2	1	0	0	0	420.412	0.607158	0.607513	0.0357418	1	9.26177e-05	12	2.17136e-05
2	1	0	0	0	421.312	0.616161	0.617151	0.0596447	1	0.000134885	12	3.68097e-05
2	1	0	1	0	422.212	0.625164	0.625933	0.0972892	1	0.000205792	12	6.08965e-05
2	1	0	1	0	423.113	0.634166	0.634857	0.151743	1	0.000318556	12	9.6335e-05
2	1	0	0	0	424.013	0.643169	0.643439	0.222628	1	0.000487169	12	0.000143248
2	1	0	1	0	424.913	0.652172	0.652654	0.306918	1	0.000725248	12	0.000200311
2	1	0	1	0	425.814	0.661175	0.661736	0.402197	1	0.00104518	12	0.000266148
2	1	0	0	0	426.714	0.670177	0.67125	0.509124	1	0.00145723	12	0.00034175
2	1	0	1	0	427.614	0.67918	0.679764	0.627311	1	0.0019704	12	0.000426424
2	1	0	1	0	428.514	0.688183	0.688753	0.753105	1	0.00259233	12	0.000518704
2	1	0	0	0	429.415	0.697186	0.697951	0.885208	1	0.00333009	12	0.000617832
2	1	0	0	0	430.315	0.706189	0.706793	1.02515	1	0.00419116	12	0.000724566
2	1	0	1	0	431.245	0.715492	0.716151	1.17725	1	0.00521863	11	0.000843091
2	1	0	1	0	432.146	0.724494	0.724814	1.33534	1	0.00635085	11	0.00096787
2	1	0	0	0	433.046	0.733497	0.73361	1.50053	1	0.00762826	11	0.00110081
2	1	0	1	0	433.946	0.7425	0.742717	1.67297	1	0.00905777	11	0.00124255
2	1	0	1	0	434.846	0.751503	0.752317	1.85415	1	0.0106476	11	0.00139491
2	1	0	0	0	435.747	0.760505	0.761142	2.04503	1	0.0124044	11	0.00155656
2	1	0	1	0	436.647	0.769508	0.769817	2.24504	1	0.0143365	11	0.00172827
2	1	0	1	0	437.547	0.778511	0.779021	2.45241	1	0.0164509	11	0.00191048
2	1	0	0	0	438.447	0.787514	0.787951	2.66748	1	0.018755	11	0.00210184
2	1	0	0	0	439.348	0.796516	0.797216	2.8906	1	0.0212571	11	0.00230443
2	1	0	1	0	440.248	0.805519	0.806158	3.11912	1	0.023962	11	0.0025145
2	1	0	1	0	441.148	0.814523	0.814756	3.35324	1	0.0268763	11	0.00273207
2	1	0	0	0	442.049	0.823525	0.824436	3.59254	1	0.0300044	11	0.00296182
2	1	0	1	0	442.949	0.832528	0.833085	3.83485	1	0.0333477	11	0.00319475
2	1	0	1	0	443.849	0.84153	0.842157	4.07512	1	0.036908	11	0.00343189
2	1	0	0	0	444.749	0.850533	0.851294	4.30902	1	0.0406808	11	0.00366824
2	1	0	1	0	445.65	0.859536	0.859992	4.53269	1	0.0446608	11	0.00389807
2	1	0	1	0	446.55	0.868539	0.869469	4.74052	1	0.048836	11	0.00412173
2	1	0	0	0	447.45	0.877542	0.87785	4.92928	1	0.0531899	11	0.00432717
2	1	0	0	0	448.351	0.886545	0.88757	5.094	1	0.0577053	11	0.00452129
2	1	0	1	0	449.251	0.895547	0.896131	5.23168	1	0.0623548	11	0.00468827
2	1	0	1	0	450.151	0.90455	0.905454	5.32583	1	0.067109	11	0.0048223
2	1	0	0	0	451.051	0.913553	0.914105	5.38342	1	0.0719342	11	0.00492101
2	1	0	1	0	451.952	0.922556	0.92289	5.39753	1	0.0767891	11	0.00498133
2	1	0	1	0	452.852	0.931558	0.932074	5.36201	1	0.0816372	11	0.00499779
2	1	0	0	0	453.752	0.940561	0.941095	5.25789	1	0.0864239	11	0.00494818
2	1	0	1	0	454.652	0.949564	0.950379	5.05221	1	0.0910684	11	0.00480151
2	1	0	1	0	455.553	0.958567	0.959213	4.83071	1	0.0955207	11	0.00463368
2	1	0	0	0	456.453	0.96757	0.967954	4.65629	1	0.0997806	11	0.00450708
2	1	0	0	0	457.353	0.976572	0.977051	4.60394	1	0.10394	11	0.00449829
2	1	0	1	0	458.254	0.985575	0.98613	4.64508	1	0.108109	11	0.00458065
2	1	0	0	0	459.154	0.994578	0.995089	4.71713	1	0.112324	11	0.00469396
2	1	0	0	0	459.955	0.997479	0.998128	4.67591	1	0.116132	11	0.00466716
2	1	0	1	0	460.855	0.988477	0.988861	4.28901	1	0.12017	11	0.00424123
2	1	0	1	0	461.755	0.979473	0.979925	3.95736	1	0.123884	11	0.00387791
2	1	0	0	0	462.655	0.97047	0.971274	3.64897	1	0.1273	11	0.00354415
2	1	0	0	0	463.556	0.961468	0.962704	3.42813	1	0.130488	11	0.00330027
2	1	0	1	0	464.456	0.952465	0.953472	3.18507	1	0.133468	11	0.00303687
2	1	0	1	0	465.356	0.943462	0.943686	2.93693	1	0.136228	11	0.00277154
2	1	0	0	0	466.257	0.934459	0.93514	2.67513	1	0.138756	11	0.00250162
2	1	0	1	0	467.157	0.925457	0.925927	2.40832	1	0.14104	11	0.00222993
2	1	0	1	0	468.057	0.916454	0.917463	2.17182	1	0.143101	11	0.00199257
2	1	0	0	0	468.957	0.907451	0.908058	1.95344	1	0.144954	11	0.00177384
2	1	0	1	0	469.858	0.898448	0.899003	1.74876	1	0.146618	11	0.00157215
2	1	0	1	0	470.758	0.889445	0.890033	1.54567	1	0.1481	11	0.0013757
2	1	0	0	0	471.658	0.880443	0.880593	1.36443	1	0.149407	11	0.00120151
2	1	0	0	0	472.559	0.87144	0.871837	1.19859	1	0.150558	11	0.00104498
2	1	0	1	0	473.459	0.862437	0.862956	1.04869	1	0.151566	11	0.000904975
2	1	0	1	0	474.359	0.853434	0.854052	0.919468	1	0.152448	11	0.000785273
2	1	0	0	0	475.259	0.844431	0.845311	0.80374	1	0.15322	11	0.00067941
2	1	0	1	0	476.16	0.835429	0.835855	0.700341	1	0.153895	11	0.000585384
2	1	0	1	0	477.06	0.826426	0.826726	0.608206	1	0.154481	11	0.000502819
2	1	0	0	0	477.96	0.817423	0.818206	0.527995	1	0.154991	11	0.000432009
2	1	0	1	0	478.861	0.80842	0.809018	0.459854	1	0.155434	11	0.00037203
2	1	0	1	0	479.791	0.799117	0.799188	0.399923	1	0.155833	12	0.000319614
2	1	0	0	0	480.691	0.790115	0.790468	0.348104	1	0.156167	12	0.000275165
2	1	0	0	0	481.591	0.781112	0.781725	0.300713	1	0.156458	12	0.000235075
2	1	0	1	0	482.492	0.772109	0.773212	0.261737	1	0.15671	12	0.000202378
2	1	0	1	0	483.392	0.763107	0.763421	0.228427	1	0.15693	12	0.000174386
2	1	0	0	0	484.292	0.754103	0.754995	0.200539	1	0.157123	12	0.000151406
2	1	0	1	0	485.192	0.745101	0.745815	0.175816	1	0.157291	12	0.000131126
2	1	0	1	0	486.093	0.736098	0.736313	0.153756	1	0.157438	12	0.000113213
2	1	0	0	0	486.993	0.727095	0.72747	0.133707	1	0.157567	12	9.72677e-05
2	1	0	1	0	487.893	0.718092	0.718599	0.116499	1	0.157681	12	8.37159e-05
2	1	0	1	0	488.794	0.70909	0.709101	0.102457	1	0.15778	12	7.2652e-05
2	1	0	0	0	489.694	0.700087	0.700737	0.0900563	1	0.157866	12	6.31058e-05
2	1	0	0	0	490.594	0.691084	0.6912	0.0786006	1	0.157942	12	5.43287e-05
2	1	0	1	0	491.494	0.682081	0.68217	0.0673102	1	0.158007	12	4.5917e-05
2	1	0	1	0	492.395	0.673078	0.674122	0.0579225	1	0.158064	12	3.90468e-05
2	1	0	0	0	493.295	0.664076	0.664531	0.050526	1	0.158114	12	3.35761e-05
2	1	0	1	0	494.195	0.655073	0.655969	0.0443571	1	0.158156	12	2.90968e-05
2	1	0	1	0	495.096	0.64607	0.646204	0.0382716	1	0.158193	12	2.47313e-05
2	1	0	0	0	495.996	0.637067	0.637385	0.0320549	1	0.158224	12	2.04313e-05
2	1	0	1	0	496.896	0.628064	0.629054	0.026755	1	0.158251	12	1.68304e-05
2	1	0	1	0	497.796	0.619062	0.619836	0.0226571	1	0.158273	12	1.40437e-05
2	1	0	0	0	498.697	0.610059	0.610883	0.0197046	1	0.158292	12	1.20372e-05
2	1	0	0	0	499.597	0.601056	0.600999	0.0167759	1	0.158307	12	1.00823e-05
2	0	0	1	0	500.497	0.592053	0.592772	0.0132905	1	0.158319	12	7.87822e-06
2	0	0	1	0	501.398	0.58305	0.5843	0.0101932	1	0.158329	12	5.95591e-06
2	0	0	0	0	502.298	0.574048	0.574483	0.00707567	1	0.158336	12	4.06485e-06
2	0	0	1	0	503.198	0.565045	0.565466	0.00430835	1	0.158341	12	2.43623e-06
2	0	0	1	0	504.098	0.556042	0.556808	0.0026071	1	0.158344	12	1.45165e-06
2	0	0	0	0	504.999	0.547039	0.547892	0.00135391	1	0.158345	12	7.41798e-07
2	0	0	1	0	505.899	0.538037	0.538705	-0.000528907	1	0.158344	12	-2.84925e-07
2	0	0	1	0	506.799	0.529034	0.530196	-0.00242369	1	0.158342	12	-1.28503e-06
2	1	0	0	0	507.699	0.520031	0.520083	-0.00434667	1	0.158338	12	-2.26063e-06
2	0	0	0	0	508.6	0.511028	0.511614	-0.00668804	1	0.158333	12	-3.42169e-06
2	0	0	1	0	509.5	0.502025	0.502836	-0.00837964	1	0.158326	12	-4.21358e-06
2	0	0	0	0	510.4	0.493023	0.493382	-0.00993351	1	0.158318	12	-4.90102e-06
2	0	0	0	0	511.301	0.48402	0.483822	-0.0108359	1	0.158308	12	-5.24266e-06
2	0	0	1	0	512.201	0.475017	0.475681	-0.0122592	1	0.158298	12	-5.83149e-06
2	1	0	1	0	513.101	0.466015	0.466735	-0.014003	1	0.158286	12	-6.53569e-06
2	0	0	0	0	514.001	0.457011	0.45716	-0.0154854	1	0.158272	12	-7.0793e-06
2	0	0	1	0	514.902	0.448009	0.448133	-0.0175876	1	0.158257	12	-7.88159e-06
2	0	0	1	0	515.802	0.439006	0.439666	-0.0192359	1	0.158241	12	-8.45737e-06
2	0	0	0	0	516.702	0.430003	0.430929	-0.020594	1	0.158223	12	-8.87456e-06
2	0	0	1	0	517.603	0.421001	0.42166	-0.0218436	1	0.158204	12	-9.21059e-06
2	0	0	1	0	518.503	0.411998	0.411937	-0.0235385	1	0.158184	12	-9.69637e-06
2	0	0	0	0	519.403	0.402995	0.403379	-0.0256536	1	0.158162	12	-1.03481e-05
2	0	0	0	0	520.303	0.393992	0.39417	-0.0279877	1	0.158138	12	-1.10319e-05
2	0	0	1	0	521.204	0.384989	0.38575	-0.0297844	1	0.158112	12	-1.14893e-05
2	0	0	1	0	522.104	0.375987	0.376409	-0.0318346	1	0.158085	12	-1.19828e-05
2	0	0	0	0	523.004	0.366984	0.367728	-0.0335867	1	0.158055	12	-1.23508e-05
2	0	0	1	0	523.904	0.357981	0.357774	-0.0356715	1	0.158024	12	-1.27623e-05
2	0	0	1	0	524.805	0.348978	0.349065	-0.0374102	1	0.157991	12	-1.30586e-05
2	0	0	0	0	525.705	0.339975	0.339988	-0.0397757	1	0.157956	12	-1.35233e-05
2	0	0	1	0	526.605	0.330972	0.331473	-0.04138	1	0.15792	12	-1.37163e-05
2	0	0	1	0	527.506	0.32197	0.323189	-0.0426355	1	0.157882	12	-1.37793e-05
2	0	0	0	0	528.406	0.312967	0.312765	-0.0433806	1	0.157843	12	-1.35679e-05
2	0	0	0	0	529.306	0.303964	0.304608	-0.0442257	1	0.157803	12	-1.34715e-05
2	0	0	1	0	530.206	0.294961	0.295838	-0.0443097	1	0.157763	12	-1.31085e-05
2	0	0	1	0	531.107	0.285958	0.286319	-0.0440233	1	0.157722	12	-1.26047e-05
2	0	0	0	0	532.007	0.276956	0.277342	-0.0436879	1	0.157683	12	-1.21165e-05
2	0	0	1	0	532.907	0.267953	0.268228	-0.0417724	1	0.157644	12	-1.12046e-05
2	0	0	1	0	533.808	0.25895	0.258601	-0.0393428	1	0.157607	12	-1.01741e-05
2	0	0	0	0	534.708	0.249947	0.250694	-0.0355866	1	0.157573	12	-8.92134e-06
2	0	0	1	0	535.608	0.240944	0.241486	-0.0306291	1	0.157543	12	-7.39649e-06
2	0	0	1	0	536.508	0.231942	0.232406	-0.0264864	1	0.157517	12	-6.15562e-06
2	0	0	0	0	537.409	0.222939	0.223842	-0.0226872	1	0.157495	12	-5.07834e-06
2	0	0	0	0	538.309	0.213936	0.215035	-0.0201098	1	0.157475	12	-4.32431e-06
2	0	0	1	0	539.209	0.204933	0.205944	-0.0179302	1	0.157458	12	-3.69263e-06
2	0	0	1	0	540.11	0.19593	0.197233	-0.0159828	1	0.157443	12	-3.15233e-06
2	0	0	0	0	541.01	0.186928	0.187759	-0.0144214	1	0.157429	12	-2.70774e-06
2	0	0	1	0	541.91	0.177925	0.178056	-0.0129275	1	0.157417	12	-2.30182e-06
2	0	0	1	0	542.81	0.168922	0.169386	-0.0121262	1	0.157405	12	-2.054e-06
2	1	0	0	0	543.711	0.159919	0.160741	-0.0112072	1	0.157395	12	-1.80147e-06
2	0	0	1	0	544.611	0.150916	0.150885	-0.0105642	1	0.157385	12	-1.59398e-06
2	0	0	1	0	545.511	0.141914	0.141826	-0.0103877	1	0.157375	12	-1.47326e-06
2	0	0	0	0	546.411	0.132911	0.133938	-0.00990541	1	0.157367	12	-1.32671e-06
2	0	0	0	0	547.312	0.123908	0.124791	-0.0092578	1	0.157358	12	-1.15529e-06
2	0	0	1	0	548.212	0.114905	0.115844	-0.00837306	1	0.15735	12	-9.69972e-07
2	0	0	0	0	549.112	0.105903	0.106412	-0.00827559	1	0.157343	12	-8.8062e-07
2	0	0	0	0	550.013	0.0968999	0.0966439	-0.00792963	1	0.157335	12	-7.66351e-07
2	0	0	1	0	550.913	0.0878971	0.0883263	-0.00817147	1	0.157328	12	-7.21756e-07
2	1	0	1	0	551.813	0.0788943	0.0798209	-0.00761879	1	0.157322	12	-6.08138e-07
2	1	0	0	0	552.713	0.0698915	0.069966	-0.00725824	1	0.157315	12	-5.0783e-07
2	0	0	1	0	553.614	0.0608887	0.0611731	-0.00678752	1	0.157309	12	-4.15214e-07
2	0	0	1	0	554.514	0.051886	0.0523983	-0.00659253	1	0.157303	12	-3.45437e-07
2	0	0	0	0	555.414	0.0428832	0.0429052	-0.00616318	1	0.157297	12	-2.64432e-07
2	0	0	0	0	556.315	0.0338804	0.0346077	-0.00623885	1	0.157291	12	-2.15912e-07
2	1	0	1	0	557.215	0.0248776	0.0248229	-0.00649441	1	0.157285	12	-1.6121e-07
2	1	0	0	0	558.115	0.0158748	0.0160374	-0.00599485	1	0.15728	12	-9.61419e-08
2	0	0	0	0	559.015	0.00687202	0.00730606	-0.00583973	1	0.157275	12	-4.26654e-08
2	0	0	1	1	559.756	0.000570063	0.000811117	-0.0052305	1	0.15727	12	-4.24255e-09
2	0	0	1	1	560.656	0.00957285	0.0105143	-0.00485738	1	0.157266	12	-5.10719e-08
2	1	0	0	1	561.557	0.0185756	0.0185985	-0.0042596	1	0.157262	12	-7.92222e-08
2	0	0	1	1	562.457	0.0275791	0.0283362	-0.00420122	1	0.157258	12	-1.19047e-07
2	1	0	1	1	563.357	0.0365812	0.0376441	-0.00399526	1	0.157254	12	-1.50398e-07
2	0	0	0	1	564.257	0.045584	0.045653	-0.00421675	1	0.157251	12	-1.92507e-07
2	0	0	0	1	565.158	0.0545868	0.0549912	-0.00374869	1	0.157248	12	-2.06145e-07
2	1	0	1	1	566.058	0.0635896	0.0643262	-0.0036439	1	0.157245	12	-2.34398e-07
2	1	0	1	1	566.958	0.0725933	0.0734301	-0.00311871	1	0.157242	12	-2.29007e-07
2	1	0	0	1	567.859	0.0815952	0.0815141	-0.00274002	1	0.157239	12	-2.2335e-07
2	1	0	1	1	568.759	0.0905979	0.0912502	-0.00262908	1	0.157237	12	-2.39904e-07
2	1	0	1	1	569.659	0.0996007	0.099641	-0.0024147	1	0.157235	12	-2.40603e-07
2	1	0	0	1	570.559	0.108604	0.10981	-0.00251996	1	0.157232	12	-2.76717e-07
2	0	0	1	1	571.46	0.117606	0.117781	-0.0024043	1	0.15723	12	-2.8318e-07
2	1	0	1	1	572.36	0.126609	0.126952	-0.00258563	1	0.157228	12	-3.28252e-07
2	1	0	0	1	573.26	0.135612	0.136505	-0.0023292	1	0.157227	12	-3.17947e-07
2	0	0	0	1	574.161	0.144615	0.14544	-0.00214984	1	0.157225	12	-3.12673e-07
2	0	0	1	1	575.061	0.153617	0.15358	-0.00168404	1	0.157223	12	-2.58634e-07
2	1	0	0	1	575.961	0.16262	0.163308	-0.00155195	1	0.157222	12	-2.53445e-07
2	1	0	0	1	576.861	0.171623	0.171812	-0.00134363	1	0.15722	12	-2.30851e-07
2	0	0	1	1	577.762	0.180626	0.18112	-0.00141808	1	0.157219	12	-2.56841e-07
2	1	0	1	1	578.662	0.189629	0.189897	-0.0018203	1	0.157218	12	-3.45669e-07
2	1	0	0	1	579.562	0.198631	0.199129	-0.00141936	1	0.157217	12	-2.82634e-07
2	0	0	1	1	580.462	0.207634	0.20859	-0.00147869	1	0.157215	12	-3.08439e-07
2	1	0	1	1	581.363	0.216637	0.217606	-0.00127744	1	0.157214	12	-2.77978e-07
2	1	0	0	1	582.263	0.22564	0.225853	-0.000649275	1	0.157214	12	-1.46641e-07
2	1	0	0	1	583.163	0.234643	0.235479	-0.000685097	1	0.157213	12	-1.61326e-07
2	0	0	1	1	584.064	0.243645	0.244079	-0.000452383	1	0.157212	12	-1.10417e-07
2	0	0	0	1	584.864	0.251648	0.252336	-0.000559323	2	0.157211	12	-1.41137e-07
2	1	0	0	1	585.764	0.260651	0.260654	-0.000525157	2	0.157211	12	-1.36884e-07
2	0	0	1	1	586.664	0.269653	0.270663	-0.000577472	2	0.15721	12	-1.563e-07
2	0	0	0	1	587.565	0.278656	0.279489	-0.000740051	2	0.157209	12	-2.06836e-07
2	0	0	0	1	588.465	0.287659	0.288341	-0.000770099	2	0.157209	12	-2.22051e-07
2	0	0	1	1	589.365	0.296662	0.297034	-0.000614168	2	0.157208	12	-1.82429e-07
2	0	0	1	1	590.266	0.305665	0.305972	-0.00039011	2	0.157208	12	-1.19363e-07
2	0	0	0	1	591.166	0.314667	0.314967	-0.000404303	2	0.157208	12	-1.27342e-07
2	0	0	1	1	592.066	0.32367	0.323832	-0.000385625	2	0.157207	12	-1.24878e-07
2	0	0	1	1	592.966	0.332673	0.333523	-0.000569868	2	0.157207	12	-1.90064e-07
2	0	0	0	1	593.867	0.341676	0.34219	-0.000493388	2	0.157207	12	-1.68833e-07
2	0	0	1	1	594.767	0.350678	0.350724	-0.000191561	2	0.157207	12	-6.71851e-08
2	0	0	1	1	595.667	0.359681	0.36043	-5.59661e-05	2	0.157207	12	-2.01719e-08
2	0	0	0	1	596.567	0.368684	0.369791	-8.88527e-05	2	0.157207	12	-3.28569e-08
2	1	0	0	1	597.468	0.377687	0.377607	0.000238409	2	0.157207	12	9.00247e-08
2	1	0	1	1	598.368	0.38669	0.387045	0.000466569	2	0.157207	12	1.80583e-07
2	1	0	1	1	599.268	0.395692	0.396315	0.000550633	2	0.157207	12	2.18224e-07
2	0	0	0	1	600.169	0.404695	0.405445	0.000459715	2	0.157207	12	1.86389e-07
2	0	0	1	1	601.069	0.413698	0.414297	0.000479909	2	0.157207	12	1.98825e-07
2	0	0	1	1	601.969	0.422701	0.423247	0.000665888	2	0.157207	12	2.81835e-07
2	0	0	0	1	602.869	0.431704	0.43248	0.000630383	2	0.157207	12	2.72628e-07
2	0	0	1	1	603.77	0.440706	0.441354	0.000597157	2	0.157207	12	2.63557e-07
2	1	0	1	1	604.67	0.449709	0.450157	0.000598527	2	0.157208	12	2.69431e-07
2	0	0	0	1	605.57	0.458712	0.459714	0.000285738	2	0.157208	12	1.31358e-07
2	0	0	0	1	606.471	0.467715	0.468265	0.000387221	2	0.157209	12	1.81322e-07
2	0	0	1	1	607.371	0.476718	0.477171	0.000674477	2	0.15721	12	3.21841e-07
2	0	0	1	1	608.271	0.48572	0.486362	0.000797727	2	0.15721	12	3.87984e-07
2	1	0	0	1	609.171	0.494723	0.495493	0.00118004	2	0.157212	12	5.84702e-07
2	1	0	1	1	610.072	0.503726	0.50451	0.00142258	2	0.157213	12	7.17708e-07
2	0	0	1	1	610.972	0.512729	0.513135	0.00230686	2	0.157215	12	1.18373e-06
2	0	0	0	1	611.872	0.521732	0.522264	0.00252406	2	0.157217	12	1.31823e-06
2	0	0	1	1	612.773	0.530734	0.53127	0.00297925	2	0.157219	12	1.58279e-06
2	1	0	1	1	613.673	0.539737	0.540751	0.00337727	2	0.157222	12	1.82626e-06
2	0	0	0	1	614.573	0.54874	0.548683	0.00423298	2	0.157225	12	2.32256e-06
2	0	0	0	1	615.473	0.557743	0.558241	0.00463455	2	0.15723	12	2.5872e-06
2	0	0	1	1	616.374	0.566746	0.566791	0.00571334	2	0.157235	12	3.23827e-06
2	0	0	1	1	617.274	0.575749	0.575869	0.00719643	2	0.157242	12	4.1442e-06
2	1	0	0	1	618.174	0.584751	0.585596	0.00871069	2	0.15725	12	5.10094e-06
2	1	0	1	1	619.074	0.593754	0.594489	0.0107561	2	0.15726	12	6.3944e-06
2	1	0	1	1	619.975	0.602757	0.603532	0.0135218	2	0.157272	12	8.16083e-06
2	1	0	0	1	620.875	0.611759	0.612372	0.0165132	2	0.157286	12	1.01123e-05
2	1	0	1	1	621.775	0.620763	0.621065	0.0202131	2	0.157304	12	1.25536e-05
2	1	0	1	1	622.676	0.629765	0.630392	0.0244252	2	0.157324	12	1.53974e-05
2	1	0	0	1	623.576	0.638768	0.639444	0.0290215	2	0.157348	12	1.85576e-05
2	1	0	0	1	624.476	0.647771	0.648772	0.0342962	2	0.157377	12	2.22504e-05
2	1	0	1	1	625.376	0.656773	0.656808	0.0403704	2	0.157411	12	2.65156e-05
2	1	0	0	1	626.277	0.665776	0.666979	0.0470254	2	0.15745	12	3.13649e-05
2	1	0	0	1	627.177	0.674779	0.675392	0.0546615	2	0.157497	12	3.69179e-05
2	1	0	1	1	628.077	0.683782	0.684814	0.0641822	2	0.157552	12	4.39529e-05
2	1	0	1	1	628.978	0.692785	0.693505	0.0760294	2	0.157617	12	5.27268e-05
2	1	0	0	1	629.878	0.701787	0.702195	0.0904031	2	0.157693	12	6.34806e-05
2	1	0	1	1	630.778	0.71079	0.71154	0.106695	2	0.157782	12	7.59177e-05
2	1	0	1	1	631.678	0.719793	0.720691	0.125479	2	0.157886	12	9.04317e-05
2	1	0	0	1	632.579	0.728796	0.729352	0.146555	2	0.158008	12	0.00010689
2	1	0	0	1	633.479	0.737798	0.738374	0.170018	2	0.158151	12	0.000125537
2	1	0	1	1	634.379	0.746801	0.747568	0.198709	2	0.158317	12	0.000148548
2	1	0	0	1	635.279	0.755804	0.756583	0.2335	2	0.158513	12	0.000176662
2	1	0	0	1	636.18	0.764807	0.765567	0.276228	2	0.158742	12	0.000211471
2	1	0	1	1	637.08	0.77381	0.773731	0.326334	2	0.159012	12	0.000252495
2	1	0	1	1	637.98	0.782811	0.783365	0.386051	2	0.159331	12	0.000302419
2	1	0	0	1	638.881	0.791815	0.792577	0.456985	2	0.159709	12	0.000362196
2	1	0	1	1	639.781	0.800818	0.801358	0.541902	2	0.160158	12	0.000434258
2	1	0	1	1	640.681	0.809821	0.810055	0.641516	2	0.16069	12	0.000519663
2	1	0	0	1	641.581	0.818824	0.819814	0.75885	2	0.16132	12	0.000622116
2	1	0	0	1	642.482	0.827826	0.828808	0.893915	2	0.162063	12	0.000740884
2	1	0	1	1	643.412	0.837129	0.838	1.04928	2	0.162968	11	0.000879298
2	1	0	0	1	644.312	0.846132	0.84679	1.22098	2	0.163989	11	0.00103392
2	1	0	0	1	645.213	0.855135	0.855933	1.40878	2	0.165172	11	0.00120582
2	1	0	1	1	646.113	0.864138	0.86477	1.61006	2	0.16653	11	0.00139233
2	1	0	1	1	647.013	0.87314	0.873173	1.82495	2	0.168076	11	0.0015935
2	1	0	0	1	647.913	0.882143	0.882629	2.05803	2	0.169824	11	0.00181648
2	1	0	1	1	648.814	0.891146	0.891615	2.29253	2	0.171781	11	0.00204405
2	1	0	1	1	649.714	0.900149	0.90068	2.53953	2	0.173959	11	0.0022873
2	1	0	0	1	650.614	0.909151	0.909709	2.79519	2	0.176361	11	0.00254281
2	1	0	1	1	651.515	0.918153	0.918613	3.06536	2	0.179	11	0.00281588
2	1	0	1	1	652.415	0.927157	0.927857	3.34672	2	0.181888	11	0.00310528
2	1	0	0	1	653.315	0.93616	0.93684	3.63341	2	0.185027	11	0.00340393
2	1	0	0	1	654.215	0.945163	0.945782	3.93097	2	0.188431	11	0.00371784
2	1	0	1	1	655.116	0.954165	0.954635	4.2427	2	0.192105	11	0.00405024
2	1	0	1	1	656.016	0.963168	0.963712	4.56456	2	0.196065	11	0.00439892
2	1	0	0	1	656.916	0.972171	0.973106	4.89126	2	0.20032	11	0.00475972
2	1	0	1	1	657.816	0.981174	0.981271	5.24176	2	0.204879	11	0.00514359
2	1	0	1	1	658.717	0.990177	0.99104	5.56946	2	0.209743	11	0.00551955
2	1	0	0	1	659.617	0.999179	0.999677	5.93353	2	0.214924	11	0.00593161
2	1	0	0	1	660.358	0.993478	0.993451	5.62953	2	0.219232	11	0.00559266
2	1	0	1	1	661.258	0.984475	0.985153	5.19672	2	0.224101	11	0.00511956
2	1	0	1	1	662.158	0.975473	0.976355	4.77322	2	0.228588	11	0.00466035
2	1	0	0	1	663.059	0.966469	0.966919	4.36911	2	0.2327	11	0.00422457
2	1	0	1	1	663.959	0.957466	0.958238	3.96637	2	0.236456	11	0.00380073
2	1	0	1	1	664.859	0.948464	0.949035	3.58302	2	0.239854	11	0.00340041
2	1	0	0	1	665.759	0.939461	0.939916	3.23148	2	0.242916	11	0.00303732
2	1	0	1	1	666.66	0.930459	0.931171	2.91408	2	0.245675	11	0.00271351
2	1	0	1	1	667.56	0.921455	0.921756	2.60171	2	0.248156	11	0.00239815
2	1	0	0	1	668.46	0.912453	0.912858	2.32589	2	0.250371	11	0.00212321
2	1	0	0	1	669.361	0.90345	0.904063	2.05605	2	0.252341	11	0.0018588
2	1	0	1	1	670.261	0.894447	0.894798	1.81572	2	0.254078	11	0.0016247
2	1	0	1	1	671.161	0.885445	0.886191	1.59081	2	0.255609	11	0.00140976
2	1	0	0	1	672.061	0.876441	0.877092	1.38837	2	0.256945	11	0.00121772
2	1	0	1	1	672.962	0.867439	0.867862	1.21506	2	0.258118	11	0.00105451
2	1	0	1	1	673.862	0.858436	0.859107	1.04647	2	0.259133	11	0.000899026
2	1	0	0	1	674.762	0.849433	0.849895	0.905174	2	0.260005	11	0.000769303
2	1	0	1	1	675.663	0.84043	0.841238	0.774884	2	0.260758	11	0.000651862
2	1	0	1	1	676.563	0.831427	0.832101	0.661719	2	0.261401	11	0.000550617
2	1	0	0	1	677.463	0.822425	0.822765	0.564118	2	0.26195	11	0.000464137
2	1	0	0	1	678.363	0.813422	0.814093	0.4801	2	0.262418	11	0.000390846
2	1	0	1	1	679.294	0.804119	0.804233	0.408993	2	0.262831	12	0.000328926
2	1	0	1	1	680.194	0.795117	0.795822	0.350601	2	0.263171	12	0.000279016
2	1	0	0	1	681.094	0.786113	0.786589	0.301059	2	0.263463	12	0.00023681
2	1	0	1	1	681.994	0.777111	0.777848	0.259202	2	0.263713	12	0.00020162
2	1	0	1	1	682.895	0.768108	0.768944	0.223434	2	0.263928	12	0.000171808
2	1	0	0	1	683.795	0.759105	0.759387	0.192971	2	0.264114	12	0.00014654
2	1	0	1	1	684.695	0.750103	0.750493	0.166064	2	0.264274	12	0.00012463
2	1	0	1	1	685.596	0.741099	0.741773	0.143149	2	0.264413	12	0.000106184
2	1	0	0	1	686.496	0.732097	0.732657	0.123006	2	0.264532	12	9.01214e-05
2	1	0	0	1	687.396	0.723094	0.724068	0.105964	2	0.264636	12	7.6725e-05
2	1	0	1	1	688.296	0.714091	0.714458	0.0916885	2	0.264724	12	6.55076e-05
2	1	0	1	1	689.197	0.705088	0.705671	0.0789257	2	0.2648	12	5.56956e-05
2	1	0	0	1	690.097	0.696085	0.696606	0.067404	2	0.264865	12	4.69541e-05
2	1	0	1	1	690.997	0.687083	0.687684	0.0564964	2	0.26492	12	3.88517e-05
2	1	0	1	1	691.898	0.67808	0.679078	0.0463987	2	0.264966	12	3.15083e-05
2	1	0	0	1	692.798	0.669077	0.669522	0.0378308	2	0.265004	12	2.53285e-05
2	1	0	1	1	693.698	0.660074	0.660889	0.0306234	2	0.265036	12	2.02386e-05
2	1	0	1	1	694.598	0.651072	0.651171	0.0247954	2	0.265062	12	1.6146e-05
2	1	0	0	1	695.499	0.642069	0.642843	0.0200108	2	0.265083	12	1.28638e-05
2	1	0	0	1	696.399	0.633066	0.633748	0.0169384	2	0.265099	12	1.07347e-05
2	1	0	1	1	697.299	0.624063	0.624799	0.0136443	2	0.265113	12	8.52493e-06
2	1	0	1	1	698.2	0.61506	0.615563	0.0111455	2	0.265123	12	6.86074e-06
2	1	0	0	1	699.1	0.606058	0.606373	0.00825966	2	0.265132	12	5.00844e-06
2	1	0	1	1	700	0.597055	0.597722	0.00531639	2	0.265138	12	3.17772e-06
2	1	0	1	1	700.9	0.588052	0.588547	0.00318407	2	0.265142	12	1.87397e-06
2	1	0	0	1	701.801	0.579049	0.579128	0.00163033	2	0.265145	12	9.44171e-07
2	1	0	1	1	702.701	0.570046	0.571047	0.000696392	2	0.265147	12	3.97672e-07
2	1	0	1	1	703.601	0.561044	0.561969	0.000805405	2	0.265148	12	4.52613e-07
2	1	0	0	1	704.501	0.552041	0.552455	-0.000115018	2	0.265148	12	-6.35421e-08
2	1	0	0	1	705.402	0.543038	0.543102	-0.00112314	2	0.265146	12	-6.09981e-07
2	0	0	1	1	706.302	0.534035	0.535151	-0.00253513	2	0.265144	12	-1.35668e-06
2	1	0	0	1	707.202	0.525033	0.525482	-0.0038102	2	0.265142	12	-2.00219e-06
2	0	0	0	1	708.103	0.51603	0.516159	-0.00445666	2	0.265138	12	-2.30034e-06
2	0	0	1	1	709.003	0.507027	0.506829	-0.004715	2	0.265134	12	-2.3897e-06
2	0	0	1	1	709.903	0.498024	0.498682	-0.00498584	2	0.265128	12	-2.48635e-06
2	0	0	0	1	710.803	0.489021	0.489645	-0.00613232	2	0.265123	12	-3.00266e-06
2	0	0	1	1	711.704	0.480019	0.480432	-0.00758016	2	0.265116	12	-3.64175e-06
2	0	0	1	1	712.604	0.471016	0.472214	-0.00854238	2	0.265109	12	-4.03384e-06
2	0	0	0	1	713.504	0.462013	0.463038	-0.00889062	2	0.265101	12	-4.1167e-06
2	0	0	0	1	714.405	0.45301	0.453586	-0.0092298	2	0.265092	12	-4.1865e-06
2	0	0	1	1	715.305	0.444007	0.445523	-0.0102169	2	0.265083	12	-4.55187e-06
2	0	0	0	1	716.205	0.435005	0.436088	-0.0115679	2	0.265073	12	-5.04463e-06
2	0	0	0	1	717.105	0.426002	0.426747	-0.0124833	2	0.265062	12	-5.32719e-06
2	0	0	1	1	718.006	0.416999	0.417442	-0.013285	2	0.26505	12	-5.54572e-06
2	0	0	1	1	718.906	0.407997	0.408612	-0.0136859	2	0.265038	12	-5.59222e-06
2	0	0	0	1	719.806	0.398993	0.399558	-0.0148644	2	0.265025	12	-5.9392e-06
2	0	0	1	1	720.706	0.389991	0.390722	-0.0162815	2	0.265011	12	-6.36153e-06
2	0	0	1	1	721.607	0.380988	0.381344	-0.0177672	2	0.264996	12	-6.77541e-06
2	0	0	0	1	722.507	0.371985	0.37285	-0.0187197	2	0.264979	12	-6.97963e-06
2	0	0	1	1	723.407	0.362983	0.364023	-0.0198844	2	0.264962	12	-7.23836e-06
2	0	0	1	1	724.308	0.35398	0.354569	-0.0205556	2	0.264944	12	-7.28838e-06
2	0	0	0	1	725.208	0.344977	0.34587	-0.0219762	2	0.264925	12	-7.60088e-06
2	0	0	0	1	726.108	0.335974	0.337054	-0.0230702	2	0.264904	12	-7.77591e-06
2	0	0	1	1	727.008	0.326971	0.327429	-0.0243306	2	0.264883	12	-7.96654e-06
2	0	0	1	1	727.909	0.317969	0.317833	-0.0259005	2	0.264861	12	-8.23204e-06
2	0	0	0	1	728.809	0.308966	0.309677	-0.0269965	2	0.264837	12	-8.3602e-06
2	0	0	1	1	729.709	0.299963	0.300633	-0.0277669	2	0.264813	12	-8.34766e-06
2	1	0	1	1	730.61	0.29096	0.291636	-0.0281251	2	0.264787	12	-8.20231e-06
2	0	0	0	1	731.51	0.281957	0.282506	-0.0290853	2	0.264762	12	-8.21677e-06
2	0	0	1	1	732.41	0.272954	0.273827	-0.029247	2	0.264735	12	-8.00863e-06
2	0	0	1	1	733.31	0.263952	0.265255	-0.0294843	2	0.264709	12	-7.82086e-06
2	0	0	0	1	734.211	0.254949	0.255124	-0.0289662	2	0.264682	12	-7.38997e-06
2	0	0	0	1	735.111	0.245946	0.246494	-0.0278643	2	0.264657	12	-6.86838e-06
2	0	0	1	1	736.011	0.236943	0.237978	-0.0264103	2	0.264632	12	-6.28507e-06
2	0	0	1	1	736.912	0.22794	0.228453	-0.0241848	2	0.264609	12	-5.52508e-06
2	0	0	0	1	737.812	0.218938	0.219657	-0.0225934	2	0.264588	12	-4.96282e-06
2	0	0	1	1	738.712	0.209935	0.210268	-0.020428	2	0.264568	12	-4.29536e-06
2	0	0	1	1	739.612	0.200932	0.201154	-0.0186332	2	0.26455	12	-3.74814e-06
2	0	0	0	1	740.513	0.191929	0.192401	-0.0172791	2	0.264534	12	-3.32451e-06
2	0	0	1	1	741.413	0.182926	0.183691	-0.0151424	2	0.264519	12	-2.78152e-06
2	0	0	1	1	742.313	0.173924	0.174296	-0.0139527	2	0.264506	12	-2.4319e-06
2	0	0	0	1	743.213	0.164921	0.166251	-0.0124504	2	0.264494	12	-2.06989e-06
2	0	0	0	1	744.114	0.155918	0.156887	-0.0108398	2	0.264484	12	-1.70062e-06
2	0	0	1	1	745.014	0.146915	0.147261	-0.0103669	2	0.264474	12	-1.52664e-06
2	0	0	1	1	745.914	0.137912	0.137925	-0.00939973	2	0.264464	12	-1.29646e-06
2	0	0	0	1	746.815	0.12891	0.12923	-0.00882763	2	0.264456	12	-1.14079e-06
2	1	0	1	1	747.715	0.119907	0.121011	-0.00851481	2	0.264448	12	-1.03039e-06
2	0	0	1	1	748.615	0.110904	0.111348	-0.0080367	2	0.264441	12	-8.94873e-07
2	0	0	0	1	749.515	0.101901	0.102452	-0.00741997	2	0.264434	12	-7.60194e-07
2	0	0	1	1	750.416	0.0928978	0.0930906	-0.00722679	2	0.264427	12	-6.72747e-07
2	1	0	1	1	751.316	0.0838959	0.0847372	-0.00668468	2	0.264421	12	-5.66441e-07
2	0	0	0	1	752.216	0.0748931	0.075782	-0.00596367	2	0.264415	12	-4.51939e-07
2	1	0	0	1	753.117	0.0658903	0.0665753	-0.00594855	2	0.264409	12	-3.96027e-07
2	1	0	1	1	754.017	0.0568875	0.0576679	-0.00590821	2	0.264404	12	-3.40714e-07
2	0	0	0	1	754.917	0.0478847	0.0480114	-0.0055616	2	0.264398	12	-2.6702e-07
2	0	0	0	1	755.817	0.0388819	0.0392429	-0.00603885	2	0.264393	12	-2.36982e-07
2	0	0	1	1	756.718	0.0298791	0.0308935	-0.0055496	2	0.264388	12	-1.71446e-07
2	1	0	1	1	757.618	0.0208764	0.0206927	-0.0053069	2	0.264384	12	-1.09814e-07
2	0	0	0	1	758.518	0.0118736	0.0125141	-0.00510928	2	0.264379	12	-6.39381e-08
2	0	0	1	1	759.418	0.00287078	0.00359072	-0.00457457	2	0.264375	12	-1.6426e-08
2	0	0	1	0	760.159	0.0045713	0.00548234	-0.00426538	2	0.264371	12	-2.33843e-08
2	0	0	0	0	761.059	0.0135741	0.0148471	-0.00393364	2	0.264368	12	-5.8403e-08
2	0	0	0	0	761.96	0.0225769	0.0230374	-0.00350781	2	0.264364	12	-8.08106e-08
2	0	0	1	0	762.86	0.0315797	0.0314006	-0.00335162	2	0.264361	12	-1.05243e-07
2	1	0	1	0	763.76	0.0405829	0.0407195	-0.00281563	2	0.264358	12	-1.14651e-07
2	0	0	0	0	764.661	0.0495852	0.0501247	-0.00272397	2	0.264356	12	-1.36538e-07
2	0	0	1	0	765.561	0.058588	0.0596815	-0.00252189	2	0.264353	12	-1.5051e-07
2	0	0	1	0	766.461	0.0675908	0.0676373	-0.00292906	2	0.264351	12	-1.98114e-07
2	0	0	0	0	767.361	0.0765936	0.0771962	-0.00236997	2	0.264349	12	-1.82953e-07
2	0	0	1	0	768.262	0.0855971	0.0858496	-0.00244204	2	0.264347	12	-2.09648e-07
2	0	0	1	0	769.162	0.0945992	0.0949952	-0.00169998	2	0.264345	12	-1.6149e-07
2	0	0	0	0	770.062	0.103602	0.1042	-0.00193246	2	0.264343	12	-2.01362e-07
2	0	0	0	0	770.963	0.112605	0.112753	-0.0018736	2	0.264341	12	-2.11254e-07
2	0	0	1	0	771.863	0.121608	0.121903	-0.00232742	2	0.26434	12	-2.83721e-07
2	0	0	1	0	772.763	0.130611	0.130914	-0.00197644	2	0.264338	12	-2.58744e-07
2	0	0	0	0	773.663	0.139613	0.140488	-0.00167206	2	0.264337	12	-2.34906e-07
2	1	0	1	0	774.564	0.148616	0.14948	-0.00118281	2	0.264336	12	-1.76806e-07
2	1	0	1	0	775.464	0.157619	0.158229	-0.0011435	2	0.264334	12	-1.80935e-07
2	1	0	0	0	776.364	0.166622	0.166643	-0.00131346	2	0.264333	12	-2.18879e-07
2	0	0	1	0	777.264	0.175624	0.175611	-0.00184116	2	0.264332	12	-3.23328e-07
2	1	0	1	0	778.165	0.184627	0.185372	-0.00157917	2	0.264331	12	-2.92733e-07
2	0	0	0	0	779.065	0.19363	0.194794	-0.00121489	2	0.26433	12	-2.36653e-07
2	1	0	0	0	779.965	0.202633	0.203394	-0.000628169	2	0.26433	12	-1.27766e-07
2	1	0	1	0	780.866	0.211635	0.212256	-0.000886348	2	0.264329	12	-1.88133e-07
2	0	0	0	0	781.766	0.220638	0.221881	-0.000645936	2	0.264328	12	-1.43321e-07
2	1	0	0	0	782.666	0.229641	0.230777	-0.00105437	2	0.264328	12	-2.43324e-07
2	1	0	1	0	783.566	0.238644	0.239154	-0.00086336	2	0.264327	12	-2.06476e-07
2	0	0	0	0	784.412	0.247097	0.246966	-0.00571408	3	0.264326	12	-1.41118e-06
2	1	0	0	0	785.267	0.255649	0.256777	-0.000598857	3	0.264326	12	-1.53773e-07
2	1	0	1	0	786.167	0.264652	0.265217	-1.9844e-05	3	0.264326	12	-5.26299e-09
2	0	0	1	0	787.068	0.273655	0.274475	-0.000178893	3	0.264325	12	-4.91017e-08
2	0	0	0	0	787.968	0.282657	0.283402	-0.000185497	3	0.264325	12	-5.25701e-08
2	0	0	1	0	788.868	0.29166	0.292592	-0.000215883	3	0.264325	12	-6.31657e-08
2	0	0	1	0	789.768	0.300663	0.301063	-0.0003046	3	0.264324	12	-9.17037e-08
2	0	0	0	0	790.669	0.309666	0.310269	-0.000532378	3	0.264324	12	-1.65181e-07
2	1	0	0	0	791.569	0.318669	0.318682	0.00032589	3	0.264324	12	1.03855e-07
2	0	0	1	0	792.469	0.327671	0.328362	7.1226e-05	3	0.264324	12	2.33879e-08
2	0	0	0	0	793.369	0.336674	0.337315	9.08608e-05	3	0.264324	12	3.06488e-08
2	0	0	0	0	794.27	0.345677	0.346244	-0.000426835	3	0.264324	12	-1.47789e-07
2	0	0	1	0	795.17	0.35468	0.355737	-0.000399273	3	0.264324	12	-1.42036e-07
2	1	0	1	0	796.07	0.363683	0.363469	0.000160564	3	0.264324	12	5.836e-08
2	0	0	0	0	796.971	0.372685	0.373462	7.79476e-05	3	0.264324	12	2.91104e-08
2	1	0	1	0	797.871	0.381688	0.382724	-0.000106605	3	0.264324	12	-4.08002e-08
2	0	0	1	0	798.771	0.390691	0.390811	-0.000577428	3	0.264324	12	-2.25665e-07
2	1	0	0	0	799.671	0.399694	0.400295	-0.000460207	3	0.264324	12	-1.84219e-07
2	1	0	0	0	800.572	0.408696	0.409178	-0.000156506	3	0.264324	12	-6.40389e-08
2	1	0	1	0	801.472	0.417699	0.418304	0.000244145	3	0.264324	12	1.02127e-07
2	1	0	0	0	802.372	0.426702	0.427411	0.000359571	3	0.264324	12	1.53684e-07
2	0	0	0	0	803.273	0.435705	0.436705	-0.00021628	3	0.264325	12	-9.44507e-08
2	1	0	1	0	804.173	0.444708	0.445186	-0.000190409	3	0.264325	12	-8.47676e-08
2	1	0	1	0	805.073	0.45371	0.453515	-8.31561e-05	3	0.264325	12	-3.77126e-08
2	0	0	0	0	805.973	0.462713	0.462992	0.000486836	3	0.264326	12	2.25401e-07
2	1	0	1	0	806.874	0.471716	0.472453	0.000963086	3	0.264327	12	4.55013e-07
2	1	0	1	0	807.774	0.480719	0.48147	0.0011333	3	0.264327	12	5.45649e-07
2	0	0	0	0	808.674	0.489722	0.48996	0.00130729	3	0.264328	12	6.40521e-07
2	1	0	1	0	809.575	0.498724	0.499184	0.00102643	3	0.264329	12	5.12375e-07
2	0	0	1	0	810.475	0.507727	0.508837	0.00123265	3	0.264331	12	6.27218e-07
2	1	0	0	0	811.375	0.51673	0.51762	0.00177991	3	0.264333	12	9.21315e-07
2	1	0	0	0	812.275	0.525733	0.526112	0.00282767	3	0.264334	12	1.48767e-06
2	0	0	1	0	813.176	0.534736	0.534713	0.00330866	3	0.264337	12	1.76918e-06
2	0	0	1	0	814.076	0.543738	0.54458	0.00319813	3	0.264339	12	1.74164e-06
2	0	0	0	0	814.976	0.552741	0.553286	0.00323599	3	0.264342	12	1.79042e-06
2	0	0	1	0	815.876	0.561744	0.562115	0.00366066	3	0.264345	12	2.05771e-06
2	0	0	1	0	816.777	0.570747	0.570928	0.0052036	3	0.264349	12	2.97088e-06
2	1	0	0	0	817.677	0.579749	0.580375	0.00673582	3	0.264354	12	3.9093e-06
2	0	0	1	0	818.577	0.588753	0.589583	0.00780943	3	0.26436	12	4.60431e-06
2	1	0	1	0	819.478	0.597755	0.598224	0.00812565	3	0.264367	12	4.86096e-06
2	1	0	0	0	820.378	0.606758	0.607073	0.00908436	3	0.264375	12	5.51487e-06
2	1	0	0	0	821.278	0.615761	0.616252	0.0108035	3	0.264384	12	6.6577e-06
2	1	0	1	0	822.178	0.624763	0.624865	0.0135912	3	0.264396	12	8.49265e-06
2	1	0	1	0	823.079	0.633767	0.63418	0.0169945	3	0.26441	12	1.07776e-05
2	1	0	0	0	823.979	0.642769	0.643748	0.0200918	3	0.264426	12	1.29341e-05
2	1	0	1	0	824.879	0.651772	0.65256	0.0237971	3	0.264446	12	1.5529e-05
2	1	0	1	0	825.78	0.660775	0.66114	0.0277777	3	0.26447	12	1.8365e-05
2	1	0	0	0	826.68	0.669777	0.669836	0.0338237	3	0.2645	12	2.26563e-05
2	1	0	1	0	827.58	0.67878	0.67938	0.0418279	3	0.264535	12	2.84171e-05
2	1	0	1	0	828.48	0.687783	0.688351	0.0524007	3	0.264578	12	3.60701e-05
2	1	0	0	0	829.381	0.696786	0.697281	0.063968	3	0.264631	12	4.46036e-05
2	1	0	0	0	830.281	0.705789	0.706211	0.077173	3	0.264694	12	5.45004e-05
2	1	0	1	0	831.181	0.714791	0.715866	0.0926024	3	0.264771	12	6.62909e-05
2	1	0	0	0	832.081	0.723794	0.724349	0.110663	3	0.264863	12	8.01588e-05
2	1	0	0	0	832.982	0.732797	0.733695	0.132685	3	0.264975	12	9.73501e-05
2	1	0	1	0	833.882	0.7418	0.741932	0.16024	3	0.265108	12	0.000118887
2	1	0	1	0	834.782	0.750802	0.751133	0.193828	3	0.265269	12	0.000145591
2	1	0	0	0	835.683	0.759805	0.760627	0.234405	3	0.265462	12	0.000178295
2	1	0	1	0	836.583	0.768808	0.769629	0.28327	3	0.265695	12	0.000218013
2	1	0	1	0	837.483	0.777811	0.778209	0.343082	3	0.265976	12	0.000266989
2	1	0	0	0	838.383	0.786814	0.787532	0.414712	3	0.266317	12	0.000326599
2	1	0	1	0	839.284	0.795815	0.796018	0.501331	3	0.266728	12	0.000399069
2	1	0	1	0	840.184	0.804819	0.8051	0.604561	3	0.267225	12	0.000486732
2	1	0	0	0	841.084	0.813822	0.814078	0.725301	3	0.267823	12	0.000590452
2	1	0	0	0	841.985	0.822825	0.823399	0.865339	3	0.268539	12	0.000712519
2	1	0	1	0	842.885	0.831828	0.831971	1.02516	3	0.269389	12	0.000852907
2	1	0	1	0	843.815	0.84113	0.84147	1.20956	3	0.27043	11	0.0010178
2	1	0	0	0	844.715	0.850133	0.850383	1.40872	3	0.271608	11	0.00119795
2	1	0	1	0	845.616	0.859137	0.859856	1.62651	3	0.272975	11	0.00139856
2	1	0	1	0	846.516	0.868139	0.869192	1.86188	3	0.274546	11	0.00161833
2	1	0	0	0	847.416	0.877142	0.877626	2.1142	3	0.276336	11	0.00185548
2	1	0	0	0	848.317	0.886144	0.886697	2.38183	3	0.278361	11	0.00211196
2	1	0	1	0	849.217	0.895147	0.895711	2.6604	3	0.28063	11	0.00238295
2	1	0	0	0	850.117	0.90415	0.904752	2.948	3	0.283155	11	0.00266721
2	1	0	0	0	851.017	0.913153	0.913517	3.24906	3	0.285945	11	0.00296807
2	1	0	1	0	851.918	0.922156	0.922875	3.5488	3	0.289009	11	0.0032751
2	1	0	1	0	852.818	0.931158	0.931879	3.85919	3	0.292346	11	0.0035963
2	1	0	0	0	853.718	0.940161	0.940839	4.17206	3	0.295964	11	0.00392524
2	1	0	1	0	854.618	0.949164	0.949709	4.48692	3	0.299861	11	0.00426127
2	1	0	1	0	855.519	0.958167	0.958806	4.8099	3	0.304047	11	0.00461176
2	1	0	0	0	856.419	0.967169	0.967722	5.14635	3	0.308531	11	0.00498023
2	1	0	1	0	857.319	0.976171	0.97637	5.46569	3	0.313316	11	0.00533654
2	1	0	1	0	858.22	0.985175	0.985669	5.78039	3	0.318379	11	0.00569755
2	1	0	0	0	859.12	0.994178	0.994631	6.12659	3	0.323745	11	0.0060937
2	1	0	0	0	859.861	0.998479	0.998992	6.28362	3	0.328384	11	0.00627729
2	1	0	1	0	860.761	0.989476	0.989967	5.82901	3	0.333828	11	0.00577053
2	1	0	1	0	861.661	0.980474	0.981201	5.36384	3	0.338854	11	0.00526301
2	1	0	0	0	862.561	0.971471	0.972268	4.91507	3	0.343474	11	0.00477876
2	1	0	0	0	863.462	0.962468	0.963097	4.50205	3	0.347708	11	0.00433591
2	1	0	1	0	864.362	0.953465	0.953957	4.099	3	0.351572	11	0.00391027
2	1	0	0	0	865.262	0.944463	0.945066	3.80604	3	0.355098	11	0.00359695
2	1	0	0	0	866.163	0.93546	0.935927	3.47253	3	0.358361	11	0.00325004
2	1	0	1	0	867.063	0.926457	0.927115	3.13311	3	0.361328	11	0.00290475
2	1	0	1	0	867.963	0.917455	0.918088	2.85372	3	0.364013	11	0.00261996
2	1	0	0	0	868.863	0.908451	0.908929	2.60503	3	0.36646	11	0.00236778
2	1	0	1	0	869.764	0.899449	0.899839	2.4482	3	0.368769	11	0.00220299
2	1	0	1	0	870.664	0.890446	0.891036	2.18771	3	0.370854	11	0.00194933
2	1	0	0	0	871.564	0.881443	0.881712	1.94645	3	0.372711	11	0.00171621
2	1	0	1	0	872.465	0.872441	0.873261	1.71822	3	0.374356	11	0.00150045
2	1	0	1	0	873.365	0.863437	0.864151	1.50849	3	0.375804	11	0.00130356
2	1	0	0	0	874.265	0.854434	0.855542	1.31806	3	0.377071	11	0.00112765
2	1	0	0	0	875.165	0.845432	0.846251	1.15889	3	0.378185	11	0.000980716
2	1	0	1	0	876.066	0.836429	0.836796	1.01459	3	0.379163	11	0.000849002
2	1	0	1	0	876.966	0.827426	0.827136	0.877157	3	0.380012	11	0.000725528
2	1	0	0	0	877.866	0.818423	0.819018	0.755301	3	0.380745	11	0.000618605
2	1	0	1	0	878.766	0.809421	0.809223	0.649604	3	0.381375	11	0.000525674
2	1	0	1	0	879.667	0.800418	0.801118	0.558426	3	0.381917	11	0.000447365
2	1	0	0	0	880.567	0.791415	0.792397	0.476404	3	0.382381	11	0.000377501
2	1	0	1	0	881.497	0.782113	0.782938	0.407658	3	0.382791	12	0.000319171
2	1	0	1	0	882.398	0.773109	0.773854	0.347677	3	0.383129	12	0.000269051
2	1	0	0	0	883.298	0.764107	0.76438	0.295557	3	0.383417	12	0.000225918
2	1	0	0	0	884.198	0.755104	0.755282	0.253889	3	0.383664	12	0.000191758
2	1	0	1	0	885.098	0.746101	0.7465	0.2176	3	0.383875	12	0.000162438
2	1	0	1	0	885.999	0.737099	0.737313	0.184971	3	0.384056	12	0.000136381
2	1	0	0	0	886.899	0.728095	0.72896	0.155979	3	0.384209	12	0.000113703
2	1	0	1	0	887.799	0.719093	0.719705	0.131564	3	0.38434	12	9.46876e-05
2	1	0	1	0	888.7	0.71009	0.710715	0.111237	3	0.384449	12	7.90578e-05
2	1	0	0	0	889.6	0.701087	0.702063	0.092657	3	0.38454	12	6.50511e-05
2	1	0	1	0	890.5	0.692084	0.692674	0.0750068	3	0.384615	12	5.19553e-05
2	1	0	1	0	891.4	0.683082	0.68338	0.0597584	3	0.384677	12	4.08377e-05
2	1	0	0	0	892.301	0.674079	0.674262	0.0483576	3	0.384726	12	3.26057e-05
2	1	0	0	0	893.201	0.665076	0.665717	0.0395745	3	0.384765	12	2.63454e-05
2	1	0	1	0	894.101	0.656073	0.657227	0.03092	3	0.384795	12	2.03215e-05
2	1	0	1	0	895.002	0.64707	0.64772	0.0229973	3	0.384819	12	1.48958e-05
2	0	0	0	0	895.902	0.638068	0.638218	0.0177717	3	0.384837	12	1.13422e-05
2	1	0	1	0	896.802	0.629065	0.629618	0.0146511	3	0.38485	12	9.22462e-06
2	0	0	1	0	897.702	0.620062	0.620397	0.0117302	3	0.384861	12	7.27739e-06
2	0	0	0	0	898.603	0.611059	0.611545	0.00791275	3	0.384868	12	4.839e-06
2	0	0	1	0	899.503	0.602056	0.602407	0.00517725	3	0.384874	12	3.11881e-06
2	0	0	1	0	900.403	0.593054	0.594082	0.00449644	3	0.384878	12	2.67125e-06
2	0	0	0	0	901.303	0.584051	0.584415	0.00374933	3	0.38488	12	2.19116e-06
2	1	0	0	0	902.204	0.575048	0.576034	0.00202347	3	0.384882	12	1.16559e-06
2	0	0	1	0	903.104	0.566045	0.566583	0.000134572	3	0.384882	12	7.62462e-08
2	0	0	1	0	904.004	0.557042	0.557169	-0.00123669	3	0.384882	12	-6.89043e-07
2	0	0	0	0	904.905	0.54804	0.548617	-0.00124004	3	0.384881	12	-6.80307e-07
2	0	0	1	0	905.805	0.539037	0.539747	-0.00141671	3	0.38488	12	-7.64664e-07
2	1	0	1	0	906.705	0.530034	0.529939	-0.00214017	3	0.384878	12	-1.13416e-06
2	0	0	0	0	907.605	0.521031	0.521249	-0.00367783	3	0.384875	12	-1.91706e-06
2	0	0	1	0	908.506	0.512028	0.512405	-0.00463921	3	0.384872	12	-2.37716e-06
2	1	0	1	0	909.406	0.503026	0.503923	-0.0050928	3	0.384868	12	-2.56638e-06
2	1	0	0	0	910.306	0.494023	0.494988	-0.00482322	3	0.384864	12	-2.38744e-06
2	1	0	0	0	911.207	0.48502	0.484693	-0.00496347	3	0.384859	12	-2.40576e-06
2	1	0	1	0	912.107	0.476017	0.476008	-0.00573636	3	0.384854	12	-2.73055e-06
2	0	0	0	0	913.007	0.467015	0.467219	-0.00721043	3	0.384848	12	-3.36884e-06
2	1	0	0	0	913.907	0.458012	0.458813	-0.00793209	3	0.384842	12	-3.63934e-06
2	0	0	1	0	914.808	0.449009	0.449759	-0.00826484	3	0.384835	12	-3.71718e-06
2	0	0	1	0	915.708	0.440006	0.440757	-0.00805132	3	0.384827	12	-3.54868e-06
2	0	0	0	0	916.608	0.431003	0.431182	-0.00862913	3	0.38482	12	-3.72073e-06
2	0	0	1	0	917.508	0.422001	0.422401	-0.00933329	3	0.384811	12	-3.94239e-06
2	1	0	1	0	918.409	0.412998	0.413369	-0.010654	3	0.384802	12	-4.40403e-06
2	1	0	0	0	919.309	0.403995	0.404815	-0.0112974	3	0.384792	12	-4.57335e-06
2	1	0	0	0	920.209	0.394992	0.395755	-0.011821	3	0.384782	12	-4.67823e-06
2	0	0	1	0	921.11	0.385989	0.386057	-0.0123964	3	0.38477	12	-4.78573e-06
2	0	0	0	0	922.01	0.376987	0.377646	-0.0130446	3	0.384759	12	-4.92623e-06
2	0	0	0	0	922.91	0.367984	0.368187	-0.0139871	3	0.384746	12	-5.14986e-06
2	0	0	1	0	923.81	0.358981	0.359321	-0.0151664	3	0.384732	12	-5.44959e-06
2	0	0	1	0	924.711	0.349979	0.349974	-0.0165389	3	0.384718	12	-5.78817e-06
2	0	0	0	0	925.611	0.340976	0.341351	-0.0172548	3	0.384703	12	-5.88995e-06
2	0	0	1	0	926.511	0.331973	0.332304	-0.0184309	3	0.384686	12	-6.12466e-06
2	0	0	1	0	927.412	0.32297	0.322924	-0.0191702	3	0.384669	12	-6.19053e-06
2	0	0	0	0	928.312	0.313967	0.314839	-0.0198846	3	0.384651	12	-6.26043e-06
2	0	0	1	0	929.212	0.304965	0.305447	-0.0212173	3	0.384632	12	-6.48075e-06
2	0	0	1	0	930.112	0.295962	0.296648	-0.0223172	3	0.384613	12	-6.62035e-06
2	1	0	0	0	931.013	0.286959	0.287122	-0.0235174	3	0.384592	12	-6.75237e-06
2	0	0	0	0	931.913	0.277956	0.278153	-0.0246015	3	0.38457	12	-6.843e-06
2	0	0	1	0	932.813	0.268953	0.269804	-0.0253903	3	0.384548	12	-6.8504e-06
2	0	0	1	0	933.714	0.259951	0.260367	-0.0261017	3	0.384524	12	-6.79604e-06
2	0	0	0	0	934.614	0.250948	0.250857	-0.026052	3	0.384501	12	-6.53531e-06
2	0	0	1	0	935.514	0.241945	0.24235	-0.0260751	3	0.384477	12	-6.31932e-06
2	1	0	1	0	936.414	0.232942	0.233422	-0.0258988	3	0.384454	12	-6.04535e-06
2	0	0	0	0	937.315	0.223939	0.223928	-0.0250452	3	0.384431	12	-5.60831e-06
2	0	0	1	0	938.215	0.214936	0.215364	-0.0243814	3	0.384408	12	-5.25087e-06
2	0	0	1	0	939.115	0.205934	0.206442	-0.0225887	3	0.384387	12	-4.66324e-06
2	0	0	0	0	940.015	0.196931	0.197066	-0.020625	3	0.384368	12	-4.0645e-06
2	0	0	0	0	940.916	0.187928	0.187924	-0.0184051	3	0.384351	12	-3.45877e-06
2	0	0	1	0	941.816	0.178925	0.179521	-0.0165385	3	0.384335	12	-2.969e-06
2	0	0	1	0	942.716	0.169922	0.170539	-0.0146916	3	0.384321	12	-2.5055e-06
2	0	0	0	0	943.617	0.16092	0.160999	-0.0134676	3	0.384308	12	-2.16827e-06
2	0	0	1	0	944.517	0.151917	0.152166	-0.0128328	3	0.384296	12	-1.95272e-06
2	1	0	1	0	945.417	0.142914	0.144344	-0.0115683	3	0.384285	12	-1.66982e-06
2	1	0	0	0	946.317	0.133911	0.13421	-0.0105767	3	0.384276	12	-1.4195e-06
2	0	0	1	0	947.218	0.124908	0.125325	-0.00944689	3	0.384267	12	-1.18393e-06
2	0	0	1	0	948.118	0.115906	0.11642	-0.00894151	3	0.384258	12	-1.04097e-06
2	0	0	0	0	949.018	0.106903	0.107681	-0.00812701	3	0.38425	12	-8.75122e-07
2	1	0	0	0	949.919	0.0979002	0.0988739	-0.00816884	3	0.384243	12	-8.07685e-07
2	0	0	1	0	950.819	0.0888974	0.0891273	-0.00746352	3	0.384236	12	-6.65203e-07
2	0	0	1	0	951.719	0.079894	0.080427	-0.00701615	3	0.384229	12	-5.64288e-07
2	0	0	0	0	952.619	0.0708918	0.0706387	-0.00644574	3	0.384223	12	-4.55319e-07
2	0	0	1	0	953.52	0.0618891	0.0626934	-0.00597474	3	0.384217	12	-3.74577e-07
2	0	0	1	0	954.42	0.0528863	0.0538125	-0.00591293	3	0.384212	12	-3.18189e-07
2	0	0	0	0	955.32	0.0438835	0.0444966	-0.00563657	3	0.384206	12	-2.50808e-07
2	0	0	1	0	956.22	0.0348807	0.0352517	-0.00570689	3	0.384201	12	-2.01178e-07
2	0	0	1	0	957.121	0.0258779	0.0259517	-0.00550391	3	0.384196	12	-1.42836e-07
2	0	0	0	0	958.021	0.0168751	0.01751	-0.0051471	3	0.384191	12	-9.01256e-08
2	0	0	0	0	958.921	0.00787233	0.00843594	-0.0049181	3	0.384186	12	-4.14888e-08
2	0	0	1	1	959.707	1.98929e-05	0.00189962	-0.00656725	3	0.384182	12	-1.24753e-08
2	0	0	1	1	960.562	0.00857232	0.00895253	-0.00455072	3	0.384179	12	-4.07404e-08
2	1	0	0	1	961.463	0.0175753	0.0175567	-0.00408364	3	0.384175	12	-7.16951e-08
2	1	0	1	1	962.363	0.0265781	0.0264981	-0.00323367	3	0.384172	12	-8.5686e-08
2	0	0	1	1	963.263	0.0355809	0.0358883	-0.0030341	3	0.384169	12	-1.08889e-07
2	0	0	0	1	964.163	0.0445837	0.0447416	-0.00273233	3	0.384166	12	-1.22249e-07
2	1	0	1	1	965.064	0.0535867	0.0539071	-0.00314631	3	0.384163	12	-1.69608e-07
2	0	0	1	1	965.964	0.0625893	0.0630382	-0.00266627	3	0.384161	12	-1.68077e-07
2	0	0	0	1	966.864	0.0715921	0.0718651	-0.00251564	3	0.384159	12	-1.80787e-07
2	1	0	0	1	967.765	0.0805949	0.0810813	-0.00202658	3	0.384156	12	-1.64318e-07
2	0	0	1	1	968.665	0.0895976	0.0904863	-0.00202737	3	0.384154	12	-1.83449e-07
2	0	0	1	1	969.565	0.0986009	0.0989882	-0.00194208	3	0.384153	12	-1.92243e-07
2	0	0	0	1	970.465	0.107603	0.108195	-0.00220369	3	0.384151	12	-2.38428e-07
2	0	0	1	1	971.366	0.116606	0.11678	-0.00175281	3	0.384149	12	-2.04693e-07
2	1	0	1	1	972.266	0.125609	0.125942	-0.00120081	3	0.384148	12	-1.51233e-07
2	0	0	0	1	973.166	0.134612	0.13523	-0.00138441	3	0.384146	12	-1.87213e-07
2	0	0	1	1	974.067	0.143615	0.144863	-0.00136817	3	0.384145	12	-1.98197e-07
2	0	0	1	1	974.967	0.152617	0.153618	-0.00159247	3	0.384144	12	-2.44632e-07
2	1	0	0	1	975.867	0.16162	0.162316	-0.00142415	3	0.384143	12	-2.31162e-07
2	1	0	0	1	976.767	0.170623	0.171407	-0.00164238	3	0.384142	12	-2.81516e-07
2	1	0	1	1	977.668	0.179626	0.180511	-0.00143965	3	0.384141	12	-2.59872e-07
2	1	0	1	1	978.568	0.188629	0.188693	-0.00115628	3	0.38414	12	-2.18181e-07
2	1	0	0	1	979.468	0.197631	0.198138	-0.000976742	3	0.384139	12	-1.93529e-07
2	1	0	1	1	980.368	0.206634	0.207109	-0.000682823	3	0.384138	12	-1.41419e-07
2	0	0	1	1	981.269	0.215637	0.215899	-0.000638259	3	0.384137	12	-1.37799e-07
2	1	0	0	1	982.169	0.224639	0.225158	-0.0010814	3	0.384137	12	-2.43487e-07
2	0	0	1	1	983.069	0.233642	0.234016	-0.00100854	3	0.384136	12	-2.36014e-07
2	1	0	1	1	983.97	0.242645	0.242798	-0.000984846	3	0.384136	12	-2.39119e-07
2	1	0	0	1	984.404	0.246996	0.247577	-0.00329894	3	0.384135	12	-8.1674e-07