File: Lares Oxides/2024-6-18 FTO blank_KOH9999_CV_C05.mpt
EC-Lab ASCII FILE
Nb header lines : 65

Potentio Electrochemical Impedance Spectroscopy

Run on channel : 5 (SN 39658)
User :
CE vs. WE compliance from -10 V to 10 V
Electrode connection : standard
Potential control : Ewe
Ewe ctrl range : min = -10.00 V, max = 10.00 V
Safety Limits :
	Do not start on E overload
Acquisition started on : 06/18/2024 16:23:40.482
Technique started on : 06/18/2024 16:23:42.019
Loaded Setting File :  NONE
Saved on :
	File : 2024-6-18 FTO blank_KOH9999_CV_C05.mpr
	Directory : C:\Users\sfolkman\OneDrive - New Mexico State University\Folkman Group Folder\Scott\
	Host : 172.24.124.15
Device : VSP (SN 1910)
Address : USB
EC-Lab for windows v11.46 (software)
Internet server v11.40 (firmware)
Command interpretor v11.40 (firmware)
Electrode material :
Initial state :
Electrolyte :
Comments :
Current amplifier : VSPB-4A
Electrode surface area : 0.001 cm²
Characteristic mass : 0.001 g
Equivalent Weight : 0.000 g/eq.
Density : 0.000 g/cm3
Volume (V) : 0.001 cm³
Cycle Definition : Charge/Discharge alternance
Mode                Single sine
E (V)               0.0000
vs.                 Eoc
tE (h:m:s)          0:00:0.0000
record              0
dI                  0.000
unit dI             mA
dt (s)              0.000
fi                  200.000
unit fi             kHz
ff                  100.000
unit ff             mHz
Nd                  6
Points              per decade
spacing             Logarithmic
Va (mV)             10.0
pw                  0.10
Na                  2
corr                0
E range min (V)     -10.000
E range max (V)     10.000
I Range             Auto
Bandwidth           4
nc cycles           0
goto Ns'            0
nr cycles           0
inc. cycle          0

freq/Hz	Re(Z)/Ohm	-Im(Z)/Ohm	|Z|/Ohm	Phase(Z)/deg	time/s	<Ewe>/V	<I>/mA	Cs/µF	Cp/µF	cycle number	I Range	|Ewe|/V	|I|/A	Ns	(Q-Qo)/mA.h	Re(Y)/Ohm-1	Im(Y)/Ohm-1	|Y|/Ohm-1	Phase(Y)/deg	Re(C)/nF	Im(C)/nF	|C|/nF	Phase(C)/deg	Re(M)	Im(M)	|M|	Phase(M)/deg	Re(Permittivity)	Im(Permittivity)	|Permittivity|	Phase(Permittivity)/deg	Re(Resistivity)/Ohm.cm	Im(Resistivity)/Ohm.cm	|Resistivity|/Ohm.cm	Phase(Resistivity)/deg	Re(Conductivity)/mS/cm	Im(Conductivity)/mS/cm	|Conductivity|/mS/cm	Phase(Conductivity)/deg	Tan(Delta)	Loss Angle(Delta)/deg	dq/mA.h
199998	9.94275	15.9775	18.8186	-58.1062	1.53747	-0.112214	-0.0131828	0.0498063	0.0359029	1	10	0.0107025	0.000568721	0	-3.25012e-06	0.0280758	0.0451165	0.0531389	58.1062	35.9029	22.3422	42.287	-31.8938	0.0000000E+000	0.0000000E+000	0.0000000E+000	31.8938	0.0000000E+000	0.0000000E+000	0.0000000E+000	-31.8938	0.0000000E+000	0.0000000E+000	0.0000000E+000	-58.1062	0.0000000E+000	0.0000000E+000	0.0000000E+000	58.1062	0.622296	58.1062	-3.25012e-06
135123	14.4032	13.6111	19.817	-43.3804	2.13248	-0.112129	-0.0129297	0.0865363	0.0408233	1	10	0.0101809	0.000513748	0	-7.85788e-06	0.036676	0.0346591	0.0504617	43.3804	40.8233	43.199	59.4365	-46.6196	0.0000000E+000	0.0000000E+000	0.0000000E+000	46.6196	0.0000000E+000	0.0000000E+000	0.0000000E+000	-46.6196	0.0000000E+000	0.0000000E+000	0.0000000E+000	-43.3804	0.0000000E+000	0.0000000E+000	0.0000000E+000	43.3804	1.05819	43.3804	-4.60776e-06
91291.2	18.2932	9.42674	20.5792	-27.2626	2.7275	-0.11214	-0.0131307	0.18494	0.0388055	1	10	0.0101341	0.000492445	0	-2.0544e-06	0.0431948	0.0222588	0.0485926	27.2626	38.8055	75.3048	84.7153	-62.7373	0.0000000E+000	0.0000000E+000	0.0000000E+000	62.7373	0.0000000E+000	0.0000000E+000	0.0000000E+000	-62.7373	0.0000000E+000	0.0000000E+000	0.0000000E+000	-27.2626	0.0000000E+000	0.0000000E+000	0.0000000E+000	27.2626	1.94057	27.2626	5.80348e-06
61674.2	18.7413	5.14649	19.4351	-15.3553	3.1735	-0.112106	-0.0137468	0.501424	0.0351603	1	10	0.0105672	0.000543718	0	-6.78803e-06	0.0496164	0.013625	0.0514532	15.3553	35.1603	128.039	132.779	-74.6447	0.0000000E+000	0.0000000E+000	0.0000000E+000	74.6447	0.0000000E+000	0.0000000E+000	0.0000000E+000	-74.6447	0.0000000E+000	0.0000000E+000	0.0000000E+000	-15.3553	0.0000000E+000	0.0000000E+000	0.0000000E+000	15.3553	3.64158	15.3553	-4.73364e-06
41669.8	18.007	3.11306	18.2741	-9.80839	3.61948	-0.112095	-0.0133485	1.22691	0.0356053	1	10	0.0104643	0.000572629	0	-1.20017e-05	0.0539224	0.00932214	0.0547223	9.80839	35.6053	205.953	209.008	-80.1916	0.0000000E+000	0.0000000E+000	0.0000000E+000	80.1916	0.0000000E+000	0.0000000E+000	0.0000000E+000	-80.1916	0.0000000E+000	0.0000000E+000	0.0000000E+000	-9.80839	0.0000000E+000	0.0000000E+000	0.0000000E+000	9.80839	5.78433	9.80839	-5.2137e-06
28151	17.5712	2.38607	17.7325	-7.73314	4.06549	-0.112102	-0.0126356	2.36943	0.0429013	1	10	0.0103837	0.000585572	0	-1.50416e-05	0.0558808	0.00758829	0.0563936	7.73314	42.9013	315.929	318.828	-82.2669	0.0000000E+000	0.0000000E+000	0.0000000E+000	82.2669	0.0000000E+000	0.0000000E+000	0.0000000E+000	-82.2669	0.0000000E+000	0.0000000E+000	0.0000000E+000	-7.73314	0.0000000E+000	0.0000000E+000	0.0000000E+000	7.73314	7.36408	7.73314	-3.03986e-06
19020.9	17.303	2.33552	17.4599	-7.68718	4.5115	-0.112109	-0.0131735	3.58266	0.0641042	1	10	0.0102974	0.000589776	0	-1.38456e-05	0.0567593	0.00766123	0.057274	7.68718	64.1042	474.925	479.232	-82.3128	0.0000000E+000	0.0000000E+000	0.0000000E+000	82.3128	0.0000000E+000	0.0000000E+000	0.0000000E+000	-82.3128	0.0000000E+000	0.0000000E+000	0.0000000E+000	-7.68718	0.0000000E+000	0.0000000E+000	0.0000000E+000	7.68718	7.40864	7.68718	1.196e-06
12850.7	17.3416	2.58898	17.5338	-8.49113	4.95748	-0.112108	-0.0137244	4.7837	0.104296	1	10	0.0103006	0.000587469	0	-2.01963e-05	0.0564075	0.00842124	0.0570327	8.49113	104.296	698.602	706.344	-81.5089	0.0000000E+000	0.0000000E+000	0.0000000E+000	81.5089	0.0000000E+000	0.0000000E+000	0.0000000E+000	-81.5089	0.0000000E+000	0.0000000E+000	0.0000000E+000	-8.49113	0.0000000E+000	0.0000000E+000	0.0000000E+000	8.49113	6.69825	8.49113	-6.35067e-06
8683.37	17.351	3.1996	17.6435	-10.4482	5.43098	-0.112086	-0.0120661	5.72843	0.18839	1	10	0.0102219	0.000579357	0	-2.58075e-05	0.0557383	0.0102784	0.0566781	10.4482	188.39	1021.61	1038.84	-79.5518	0.0000000E+000	0.0000000E+000	0.0000000E+000	79.5518	0.0000000E+000	0.0000000E+000	0.0000000E+000	-79.5518	0.0000000E+000	0.0000000E+000	0.0000000E+000	-10.4482	0.0000000E+000	0.0000000E+000	0.0000000E+000	10.4482	5.42285	10.4482	-5.61124e-06
5865.09	17.3496	4.27781	17.8692	-13.8508	6.06885	-0.112121	-0.0156899	6.34344	0.363542	1	10	0.0100884	0.000564567	0	-2.36774e-05	0.0543349	0.0133971	0.0559621	13.8508	363.542	1474.43	1518.59	-76.1492	0.0000000E+000	0.0000000E+000	0.0000000E+000	76.1492	0.0000000E+000	0.0000000E+000	0.0000000E+000	-76.1492	0.0000000E+000	0.0000000E+000	0.0000000E+000	-13.8508	0.0000000E+000	0.0000000E+000	0.0000000E+000	13.8508	4.05573	13.8508	2.13007e-06
3961.2	17.4967	5.9608	18.4842	-18.813	6.54396	-0.112082	-0.0145694	6.74046	0.700962	1	10	0.0106411	0.000575683	0	-2.54574e-05	0.0512099	0.0174462	0.0541001	18.813	700.962	2057.54	2173.66	-71.187	0.0000000E+000	0.0000000E+000	0.0000000E+000	71.187	0.0000000E+000	0.0000000E+000	0.0000000E+000	-71.187	0.0000000E+000	0.0000000E+000	0.0000000E+000	-18.813	0.0000000E+000	0.0000000E+000	0.0000000E+000	18.813	2.9353	18.813	-1.77997e-06
2677.43	17.6273	8.54042	19.5872	-25.8502	7.01794	-0.112052	-0.014441	6.96021	1.32323	1	10	0.0108608	0.000554484	0	-2.50593e-05	0.0459451	0.0222604	0.0510537	25.8502	1323.23	2731.12	3034.79	-64.1498	0.0000000E+000	0.0000000E+000	0.0000000E+000	64.1498	0.0000000E+000	0.0000000E+000	0.0000000E+000	-64.1498	0.0000000E+000	0.0000000E+000	0.0000000E+000	-25.8502	0.0000000E+000	0.0000000E+000	0.0000000E+000	25.8502	2.06398	25.8502	3.98058e-07
1808.26	17.6968	12.3673	21.59	-34.9475	7.49197	-0.112043	-0.0147332	7.11676	2.33522	1	10	0.0108976	0.000504753	0	-2.45914e-05	0.0379655	0.026532	0.0463177	34.9475	2335.22	3341.55	4076.66	-55.0525	0.0000000E+000	0.0000000E+000	0.0000000E+000	55.0525	0.0000000E+000	0.0000000E+000	0.0000000E+000	-55.0525	0.0000000E+000	0.0000000E+000	0.0000000E+000	-34.9475	0.0000000E+000	0.0000000E+000	0.0000000E+000	34.9475	1.43093	34.9475	4.67948e-07
1221.96	17.864	18.0602	25.4026	-45.313	7.96545	-0.112041	-0.0151222	7.21176	3.64528	1	10	0.0108414	0.000426783	0	-2.4399e-05	0.0276835	0.0279876	0.039366	45.313	3645.28	3605.67	5127.27	-44.687	0.0000000E+000	0.0000000E+000	0.0000000E+000	44.687	0.0000000E+000	0.0000000E+000	0.0000000E+000	-44.687	0.0000000E+000	0.0000000E+000	0.0000000E+000	-45.313	0.0000000E+000	0.0000000E+000	0.0000000E+000	45.313	0.989132	45.313	1.92366e-07
825.264	18.3158	26.5593	32.2625	-55.409	8.9347	-0.112082	-0.00170795	7.26124	4.92095	1	11	0.0102561	0.000317895	0	-2.96056e-05	0.0175967	0.0255165	0.0309958	55.409	4920.95	3393.59	5977.64	-34.591	0.0000000E+000	0.0000000E+000	0.0000000E+000	34.591	0.0000000E+000	0.0000000E+000	0.0000000E+000	-34.591	0.0000000E+000	0.0000000E+000	0.0000000E+000	-55.409	0.0000000E+000	0.0000000E+000	0.0000000E+000	55.409	0.689621	55.409	-5.20656e-06
558.036	18.7849	38.8215	43.1275	-64.1787	9.41045	-0.112082	-0.00176697	7.34659	5.95281	1	11	0.00979516	0.000227121	0	-3.0463e-05	0.0100995	0.020872	0.0231871	64.1787	5952.81	2880.43	6613.09	-25.8213	0.0000000E+000	0.0000000E+000	0.0000000E+000	25.8213	0.0000000E+000	0.0000000E+000	0.0000000E+000	-25.8213	0.0000000E+000	0.0000000E+000	0.0000000E+000	-64.1787	0.0000000E+000	0.0000000E+000	0.0000000E+000	64.1787	0.483878	64.1787	-8.57376e-07
377.051	19.7289	56.9976	60.3155	-70.9075	9.88169	-0.112056	-0.00183977	7.40565	6.61331	1	11	0.00954512	0.000158253	0	-2.99852e-05	0.00542307	0.0156675	0.0165795	70.9075	6613.31	2289.1	6998.28	-19.0925	0.0000000E+000	0.0000000E+000	0.0000000E+000	19.0925	0.0000000E+000	0.0000000E+000	0.0000000E+000	-19.0925	0.0000000E+000	0.0000000E+000	0.0000000E+000	-70.9075	0.0000000E+000	0.0000000E+000	0.0000000E+000	70.9075	0.346135	70.9075	4.778e-07
254.755	21.4103	83.5011	86.2023	-75.6188	10.356	-0.112095	-0.00173681	7.48177	7.02023	1	11	0.0093955	0.000108994	0	-3.03306e-05	0.00288127	0.0112371	0.0116006	75.6188	7020.23	1800.03	7247.32	-14.3812	0.0000000E+000	0.0000000E+000	0.0000000E+000	14.3812	0.0000000E+000	0.0000000E+000	0.0000000E+000	-14.3812	0.0000000E+000	0.0000000E+000	0.0000000E+000	-75.6188	0.0000000E+000	0.0000000E+000	0.0000000E+000	75.6188	0.256407	75.6188	-3.45399e-07
172.037	23.8775	122.469	124.775	-78.9676	10.8244	-0.112086	-0.00168804	7.55391	7.27729	1	11	0.00932863	7.47636e-05	0	-3.0936e-05	0.00153367	0.00786631	0.00801442	78.9676	7277.29	1418.83	7414.31	-11.0324	0.0000000E+000	0.0000000E+000	0.0000000E+000	11.0324	0.0000000E+000	0.0000000E+000	0.0000000E+000	-11.0324	0.0000000E+000	0.0000000E+000	0.0000000E+000	-78.9676	0.0000000E+000	0.0000000E+000	0.0000000E+000	78.9676	0.194967	78.9676	-6.0544e-07
116.227	28.3546	178.781	181.015	-80.988	11.2936	-0.112057	-0.0017694	7.65934	7.4714	1	11	0.00928716	5.1306e-05	0	-3.13592e-05	0.000865353	0.0054562	0.0055244	80.988	7471.4	1184.96	7564.79	-9.01204	0.0000000E+000	0.0000000E+000	0.0000000E+000	9.01204	0.0000000E+000	0.0000000E+000	0.0000000E+000	-9.01204	0.0000000E+000	0.0000000E+000	0.0000000E+000	-80.988	0.0000000E+000	0.0000000E+000	0.0000000E+000	80.988	0.1586	80.988	-4.23221e-07
78.5176	34.0317	261.447	263.653	-82.5837	12.0426	-0.112057	-0.000281974	7.75299	7.62382	1	12	0.00939257	3.56248e-05	0	-3.12915e-05	0.000489575	0.00376114	0.00379287	82.5837	7623.82	992.367	7688.13	-7.4163	0.0000000E+000	0.0000000E+000	0.0000000E+000	7.4163	0.0000000E+000	0.0000000E+000	0.0000000E+000	-7.4163	0.0000000E+000	0.0000000E+000	0.0000000E+000	-82.5837	0.0000000E+000	0.0000000E+000	0.0000000E+000	82.5837	0.130167	82.5837	6.77184e-08
53.0478	50.14	382.744	386.014	-82.5367	12.5311	-0.112071	-0.000283836	7.83871	7.70645	1	12	0.00933458	2.4182e-05	0	-3.11849e-05	0.000336495	0.00256863	0.00259058	82.5367	7706.45	1009.56	7772.3	-7.46333	0.0000000E+000	0.0000000E+000	0.0000000E+000	7.46333	0.0000000E+000	0.0000000E+000	0.0000000E+000	-7.46333	0.0000000E+000	0.0000000E+000	0.0000000E+000	-82.5367	0.0000000E+000	0.0000000E+000	0.0000000E+000	82.5367	0.131001	82.5367	1.06585e-07
35.8372	65.4316	546.082	549.988	-83.1674	12.9951	-0.112089	-0.000229575	8.13259	8.01748	1	12	0.00928095	1.68748e-05	0	-3.11558e-05	0.000216313	0.00180531	0.00181822	83.1674	8017.48	960.657	8074.83	-6.83262	0.0000000E+000	0.0000000E+000	0.0000000E+000	6.83262	0.0000000E+000	0.0000000E+000	0.0000000E+000	-6.83262	0.0000000E+000	0.0000000E+000	0.0000000E+000	-83.1674	0.0000000E+000	0.0000000E+000	0.0000000E+000	83.1674	0.11982	83.1674	2.91087e-08
24.2323	100.751	809.621	815.866	-82.9064	13.4821	-0.112063	-0.000301892	8.11229	7.98858	1	12	0.00927737	1.13712e-05	0	-3.13128e-05	0.000151361	0.00121631	0.00122569	82.9064	7988.58	994.118	8050.2	-7.09356	0.0000000E+000	0.0000000E+000	0.0000000E+000	7.09356	0.0000000E+000	0.0000000E+000	0.0000000E+000	-7.09356	0.0000000E+000	0.0000000E+000	0.0000000E+000	-82.9064	0.0000000E+000	0.0000000E+000	0.0000000E+000	82.9064	0.124442	82.9064	-1.57028e-07
16.367	163.937	1144.18	1155.86	-81.8462	13.921	-0.112091	-0.000158468	8.4988	8.32784	1	12	0.00926423	8.01498e-06	0	-3.13027e-05	0.000122706	0.000856407	0.000865153	81.8462	8327.84	1193.21	8412.88	-8.15382	0.0000000E+000	0.0000000E+000	0.0000000E+000	8.15382	0.0000000E+000	0.0000000E+000	0.0000000E+000	-8.15382	0.0000000E+000	0.0000000E+000	0.0000000E+000	-81.8462	0.0000000E+000	0.0000000E+000	0.0000000E+000	81.8462	0.143279	81.8462	1.01411e-08
11.0502	266.936	1668.14	1689.36	-80.9086	14.6017	-0.11208	-8.28043e-05	8.63412	8.41855	1	13	0.00930248	5.50651e-06	0	-3.12607e-05	9.35326e-05	0.000584504	0.000591941	80.9086	8418.55	1347.14	8525.65	-9.09142	0.0000000E+000	0.0000000E+000	0.0000000E+000	9.09142	0.0000000E+000	0.0000000E+000	0.0000000E+000	-9.09142	0.0000000E+000	0.0000000E+000	0.0000000E+000	-80.9086	0.0000000E+000	0.0000000E+000	0.0000000E+000	80.9086	0.16002	80.9086	4.20196e-08
7.46893	371.678	2330.15	2359.6	-80.9372	14.9396	-0.112049	-3.77696e-05	9.14489	8.91798	1	13	0.00926702	3.92736e-06	0	-3.12862e-05	6.67558e-05	0.000418509	0.0004238	80.9372	8917.99	1422.49	9030.72	-9.06282	0.0000000E+000	0.0000000E+000	0.0000000E+000	9.06282	0.0000000E+000	0.0000000E+000	0.0000000E+000	-9.06282	0.0000000E+000	0.0000000E+000	0.0000000E+000	-80.9372	0.0000000E+000	0.0000000E+000	0.0000000E+000	80.9372	0.159509	80.9372	-2.55065e-08
5.04683	502.565	3325.34	3363.11	-81.4058	15.4149	-0.112074	-5.85185e-05	9.48341	9.27164	1	13	0.00926615	2.75523e-06	0	-3.12662e-05	4.44335e-05	0.000294005	0.000297344	81.4058	9271.63	1401.24	9376.92	-8.59417	0.0000000E+000	0.0000000E+000	0.0000000E+000	8.59417	0.0000000E+000	0.0000000E+000	0.0000000E+000	-8.59417	0.0000000E+000	0.0000000E+000	0.0000000E+000	-81.4058	0.0000000E+000	0.0000000E+000	0.0000000E+000	81.4058	0.151132	81.4058	1.99673e-08
3.4086	778.415	4613.1	4678.32	-80.4221	16.0832	-0.112064	-0.000103362	10.1217	9.84144	1	13	0.00925599	1.97849e-06	0	-3.13056e-05	3.55658e-05	0.000210772	0.000213752	80.4221	9841.44	1660.64	9980.56	-9.57787	0.0000000E+000	0.0000000E+000	0.0000000E+000	9.57787	0.0000000E+000	0.0000000E+000	0.0000000E+000	-9.57787	0.0000000E+000	0.0000000E+000	0.0000000E+000	-80.4221	0.0000000E+000	0.0000000E+000	0.0000000E+000	80.4221	0.16874	80.4221	-3.93609e-08
2.30321	1014.26	6724.17	6800.23	-81.4223	22.8051	-0.112051	-2.89128e-05	10.2766	10.0479	1	13	0.0104065	1.53032e-06	0	-3.12488e-05	2.19333e-05	0.000145409	0.000147054	81.4223	10047.9	1515.62	10161.6	-8.57774	0.0000000E+000	0.0000000E+000	0.0000000E+000	8.57774	0.0000000E+000	0.0000000E+000	0.0000000E+000	-8.57774	0.0000000E+000	0.0000000E+000	0.0000000E+000	-81.4223	0.0000000E+000	0.0000000E+000	0.0000000E+000	81.4223	0.150839	81.4223	5.68222e-08
1.55627	1469.39	9799.37	9908.92	-81.4722	32.0515	-0.112052	-2.09422e-05	10.436	10.2066	1	13	0.0104137	1.05094e-06	0	-3.12152e-05	1.49653e-05	9.98034e-05	0.000100919	81.4722	10206.6	1530.45	10320.7	-8.52782	0.0000000E+000	0.0000000E+000	0.0000000E+000	8.52782	0.0000000E+000	0.0000000E+000	0.0000000E+000	-8.52782	0.0000000E+000	0.0000000E+000	0.0000000E+000	-81.4722	0.0000000E+000	0.0000000E+000	0.0000000E+000	81.4722	0.149947	81.4722	3.36105e-08