File: Lares Oxides/2024-6-26 CoOx on FTO_1_03mg_02_CV_C05.mpt
EC-Lab ASCII FILE
Nb header lines : 60

Cyclic Voltammetry

Run on channel : 5 (SN 39658)
User :
CE vs. WE compliance from -10 V to 10 V
Electrode connection : standard
Potential control : Ewe
Ewe ctrl range : min = -2.50 V, max = 2.50 V
Safety Limits :
	Do not start on E overload
Acquisition started on : 06/26/2024 14:29:21.159
Technique started on : 06/26/2024 14:30:41.093
Loaded Setting File :  C:\Users\sfolkman\OneDrive - New Mexico State University\Folkman Group Folder\Scott\2024-6-19 FeOx on FTO_1_03mg.mps
Saved on :
	File : 2024-6-26 CoOx on FTO_1_03mg_02_CV_C05.mpr
	Directory : C:\Users\sfolkman\OneDrive - New Mexico State University\Folkman Group Folder\Scott\
	Host : 172.24.124.15
Device : VSP (SN 1910)
Address : USB
EC-Lab for windows v11.46 (software)
Internet server v11.40 (firmware)
Command interpretor v11.40 (firmware)
Electrode material :
Initial state :
Electrolyte :
Comments :
Current amplifier : VSPB-4A
Electrode surface area : 0.001 cm²
Characteristic mass : 0.001 g
Equivalent Weight : 0.000 g/eq.
Density : 0.000 g/cm3
Volume (V) : 0.001 cm³
Record Ece
Cycle Definition : Charge/Discharge alternance
Ei (V)              0.000
vs.                 Eoc
dE/dt               10.000
dE/dt unit          mV/s
E1 (V)              1.000
vs.                 Ref
Step percent        50
N                   10
E range min (V)     -2.500
E range max (V)     2.500
I Range             Auto
I Range min         Unset
I Range max         Unset
I Range init        Unset
Bandwidth           4
E2 (V)              0.000
vs.                 Ref
nc cycles           2
Reverse Scan        1
Ef (V)              0.000
vs.                 Eoc

mode	ox/red	error	control changes	counter inc.	time/s	control/V	Ewe/V	<I>/mA	cycle number	(Q-Qo)/C	I Range	<Ece>/V	P/W	Ewe-Ece/V
2	0	0	1	0	79.9338	0.183857	0.184006	-0.000829816	1	0.0000000E+000	13	0.101099	-1.52691e-07	0.0829073
2	0	0	0	0	80.989	0.19441	0.194836	0.00107049	1	1.53813e-07	13	0.0985955	2.08571e-07	0.0962406
2	1	0	0	0	82.0894	0.205414	0.205358	0.00268427	1	2.45426e-06	13	0.089195	5.51236e-07	0.116163
2	1	0	0	0	83.1898	0.216418	0.216752	0.00434574	1	6.46945e-06	13	0.0750761	9.41951e-07	0.141676
2	1	0	0	0	84.2902	0.227422	0.227892	0.0061544	1	1.23523e-05	13	0.0573915	1.40254e-06	0.170501
2	1	0	0	0	85.3906	0.238426	0.238801	0.00820656	1	2.03642e-05	13	0.0380002	1.95973e-06	0.2008
2	1	0	0	0	86.491	0.24943	0.250047	0.0104822	1	3.08058e-05	13	0.0196026	2.62104e-06	0.230445
2	1	0	0	0	87.5914	0.260434	0.261131	0.0130165	1	4.3977e-05	13	0.00431199	3.39902e-06	0.256819
2	1	0	0	0	88.6918	0.271438	0.271883	0.0157217	1	6.01541e-05	13	-0.00712645	4.27446e-06	0.27901
2	1	0	0	0	89.7922	0.282441	0.282907	0.0187288	1	7.95808e-05	13	-0.0156922	5.29852e-06	0.298599
2	1	0	0	0	90.8926	0.293445	0.293849	0.0219769	1	0.000102481	13	-0.0222244	6.45789e-06	0.316074
2	1	0	0	0	91.993	0.304449	0.30483	0.0255155	1	0.000129066	13	-0.0277489	7.7779e-06	0.332579
2	1	0	0	0	93.0934	0.315453	0.316151	0.0292629	1	0.000159576	13	-0.0326283	9.25149e-06	0.348779
2	1	0	0	0	94.1938	0.326457	0.32692	0.033165	1	0.000194294	13	-0.0371005	1.08423e-05	0.364021
2	1	0	0	0	95.2942	0.337461	0.337796	0.0371912	1	0.000233472	13	-0.0412337	1.2563e-05	0.37903
2	1	0	0	0	96.3946	0.348465	0.348926	0.0412562	1	0.000277283	13	-0.0451013	1.43953e-05	0.394027
2	1	0	1	0	97.4949	0.359468	0.359879	0.0455262	1	0.000325792	13	-0.0489429	1.63839e-05	0.408822
2	1	0	1	0	98.5953	0.370473	0.37051	0.04991	1	0.000379062	13	-0.0525048	1.84921e-05	0.423014
2	1	0	1	0	99.6957	0.381477	0.381724	0.0544445	1	0.000437193	13	-0.0561208	2.07828e-05	0.437845
2	1	0	1	0	100.796	0.39248	0.393308	0.0591739	1	0.000500322	13	-0.0596928	2.32736e-05	0.453001
2	1	0	1	0	101.896	0.403484	0.403991	0.0639752	1	0.000568625	13	-0.0633974	2.58454e-05	0.467388
2	1	0	1	0	102.997	0.414488	0.414494	0.0689133	1	0.000642304	13	-0.0671421	2.85641e-05	0.481636
2	1	0	1	0	104.097	0.425492	0.425858	0.0740466	1	0.000721611	13	-0.0714001	3.15334e-05	0.497259
2	1	0	1	0	105.198	0.436496	0.437024	0.0796416	1	0.00080686	13	-0.0758449	3.48053e-05	0.512869
2	1	0	1	0	106.298	0.4475	0.447802	0.0856765	1	0.000898433	13	-0.0808337	3.83661e-05	0.528636
2	1	0	1	0	107.398	0.458504	0.458787	0.0923096	1	0.000996838	13	-0.0866216	4.23505e-05	0.545409
2	1	0	1	0	108.529	0.469808	0.470371	0.0995258	1	0.0011061	12	-0.0937958	4.68141e-05	0.564167
2	1	0	1	0	109.629	0.480811	0.481328	0.107631	1	0.00122064	12	-0.10238	5.18055e-05	0.583707
2	1	0	1	0	110.73	0.491815	0.4921	0.117366	1	0.00134525	12	-0.11376	5.77558e-05	0.60586
2	1	0	1	0	111.83	0.502819	0.503081	0.129848	1	0.00148226	12	-0.129781	6.53239e-05	0.632862
2	1	0	1	0	112.93	0.513823	0.514162	0.147459	1	0.00163561	12	-0.153725	7.58177e-05	0.667887
2	1	0	1	0	114.031	0.524827	0.524983	0.17299	1	0.00181205	12	-0.191678	9.0817e-05	0.716661
2	1	0	1	0	115.131	0.535831	0.535915	0.20987	1	0.00202229	12	-0.253232	0.000112472	0.789147
2	1	0	1	0	116.232	0.546835	0.547347	0.258518	1	0.00227949	12	-0.342069	0.000141499	0.889416
2	1	0	1	0	117.332	0.557839	0.558225	0.316632	1	0.00259568	12	-0.470398	0.000176752	1.02862
2	1	0	1	0	118.432	0.568842	0.569201	0.38335	1	0.00298101	12	-0.623132	0.000218203	1.19233
2	1	0	1	0	119.533	0.579847	0.58022	0.457962	1	0.00344456	12	-0.708029	0.000265719	1.28825
2	1	0	0	0	120.633	0.59085	0.591476	0.540222	1	0.00399458	12	-0.801916	0.000319528	1.39339
2	1	0	0	0	121.733	0.601854	0.601447	0.631438	1	0.00464001	12	-0.922285	0.000379776	1.52373
2	1	0	0	0	122.834	0.612858	0.613479	0.733729	1	0.00539151	12	-0.943762	0.000450127	1.55724
2	1	0	0	0	123.934	0.623862	0.624136	0.849337	1	0.00626238	12	-0.952054	0.000530101	1.57619
2	1	0	0	0	125.035	0.634866	0.635333	0.979976	1	0.00726841	12	-0.958858	0.000622611	1.59419
2	1	0	0	0	126.165	0.64617	0.646562	1.12854	1	0.00846068	11	-0.965199	0.000729669	1.61176
2	1	0	0	0	127.265	0.657174	0.657753	1.29073	1	0.00979146	11	-0.971038	0.000848981	1.62879
2	1	0	0	0	128.366	0.668178	0.669117	1.46853	1	0.0113096	11	-0.976874	0.000982616	1.64599
2	1	0	0	0	129.466	0.679181	0.679628	1.66263	1	0.0130324	11	-0.982498	0.00112997	1.66213
2	1	0	0	0	130.567	0.690185	0.690663	1.87209	1	0.0149775	11	-0.988101	0.00129298	1.67876
2	1	0	0	0	131.667	0.701189	0.701569	2.09725	1	0.0171621	11	-0.993661	0.00147136	1.69523
2	1	0	0	0	132.767	0.712193	0.71287	2.33711	1	0.0196029	11	-0.999169	0.00166606	1.71204
2	1	0	0	0	133.868	0.723197	0.7235	2.59107	1	0.0223155	11	-1.00449	0.00187464	1.72799
2	1	0	0	0	134.968	0.734201	0.734441	2.85881	1	0.0253156	11	-1.00975	0.00209963	1.74419
2	1	0	0	0	136.069	0.745205	0.745338	3.13861	1	0.028617	11	-1.01486	0.00233933	1.76019
2	1	0	0	0	137.169	0.756209	0.756522	3.43044	1	0.0322327	11	-1.0199	0.0025952	1.77642
2	1	0	1	0	138.269	0.767212	0.767385	3.73165	1	0.0361741	11	-1.0248	0.00286361	1.79219
2	1	0	1	0	139.37	0.778216	0.778394	4.04164	1	0.0404525	11	-1.02945	0.00314599	1.80784
2	1	0	1	0	140.47	0.789221	0.789566	4.36012	1	0.0450772	11	-1.03397	0.0034426	1.82354
2	1	0	1	0	141.57	0.800224	0.800817	4.6853	1	0.050056	11	-1.03864	0.00375207	1.83945
2	1	0	1	0	142.671	0.811228	0.81157	5.01512	1	0.0553958	11	-1.04285	0.00407012	1.85442
2	1	0	1	0	143.771	0.822232	0.823154	5.34975	1	0.0611013	11	-1.04705	0.00440367	1.87021
2	1	0	1	0	144.872	0.833236	0.83388	5.68883	1	0.067177	11	-1.05145	0.0047438	1.88533
2	1	0	1	0	145.972	0.84424	0.844793	6.03059	1	0.0736273	11	-1.05542	0.0050946	1.90021
2	1	0	1	0	147.072	0.855243	0.855996	6.37457	1	0.0804548	11	-1.05958	0.00545661	1.91558
2	1	0	1	0	148.173	0.866247	0.866911	6.72273	1	0.0876629	11	-1.06389	0.00582801	1.9308
2	1	0	1	0	149.273	0.877251	0.877741	7.07196	1	0.0952562	11	-1.06784	0.00620734	1.94558
2	1	0	1	0	150.374	0.888255	0.888749	7.41916	1	0.103232	11	-1.07202	0.00659377	1.96077
2	1	0	1	0	151.474	0.899259	0.899692	7.76087	1	0.111588	11	-1.07602	0.00698239	1.97571
2	1	0	1	0	152.574	0.910263	0.910743	8.10534	1	0.120321	11	-1.08006	0.00738188	1.9908
2	1	0	1	0	153.675	0.921267	0.921892	8.43626	1	0.129423	11	-1.08393	0.00777732	2.00582
2	1	0	1	0	154.775	0.932271	0.932831	8.76407	1	0.13889	11	-1.08753	0.00817539	2.02036
2	1	0	1	0	155.876	0.943275	0.943674	9.07988	1	0.14871	11	-1.09103	0.00856845	2.0347
2	1	0	1	0	156.976	0.954279	0.954873	9.38037	1	0.158871	11	-1.09428	0.00895706	2.04915
2	1	0	1	0	158.076	0.965282	0.965812	9.67126	1	0.169357	11	-1.09721	0.00934062	2.06302
2	1	0	1	0	159.177	0.976286	0.976917	9.9227	1	0.180147	11	-1.09987	0.00969366	2.07678
2	1	0	0	0	160.277	0.98729	0.987667	10.0982	1	0.191168	11	-1.10156	0.00997366	2.08923
2	1	0	0	0	161.377	0.998294	0.99878	10.2385	1	0.202368	11	-1.10293	0.010226	2.10171
2	1	0	1	0	162.308	0.992492	0.993132	9.74877	1	0.211725	11	-1.09859	0.00968182	2.09172
2	1	0	1	0	163.409	0.981488	0.982215	9.01386	1	0.222041	11	-1.09202	0.00885355	2.07424
2	1	0	1	0	164.509	0.970485	0.971017	8.2994	1	0.231568	11	-1.08533	0.00805885	2.05634
2	1	0	1	0	165.61	0.95948	0.959874	7.62223	1	0.240328	11	-1.07832	0.00731637	2.0382
2	1	0	1	0	166.71	0.948475	0.948969	6.95928	1	0.248357	11	-1.07125	0.00660414	2.02022
2	1	0	0	0	167.81	0.937473	0.938119	6.30044	1	0.255644	11	-1.06371	0.00591056	2.00183
2	1	0	0	0	168.911	0.926469	0.926912	5.65743	1	0.262221	11	-1.05584	0.00524394	1.98275
2	1	0	0	0	170.011	0.915465	0.915972	5.04829	1	0.268104	11	-1.04783	0.00462409	1.96381
2	1	0	0	0	171.111	0.904461	0.904873	4.48533	1	0.273347	11	-1.04014	0.00405865	1.94501
2	1	0	0	0	172.212	0.893457	0.894061	3.97191	1	0.277989	11	-1.03235	0.00355113	1.92641
2	1	0	0	0	173.312	0.882453	0.882831	3.53741	1	0.282112	11	-1.02541	0.00312293	1.90824
2	1	0	0	0	174.413	0.871449	0.872011	3.14776	1	0.285782	11	-1.01875	0.00274488	1.89076
2	1	0	0	0	175.513	0.860445	0.860745	2.78873	1	0.289042	11	-1.01224	0.00240039	1.87298
2	1	0	0	0	176.613	0.849442	0.850014	2.47733	1	0.291931	11	-1.00611	0.00210576	1.85613
2	1	0	0	0	177.714	0.838438	0.839087	2.19199	1	0.294494	11	-1.00019	0.00183927	1.83927
2	1	0	0	0	178.814	0.827434	0.827824	1.91847	1	0.296749	11	-0.994038	0.00158815	1.82186
2	1	0	0	0	179.915	0.81643	0.817004	1.68199	1	0.298727	11	-0.988528	0.00137419	1.80553
2	1	0	0	0	181.015	0.805426	0.805494	1.47288	1	0.300459	11	-0.983014	0.0011864	1.78851
2	1	0	0	0	182.115	0.794422	0.794618	1.2827	1	0.301971	11	-0.97784	0.00101926	1.77246
2	1	0	0	0	183.216	0.783418	0.783993	1.10819	1	0.303284	11	-0.972641	0.000868814	1.75663
2	1	0	1	0	184.316	0.772415	0.772733	0.955744	1	0.304415	11	-0.967863	0.000738534	1.7406
2	1	0	1	0	185.417	0.76141	0.761916	0.821078	1	0.30539	11	-0.963376	0.000625593	1.72529
2	1	0	1	0	186.517	0.750406	0.750948	0.698582	1	0.306224	11	-0.958962	0.000524599	1.70991
2	1	0	1	0	187.617	0.739403	0.739889	0.588352	1	0.306931	11	-0.954529	0.000435315	1.69442
2	1	0	1	0	188.718	0.728399	0.728846	0.493218	1	0.307523	11	-0.950425	0.00035948	1.67927
2	1	0	1	0	189.848	0.717095	0.717895	0.407067	1	0.30803	12	-0.946273	0.000292231	1.66417
2	1	0	1	0	190.948	0.706091	0.705876	0.334636	1	0.308436	12	-0.942626	0.000236211	1.6485
2	1	0	1	0	192.049	0.695087	0.695478	0.27159	1	0.308768	12	-0.939131	0.000188885	1.63461
2	1	0	1	0	193.149	0.684083	0.684567	0.217578	1	0.309036	12	-0.935882	0.000148947	1.62045
2	1	0	1	0	194.25	0.673079	0.673577	0.171487	1	0.309249	12	-0.932807	0.00011551	1.60638
2	1	0	1	0	195.35	0.662075	0.662637	0.132988	1	0.309415	12	-0.92999	8.81228e-05	1.59263
2	1	0	1	0	196.45	0.651072	0.651484	0.101151	1	0.309542	12	-0.927438	6.5898e-05	1.57892
2	1	0	1	0	197.551	0.640068	0.640574	0.0754733	1	0.309638	12	-0.925107	4.83462e-05	1.56568
2	1	0	1	0	198.651	0.629064	0.629513	0.0546968	1	0.309709	12	-0.922998	3.44323e-05	1.55251
2	1	0	1	0	199.782	0.61776	0.618166	0.0374895	1	0.30976	13	-0.921097	2.31747e-05	1.53926
2	1	0	1	0	200.882	0.606756	0.607101	0.0243914	1	0.309793	13	-0.919387	1.4808e-05	1.52649
2	1	0	1	0	201.982	0.595752	0.595667	0.0138437	1	0.309814	13	-0.917688	8.24626e-06	1.51336
2	1	0	1	0	203.083	0.584748	0.584962	0.00549232	1	0.309824	13	-0.91637	3.2128e-06	1.50133
2	0	0	1	0	204.183	0.573744	0.574013	-0.00116559	1	0.309826	13	-0.915103	-6.69065e-07	1.48912
2	0	0	1	0	205.284	0.562741	0.563409	-0.00646906	1	0.309821	13	-0.913897	-3.64472e-06	1.47731
2	0	0	1	0	206.384	0.551736	0.552152	-0.0107061	1	0.309811	13	-0.912528	-5.9114e-06	1.46468
2	0	0	1	0	207.484	0.540732	0.540881	-0.0141147	1	0.309797	13	-0.911371	-7.63435e-06	1.45225
2	0	0	0	0	208.585	0.529729	0.530085	-0.0167786	1	0.30978	13	-0.910616	-8.89411e-06	1.4407
2	0	0	0	0	209.685	0.518725	0.518992	-0.0188162	1	0.30976	13	-0.909678	-9.76545e-06	1.42867
2	0	0	0	0	210.785	0.507721	0.508172	-0.0201096	1	0.309739	13	-0.908885	-1.02191e-05	1.41706
2	0	0	0	0	211.886	0.496717	0.49718	-0.0207699	1	0.309716	13	-0.908206	-1.03264e-05	1.40539
2	0	0	0	0	212.986	0.485713	0.486021	-0.0208344	1	0.309693	13	-0.907537	-1.01259e-05	1.39356
2	0	0	0	0	214.087	0.474709	0.475259	-0.0204981	1	0.30967	13	-0.907047	-9.74193e-06	1.38231
2	0	0	0	0	215.187	0.463705	0.464209	-0.0199614	1	0.309647	13	-0.906568	-9.26625e-06	1.37078
2	0	0	0	0	216.287	0.452702	0.45315	-0.019248	1	0.309625	13	-0.906071	-8.72221e-06	1.35922
2	0	0	0	0	217.388	0.441698	0.441993	-0.0184208	1	0.309604	13	-0.905806	-8.14187e-06	1.3478
2	0	0	0	0	218.488	0.430694	0.431192	-0.0176563	1	0.309584	13	-0.905477	-7.61323e-06	1.33667
2	0	0	0	0	219.589	0.41969	0.420137	-0.0167875	1	0.309565	13	-0.90508	-7.05305e-06	1.32522
2	0	0	0	0	220.689	0.408686	0.409091	-0.0159012	1	0.309547	13	-0.904791	-6.50504e-06	1.31388
2	0	0	0	0	221.789	0.397682	0.398218	-0.0150475	1	0.30953	13	-0.904458	-5.99219e-06	1.30268
2	0	0	0	0	222.89	0.386678	0.386885	-0.0142488	1	0.309514	13	-0.901055	-5.51265e-06	1.28794
2	0	0	0	0	223.99	0.375674	0.375838	-0.0135007	1	0.309499	13	-0.901219	-5.07407e-06	1.27706
2	0	0	1	0	225.091	0.364671	0.365215	-0.0128423	1	0.309485	13	-0.901072	-4.69018e-06	1.26629
2	0	0	1	0	226.191	0.353667	0.353973	-0.0122039	1	0.309471	13	-0.901037	-4.31986e-06	1.25501
2	0	0	1	0	227.291	0.342662	0.342979	-0.0116815	1	0.309458	13	-0.900986	-4.00649e-06	1.24396
2	0	0	1	0	228.392	0.331659	0.332126	-0.0112875	1	0.309446	13	-0.90058	-3.74889e-06	1.23271
2	0	0	1	0	229.492	0.320655	0.320981	-0.0109101	1	0.309434	13	-0.900486	-3.50193e-06	1.22147
2	0	0	1	0	230.592	0.309651	0.310014	-0.0105586	1	0.309422	13	-0.900698	-3.2733e-06	1.21071
2	0	0	1	0	231.693	0.298647	0.298737	-0.0101962	1	0.309411	13	-0.901436	-3.04599e-06	1.20017
2	0	0	1	0	232.793	0.287643	0.287867	-0.00955103	1	0.3094	13	-0.901189	-2.74943e-06	1.18906
2	0	0	1	0	233.894	0.276639	0.277173	-0.00704368	1	0.309391	13	-0.901323	-1.95232e-06	1.1785
2	0	0	1	0	234.994	0.265635	0.265917	-0.00806055	1	0.309383	13	-0.901194	-2.14343e-06	1.16711
2	0	0	1	0	236.094	0.254632	0.254973	-0.00793885	1	0.309374	13	-0.900948	-2.02419e-06	1.15592
2	0	0	1	0	237.195	0.243628	0.244344	-0.00839351	1	0.309365	13	-0.900709	-2.0509e-06	1.14505
2	0	0	1	0	238.295	0.232624	0.233052	-0.00854634	1	0.309355	13	-0.900459	-1.99175e-06	1.13351
2	0	0	1	0	239.396	0.22162	0.222264	-0.00829571	1	0.309346	13	-0.900095	-1.84384e-06	1.12236
2	0	0	1	0	240.496	0.210616	0.211422	-0.00648236	1	0.309337	13	-0.900054	-1.37052e-06	1.11148
2	0	0	1	0	241.596	0.199612	0.200355	-0.00785806	1	0.30933	13	-0.899833	-1.5744e-06	1.10019
2	0	0	1	0	242.697	0.188608	0.189192	-0.0076603	1	0.309321	13	-0.899505	-1.44927e-06	1.0887
2	0	0	1	0	243.797	0.177604	0.177784	-0.00744146	1	0.309312	13	-0.899181	-1.32297e-06	1.07696
2	0	0	1	0	244.897	0.166601	0.167336	-0.0073024	1	0.309304	13	-0.898684	-1.22195e-06	1.06602
2	0	0	1	0	245.998	0.155596	0.156123	-0.0072536	1	0.309296	13	-0.898374	-1.13245e-06	1.0545
2	0	0	1	0	247.098	0.144592	0.14516	-0.00719513	1	0.309288	13	-0.898057	-1.04444e-06	1.04322
2	0	0	0	0	248.199	0.133589	0.134072	-0.00711555	1	0.30928	13	-0.897896	-9.53996e-07	1.03197
2	0	0	0	0	249.299	0.122585	0.123065	-0.00703821	1	0.309272	13	-0.897898	-8.66157e-07	1.02096
2	0	0	0	0	250.399	0.111581	0.11209	-0.00697311	1	0.309264	13	-0.897714	-7.81614e-07	1.0098
2	0	0	0	0	251.5	0.100577	0.100954	-0.00690675	1	0.309256	13	-0.89751	-6.97266e-07	0.998464
2	0	0	0	0	252.6	0.0895734	0.0899685	-0.0068404	1	0.309248	13	-0.897177	-6.1542e-07	0.987146
2	0	0	0	0	253.701	0.0785695	0.0791641	-0.00677966	1	0.30924	13	-0.896886	-5.36706e-07	0.97605
2	0	0	0	0	254.801	0.0675656	0.0679205	-0.00665734	1	0.309233	13	-0.89676	-4.5217e-07	0.96468
2	0	0	0	0	255.901	0.0565617	0.0567458	-0.00651029	1	0.309225	13	-0.896496	-3.69431e-07	0.953241
2	0	0	0	0	257.002	0.0455578	0.0460295	-0.00656929	1	0.309218	13	-0.896171	-3.02381e-07	0.942201
2	0	0	0	0	258.102	0.0345539	0.0353672	-0.00652921	1	0.309211	13	-0.896222	-2.3092e-07	0.931589
2	0	0	0	0	259.203	0.0235501	0.0240388	-0.0064616	1	0.309203	13	-0.895925	-1.55329e-07	0.919964
2	0	0	0	0	260.303	0.0125462	0.013159	-0.00645173	1	0.309198	13	-0.895625	-8.48985e-08	0.908784
2	0	0	0	0	261.403	0.0015423	0.0021276	-0.00639168	1	0.30919	13	-0.895564	-1.35989e-08	0.897691
2	0	0	1	1	262.414	0.00854388	0.00895739	-0.0061583	1	0.309184	13	-0.895452	-5.51623e-08	0.90441
2	0	0	1	1	263.515	0.0195484	0.0202982	-0.0058031	1	0.309177	13	-0.89539	-1.17792e-07	0.915688
2	0	0	1	1	264.615	0.030553	0.0309335	-0.00555711	1	0.309171	13	-0.895069	-1.71901e-07	0.926002
2	0	0	0	1	265.715	0.0415564	0.0420882	-0.00539041	1	0.309165	13	-0.894969	-2.26872e-07	0.937057
2	0	0	0	1	266.816	0.0525603	0.0535291	-0.00527404	1	0.309159	13	-0.894805	-2.82315e-07	0.948334
2	0	0	0	1	267.916	0.0635642	0.0637182	-0.00517396	1	0.309153	13	-0.894653	-3.29675e-07	0.958371
2	0	0	0	1	269.017	0.0745681	0.0747676	-0.00506986	1	0.309148	13	-0.894499	-3.79062e-07	0.969267
2	0	0	0	1	270.117	0.085572	0.0861025	-0.00488737	1	0.309142	13	-0.89423	-4.20815e-07	0.980332
2	0	0	0	1	271.217	0.0965758	0.0966353	-0.00470289	1	0.309137	13	-0.893964	-4.54465e-07	0.9906
2	0	0	0	1	272.318	0.10758	0.107957	-0.00455925	1	0.309133	13	-0.893942	-4.92205e-07	1.0019
2	0	0	0	1	273.418	0.118584	0.118727	-0.00437987	1	0.309128	13	-0.893909	-5.20007e-07	1.01264
2	0	0	0	1	274.519	0.129587	0.130035	-0.00419289	1	0.309123	13	-0.893617	-5.45223e-07	1.02365
2	0	0	0	1	275.619	0.140591	0.140791	-0.00399588	1	0.309119	13	-0.893482	-5.62582e-07	1.03427
2	0	0	0	1	276.719	0.151595	0.151872	-0.00380277	1	0.309115	13	-0.89363	-5.77534e-07	1.0455
2	0	0	0	1	277.82	0.162599	0.162638	-0.00360986	1	0.309111	13	-0.893444	-5.87101e-07	1.05608
2	0	0	0	1	278.92	0.173603	0.173669	-0.00340683	1	0.309108	13	-0.89146	-5.9166e-07	1.06513
2	0	0	1	1	279.925	0.183657	0.184713	-0.00479197	2	0.309105	13	-0.890563	-8.85139e-07	1.07528
2	0	0	1	1	280.981	0.19421	0.194196	-0.00298521	2	0.309102	13	-0.890835	-5.79717e-07	1.08503
2	0	0	1	1	282.081	0.205214	0.205498	-0.00274705	2	0.309099	13	-0.891044	-5.64514e-07	1.09654
2	0	0	1	1	283.182	0.216218	0.216966	-0.00249364	2	0.309096	13	-0.891177	-5.41033e-07	1.10814
2	0	0	1	1	284.282	0.227222	0.227354	-0.00230727	2	0.309094	13	-0.891142	-5.24568e-07	1.1185
2	1	0	1	1	285.382	0.238226	0.238152	-0.00206743	2	0.309092	13	-0.891093	-4.92363e-07	1.12925
2	1	0	1	1	286.483	0.24923	0.249333	-0.00179727	2	0.30909	13	-0.891249	-4.4812e-07	1.14058
2	1	0	1	1	287.583	0.260234	0.26035	-0.00152998	2	0.309088	13	-0.891181	-3.9833e-07	1.15153
2	1	0	1	1	288.684	0.271237	0.271692	-0.00127558	2	0.309087	13	-0.891255	-3.46566e-07	1.16295
2	1	0	1	1	289.784	0.282241	0.282767	-0.000987377	2	0.309086	13	-0.891452	-2.79198e-07	1.17422
2	1	0	1	1	290.884	0.293245	0.293446	-0.000683339	2	0.309085	13	-0.891603	-2.00523e-07	1.18505
2	1	0	1	1	291.985	0.304249	0.304623	-0.000343996	2	0.309085	13	-0.891475	-1.04789e-07	1.1961
2	1	0	1	1	293.085	0.315253	0.31565	-2.28133e-05	2	0.309085	13	-0.891588	-7.20104e-09	1.20724
2	1	0	1	1	294.186	0.326257	0.326588	0.000298532	2	0.309086	13	-0.891638	9.74972e-08	1.21823
2	1	0	1	1	295.286	0.337261	0.337392	0.000632683	2	0.309086	13	-0.891734	2.13462e-07	1.22913
2	1	0	1	1	296.386	0.348264	0.348733	0.00108813	2	0.309087	13	-0.891689	3.79468e-07	1.24042
2	1	0	1	1	297.487	0.359269	0.359614	0.0012484	2	0.309089	13	-0.891404	4.48943e-07	1.25102
2	1	0	1	1	298.587	0.370273	0.370605	0.00155938	2	0.30909	13	-0.891138	5.77914e-07	1.26174
2	1	0	0	1	299.687	0.381276	0.381817	0.00188331	2	0.309092	13	-0.891151	7.19079e-07	1.27297
2	1	0	0	1	300.788	0.39228	0.392829	0.00218043	2	0.309094	13	-0.891218	8.56535e-07	1.28405
2	1	0	0	1	301.888	0.403284	0.403919	0.00241749	2	0.309097	13	-0.891157	9.76469e-07	1.29508
2	0	0	0	1	302.989	0.414288	0.414733	0.00264748	2	0.3091	13	-0.891155	1.098e-06	1.30589
2	0	0	0	1	304.089	0.425292	0.425633	0.00285962	2	0.309103	13	-0.891202	1.21715e-06	1.31683
2	0	0	0	1	305.189	0.436296	0.436515	0.00323311	2	0.309107	13	-0.891221	1.4113e-06	1.32774
2	0	0	0	1	306.29	0.4473	0.44763	0.00375764	2	0.309111	13	-0.891359	1.68203e-06	1.33899
2	0	0	0	1	307.39	0.458303	0.458394	0.00442347	2	0.309115	13	-0.891391	2.02769e-06	1.34978
2	1	0	0	1	308.491	0.469307	0.469845	0.00515328	2	0.309121	13	-0.891401	2.42124e-06	1.36125
2	1	0	0	1	309.591	0.480311	0.480921	0.00591287	2	0.309127	13	-0.891566	2.84363e-06	1.37249
2	1	0	0	1	310.691	0.491315	0.492088	0.00670842	2	0.309134	13	-0.891562	3.30114e-06	1.38365
2	1	0	0	1	311.792	0.502319	0.50271	0.00772341	2	0.309142	13	-0.891793	3.88264e-06	1.3945
2	1	0	0	1	312.892	0.513323	0.513802	0.00930462	2	0.309151	13	-0.892122	4.78074e-06	1.40592
2	1	0	0	1	313.993	0.524327	0.524792	0.0117436	2	0.309163	13	-0.892734	6.16294e-06	1.41753
2	1	0	0	1	315.093	0.535331	0.53586	0.0152795	2	0.309178	13	-0.893619	8.18769e-06	1.42948
2	1	0	1	1	316.193	0.546334	0.546997	0.0196458	2	0.309197	13	-0.894755	1.07462e-05	1.44175
2	1	0	1	1	317.294	0.557338	0.557244	0.0245273	2	0.309222	13	-0.896188	1.36677e-05	1.45343
2	1	0	1	1	318.394	0.568343	0.568826	0.0297035	2	0.309252	13	-0.897649	1.68961e-05	1.46647
2	1	0	1	1	319.494	0.579346	0.579859	0.0350802	2	0.309288	13	-0.899094	2.03416e-05	1.47895
2	1	0	1	1	320.595	0.59035	0.590939	0.0407677	2	0.30933	13	-0.900928	2.40912e-05	1.49187
2	1	0	1	1	321.695	0.601354	0.601931	0.0468707	2	0.309378	13	-0.902528	2.82129e-05	1.50446
2	1	0	1	1	322.796	0.612358	0.612679	0.0539131	2	0.309434	13	-0.904228	3.30314e-05	1.51691
2	1	0	1	1	323.896	0.623362	0.623605	0.0623766	2	0.309498	13	-0.906283	3.88984e-05	1.52989
2	1	0	1	1	324.996	0.634366	0.634816	0.0730716	2	0.309573	13	-0.908346	4.6387e-05	1.54316
2	1	0	1	1	326.097	0.645369	0.645986	0.0869115	2	0.309661	13	-0.910976	5.61437e-05	1.55696
2	1	0	1	1	327.227	0.656673	0.657083	0.105786	2	0.30977	12	-0.914245	6.95099e-05	1.57133
2	1	0	1	1	328.328	0.667677	0.668035	0.129324	2	0.309899	12	-0.917909	8.63933e-05	1.58594
2	1	0	1	1	329.428	0.678681	0.679145	0.159171	2	0.310057	12	-0.922054	0.0001081	1.6012
2	1	0	1	1	330.528	0.689685	0.690239	0.196231	2	0.310252	12	-0.92654	0.000135447	1.61678
2	1	0	1	1	331.629	0.700689	0.70129	0.241275	2	0.310492	12	-0.931217	0.000169204	1.63251
2	1	0	1	1	332.729	0.711693	0.712205	0.295298	2	0.310786	12	-0.936115	0.000210312	1.64832
2	1	0	1	1	333.83	0.722697	0.723029	0.358439	2	0.311146	12	-0.941004	0.000259162	1.66403
2	1	0	1	1	334.93	0.733701	0.733999	0.431392	2	0.31158	12	-0.945873	0.000316641	1.67987
2	1	0	1	1	336.03	0.744704	0.745387	0.51423	2	0.3121	12	-0.950659	0.0003833	1.69605
2	1	0	1	1	337.131	0.755708	0.756135	0.607667	2	0.312716	12	-0.955561	0.000459478	1.7117
2	1	0	1	1	338.231	0.766713	0.767045	0.712679	2	0.313442	12	-0.960314	0.000546657	1.72736
2	1	0	0	1	339.331	0.777716	0.778123	0.829644	2	0.314291	12	-0.965011	0.000645564	1.74313
2	1	0	0	1	340.432	0.78872	0.789242	0.958357	2	0.315274	12	-0.969818	0.000756376	1.75906
2	1	0	0	1	341.562	0.800024	0.800301	1.10412	2	0.316441	11	-0.974661	0.000883633	1.77496
2	1	0	0	1	342.663	0.811028	0.811377	1.26046	2	0.317742	11	-0.979374	0.00102271	1.79075
2	1	0	0	1	343.763	0.822032	0.822002	1.43171	2	0.319222	11	-0.984157	0.00117687	1.80616
2	1	0	0	1	344.863	0.833036	0.833528	1.61434	2	0.320898	11	-0.988887	0.0013456	1.82241
2	1	0	0	1	345.964	0.84404	0.844527	1.80571	2	0.322779	11	-0.993461	0.00152497	1.83799
2	1	0	0	1	347.064	0.855043	0.855482	2.0036	2	0.324875	11	-0.997845	0.00171404	1.85333
2	1	0	0	1	348.165	0.866047	0.866794	2.20507	2	0.327192	11	-1.00217	0.00191134	1.86896
2	1	0	0	1	349.265	0.877051	0.877572	2.38483	2	0.329726	11	-1.00574	0.00209286	1.88332
2	1	0	0	1	350.365	0.888055	0.88863	2.56879	2	0.332454	11	-1.00934	0.0022827	1.89797
2	1	0	0	1	351.466	0.899059	0.899534	2.76287	2	0.335368	11	-1.01284	0.00248529	1.91237
2	1	0	0	1	352.566	0.910063	0.910716	2.86474	2	0.338458	11	-1.01467	0.00260897	1.92539
2	1	0	0	1	353.667	0.921067	0.921463	2.97666	2	0.341673	11	-1.01677	0.00274288	1.93823
2	1	0	0	1	354.767	0.932071	0.932541	3.0897	2	0.345008	11	-1.01875	0.00288127	1.9513
2	1	0	0	1	355.867	0.943075	0.943528	3.22455	2	0.348482	11	-1.02099	0.00304245	1.96452
2	1	0	1	1	356.968	0.954077	0.954287	3.37179	2	0.352114	11	-1.02336	0.00321765	1.97765
2	1	0	1	1	358.068	0.965082	0.965514	3.52592	2	0.355906	11	-1.02588	0.00340432	1.99139
2	1	0	1	1	359.168	0.976087	0.976311	3.73336	2	0.3599	11	-1.02906	0.00364492	2.00537
2	1	0	1	1	360.269	0.98709	0.987185	3.95774	2	0.364132	11	-1.03234	0.00390702	2.01953
2	1	0	1	1	361.369	0.998094	0.998527	4.18624	2	0.368612	11	-1.03546	0.00418007	2.03399
2	1	0	0	1	362.32	0.992492	0.992859	3.95054	2	0.372522	11	-1.03241	0.00392233	2.02527
2	1	0	0	1	363.421	0.981488	0.981821	3.56471	2	0.376653	11	-1.02715	0.00349991	2.00897
2	1	0	1	1	364.521	0.970485	0.970814	3.21927	2	0.380381	11	-1.02217	0.00312532	1.99298
2	1	0	1	1	365.621	0.95948	0.959932	2.89161	2	0.38374	11	-1.01705	0.00277575	1.97698
2	1	0	1	1	366.722	0.948475	0.948997	2.58265	2	0.386746	11	-1.01172	0.00245093	1.96072
2	1	0	1	1	367.822	0.937473	0.937926	2.29119	2	0.389423	11	-1.00631	0.00214897	1.94424
2	1	0	1	1	368.922	0.926469	0.926905	2.01866	2	0.391792	11	-1.00087	0.0018711	1.92777
2	1	0	1	1	370.023	0.915465	0.91614	1.77233	2	0.393874	11	-0.995572	0.00162371	1.91171
2	1	0	1	1	371.123	0.904461	0.905241	1.55259	2	0.395698	11	-0.990365	0.00140547	1.89561
2	1	0	1	1	372.224	0.893457	0.893888	1.34748	2	0.397291	11	-0.985268	0.00120449	1.87916
2	1	0	1	1	373.324	0.882453	0.882927	1.16108	2	0.398668	11	-0.9802	0.00102515	1.86313
2	1	0	1	1	374.424	0.871449	0.871913	0.995437	2	0.399852	11	-0.975406	0.000867935	1.84732
2	1	0	1	1	375.525	0.860445	0.860914	0.848748	2	0.400863	11	-0.97084	0.000730699	1.83175
2	1	0	1	1	376.625	0.849442	0.849907	0.720439	2	0.401724	11	-0.966465	0.000612306	1.81637
2	1	0	1	1	377.726	0.838438	0.838933	0.611063	2	0.402455	11	-0.962544	0.000512641	1.80148
2	1	0	1	1	378.826	0.827434	0.827688	0.516891	2	0.403074	11	-0.95894	0.000427825	1.78663
2	1	0	1	1	379.956	0.81613	0.816328	0.434974	2	0.403609	12	-0.955482	0.000355082	1.77181
2	1	0	1	1	381.057	0.805126	0.805571	0.366251	2	0.404048	12	-0.952426	0.000295041	1.758
2	1	0	1	1	382.157	0.794122	0.794655	0.306349	2	0.404416	12	-0.949715	0.000243442	1.74437
2	1	0	1	1	383.258	0.783118	0.783429	0.254718	2	0.404723	12	-0.947141	0.000199554	1.73057
2	1	0	1	1	384.358	0.772114	0.772626	0.210895	2	0.404979	12	-0.944831	0.000162943	1.71746
2	1	0	1	1	385.458	0.761111	0.7614	0.173478	2	0.405189	12	-0.942644	0.000132086	1.70404
2	1	0	1	1	386.559	0.750106	0.750458	0.141627	2	0.405362	12	-0.940795	0.000106285	1.69125
2	1	0	1	1	387.659	0.739102	0.739221	0.114384	2	0.405502	12	-0.939029	8.45551e-05	1.67825
2	1	0	0	1	388.759	0.728099	0.727848	0.0910908	2	0.405615	12	-0.937317	6.63003e-05	1.66517
2	1	0	0	1	389.86	0.717095	0.717635	0.071381	2	0.405703	12	-0.93585	5.12256e-05	1.65349
2	1	0	0	1	390.96	0.706091	0.706705	0.0551485	2	0.405772	12	-0.934541	3.89737e-05	1.64125
2	1	0	0	1	392.091	0.694787	0.695473	0.0413837	2	0.405826	13	-0.933327	2.87812e-05	1.6288
2	1	0	0	1	393.191	0.683783	0.683937	0.0306846	2	0.405865	13	-0.932211	2.09863e-05	1.61615
2	1	0	0	1	394.291	0.672779	0.673526	0.0222988	2	0.405893	13	-0.931354	1.50188e-05	1.60488
2	1	0	0	1	395.392	0.661775	0.662324	0.0158897	2	0.405914	13	-0.93062	1.05242e-05	1.59294
2	1	0	0	1	396.492	0.650771	0.651151	0.0110632	2	0.405928	13	-0.929799	7.20379e-06	1.58095
2	1	0	0	1	397.593	0.639768	0.640225	0.007519	2	0.405938	13	-0.929332	4.81385e-06	1.56956
2	1	0	0	1	398.693	0.628764	0.6294	0.004963	2	0.405944	13	-0.928646	3.12371e-06	1.55805
2	1	0	0	1	399.793	0.61776	0.618087	0.00314749	2	0.405948	13	-0.928291	1.94542e-06	1.54638
2	1	0	0	1	400.894	0.606756	0.607097	0.00185183	2	0.405951	13	-0.927765	1.12424e-06	1.53486
2	1	0	0	1	401.994	0.595752	0.596033	0.000935311	2	0.405952	13	-0.927392	5.57476e-07	1.52342
2	0	0	0	1	403.095	0.584748	0.585091	0.000264328	2	0.405953	13	-0.927055	1.54656e-07	1.51215
2	0	0	0	1	404.195	0.573744	0.574064	-0.000223912	2	0.405953	13	-0.926726	-1.2854e-07	1.50079
2	0	0	1	1	405.295	0.562741	0.563035	-0.000591094	2	0.405952	13	-0.926433	-3.32807e-07	1.48947
2	0	0	1	1	406.396	0.551736	0.552301	-0.000909439	2	0.405951	13	-0.925984	-5.02284e-07	1.47828
2	0	0	1	1	407.496	0.540732	0.541682	-0.00116156	2	0.40595	13	-0.925765	-6.29195e-07	1.46745
2	0	0	1	1	408.596	0.529729	0.53	-0.0013935	2	0.405948	13	-0.925367	-7.38557e-07	1.45537
2	0	0	1	1	409.697	0.518725	0.519127	-0.00161292	2	0.405946	13	-0.925112	-8.3731e-07	1.44424
2	0	0	1	1	410.797	0.507721	0.508081	-0.00174539	2	0.405944	13	-0.924738	-8.86801e-07	1.43282
2	0	0	1	1	411.898	0.496717	0.497286	-0.00187047	2	0.405942	13	-0.924522	-9.30158e-07	1.42181
2	0	0	1	1	412.998	0.485713	0.486436	-0.00194433	2	0.40594	13	-0.924275	-9.45791e-07	1.41071
2	0	0	1	1	414.098	0.474709	0.475203	-0.00201891	2	0.405937	13	-0.923937	-9.59392e-07	1.39914
2	0	0	1	1	415.199	0.463705	0.463911	-0.00205869	2	0.405935	13	-0.923771	-9.55048e-07	1.38768
2	0	0	1	1	416.299	0.452702	0.45298	-0.00204602	2	0.405933	13	-0.923555	-9.26807e-07	1.37653
2	0	0	1	1	417.4	0.441698	0.442261	-0.00197875	2	0.405931	13	-0.923291	-8.75125e-07	1.36555
2	1	0	1	1	418.5	0.430694	0.430993	-0.00187307	2	0.405928	13	-0.923113	-8.07283e-07	1.35411
2	1	0	1	1	419.6	0.41969	0.420342	-0.00172972	2	0.405926	13	-0.922851	-7.27075e-07	1.34319
2	1	0	1	1	420.701	0.408686	0.409124	-0.00171134	2	0.405924	13	-0.922571	-7.00149e-07	1.33169
2	1	0	1	1	421.801	0.397682	0.39821	-0.00173415	2	0.405922	13	-0.922328	-6.90557e-07	1.32054
2	1	0	1	1	422.902	0.386678	0.38654	-0.001822	2	0.40592	13	-0.922157	-7.04277e-07	1.3087
2	1	0	1	1	424.002	0.375674	0.375951	-0.00194716	2	0.405918	13	-0.921847	-7.32035e-07	1.2978
2	1	0	1	1	425.102	0.364671	0.364961	-0.00206504	2	0.405916	13	-0.92163	-7.53658e-07	1.28659
2	0	0	1	1	426.203	0.353667	0.354142	-0.00211447	2	0.405913	13	-0.921435	-7.48821e-07	1.27558
2	0	0	1	1	427.303	0.342662	0.343079	-0.002139	2	0.405911	13	-0.921302	-7.33844e-07	1.26438
2	0	0	0	1	428.403	0.331659	0.331983	-0.00210034	2	0.405909	13	-0.921104	-6.97278e-07	1.25309
2	0	0	0	1	429.504	0.320655	0.32094	-0.00198888	2	0.405907	13	-0.92089	-6.38311e-07	1.24183
2	0	0	0	1	430.604	0.309651	0.31014	-0.00189003	2	0.405905	13	-0.920597	-5.86174e-07	1.23074
2	0	0	0	1	431.705	0.298647	0.299188	-0.00188486	2	0.405902	13	-0.92044	-5.63928e-07	1.21963
2	0	0	0	1	432.805	0.287643	0.288278	-0.00197185	2	0.4059	13	-0.920177	-5.68439e-07	1.20845
2	0	0	0	1	433.905	0.276639	0.276977	-0.00211034	2	0.405897	13	-0.919979	-5.84515e-07	1.19696
2	0	0	0	1	435.006	0.265635	0.265928	-0.00229271	2	0.405895	13	-0.919662	-6.09696e-07	1.18559
2	1	0	0	1	436.106	0.254632	0.255505	-0.00240081	2	0.405892	13	-0.919566	-6.13419e-07	1.17507
2	1	0	0	1	437.207	0.243628	0.24386	-0.00245927	2	0.40589	13	-0.919389	-5.99717e-07	1.16325
2	1	0	0	1	438.307	0.232624	0.232773	-0.00243632	2	0.405887	13	-0.919166	-5.6711e-07	1.15194
2	1	0	0	1	439.407	0.22162	0.221981	-0.00241313	2	0.405884	13	-0.919025	-5.35668e-07	1.14101
2	1	0	0	1	440.508	0.210616	0.211137	-0.00236819	2	0.405882	13	-0.918926	-5.00012e-07	1.13006
2	0	0	0	1	441.608	0.199612	0.200307	-0.00230643	2	0.405879	13	-0.918647	-4.61994e-07	1.11895
2	0	0	0	1	442.709	0.188608	0.189005	-0.00226092	2	0.405876	13	-0.918438	-4.27326e-07	1.10744
2	0	0	0	1	443.809	0.177604	0.178283	-0.0022546	2	0.405874	13	-0.91822	-4.01956e-07	1.0965
2	0	0	1	1	444.909	0.166601	0.167208	-0.00228375	2	0.405871	13	-0.918055	-3.81861e-07	1.08526
2	0	0	1	1	446.01	0.155596	0.156	-0.00239423	2	0.405868	13	-0.917849	-3.73499e-07	1.07385
2	0	0	1	1	447.11	0.144592	0.14505	-0.00259352	2	0.405865	13	-0.917699	-3.7619e-07	1.06275
2	0	0	1	1	448.21	0.133589	0.134081	-0.00271201	2	0.405862	13	-0.917492	-3.63631e-07	1.05157
2	0	0	1	1	449.311	0.122585	0.1231	-0.0028282	2	0.405859	13	-0.917313	-3.48151e-07	1.04041
2	0	0	1	1	450.411	0.111581	0.112065	-0.00292158	2	0.405856	13	-0.917043	-3.27408e-07	1.02911
2	0	0	1	1	451.512	0.100577	0.100664	-0.00301598	2	0.405853	13	-0.916755	-3.03599e-07	1.01742
2	0	0	1	1	452.612	0.0895734	0.0896184	-0.00308076	2	0.40585	13	-0.916748	-2.76093e-07	1.00637
2	0	0	1	1	453.712	0.0785695	0.0787185	-0.00314667	2	0.405846	13	-0.916515	-2.47701e-07	0.995233
2	0	0	1	1	454.813	0.0675656	0.0680106	-0.00318732	2	0.405843	13	-0.916418	-2.16772e-07	0.984428
2	0	0	1	1	455.913	0.0565617	0.0569357	-0.00324834	2	0.405839	13	-0.916172	-1.84947e-07	0.973108
2	0	0	1	1	457.014	0.0455578	0.0459022	-0.00330827	2	0.405836	13	-0.915876	-1.51857e-07	0.961778
2	0	0	1	1	458.114	0.0345539	0.0350543	-0.00337688	2	0.405832	13	-0.91573	-1.18374e-07	0.950785
2	0	0	1	1	459.214	0.0235501	0.0238955	-0.0034299	2	0.405829	13	-0.915587	-8.19594e-08	0.939482
2	0	0	1	1	460.315	0.0125462	0.0127209	-0.00348738	2	0.405825	13	-0.915435	-4.43625e-08	0.928155
2	0	0	1	1	461.415	0.0015423	0.00175522	-0.00353924	2	0.405821	13	-0.915212	-6.21214e-09	0.916967
2	0	0	1	0	462.426	0.00854388	0.00904557	-0.00317516	2	0.405818	13	-0.915204	-2.87212e-08	0.92425
2	0	0	1	0	463.526	0.0195484	0.0198604	-0.00298406	2	0.405815	13	-0.914985	-5.92645e-08	0.934845
2	0	0	1	0	464.627	0.030553	0.0309009	-0.00280735	2	0.405811	13	-0.914854	-8.67494e-08	0.945755
2	0	0	1	0	465.727	0.0415564	0.0423629	-0.00263434	2	0.405808	13	-0.914627	-1.11598e-07	0.95699
2	0	0	1	0	466.828	0.0525603	0.052814	-0.00247928	2	0.405805	13	-0.914578	-1.30941e-07	0.967392
2	0	0	1	0	467.928	0.0635642	0.0640269	-0.00239751	2	0.405802	13	-0.914379	-1.53505e-07	0.978405
2	0	0	1	0	469.028	0.0745681	0.0750201	-0.00237413	2	0.405799	13	-0.914489	-1.78108e-07	0.989509
2	0	0	1	0	470.129	0.085572	0.0860569	-0.0023662	2	0.405797	13	-0.91425	-2.03628e-07	1.00031
2	0	0	1	0	471.229	0.0965758	0.0969822	-0.00237788	2	0.405794	13	-0.913953	-2.30612e-07	1.01094
2	0	0	1	0	472.33	0.10758	0.1079	-0.00235205	2	0.405792	13	-0.913848	-2.53786e-07	1.02175
2	1	0	1	0	473.43	0.118584	0.11887	-0.00229382	2	0.40579	13	-0.91371	-2.72667e-07	1.03258
2	1	0	1	0	474.53	0.129587	0.130111	-0.00220761	2	0.405787	13	-0.913677	-2.87236e-07	1.04379
2	1	0	1	0	475.631	0.140591	0.14103	-0.00210471	2	0.405785	13	-0.913465	-2.96829e-07	1.0545
2	1	0	1	0	476.731	0.151595	0.151975	-0.00196822	2	0.405783	13	-0.913318	-2.9912e-07	1.06529
2	1	0	1	0	477.832	0.162599	0.162969	-0.00181029	2	0.405781	13	-0.913384	-2.95022e-07	1.07635
2	1	0	1	0	478.932	0.173603	0.174099	-0.00163804	2	0.40578	13	-0.913101	-2.85182e-07	1.0872
2	1	0	0	0	479.937	0.183657	0.184254	-0.000407294	3	0.405778	13	-0.913303	-7.50458e-08	1.09756
2	1	0	0	0	480.993	0.19421	0.194403	-0.00140498	3	0.405777	13	-0.912853	-2.73132e-07	1.10726
2	1	0	0	0	482.093	0.205214	0.205665	-0.00122712	3	0.405775	13	-0.912809	-2.52376e-07	1.11847
2	1	0	0	0	483.193	0.216218	0.216513	-0.00106144	3	0.405774	13	-0.912722	-2.29816e-07	1.12923
2	1	0	0	0	484.294	0.227222	0.227965	-0.000905031	3	0.405773	13	-0.912585	-2.06316e-07	1.14055
2	1	0	0	0	485.394	0.238226	0.238721	-0.000757753	3	0.405772	13	-0.91244	-1.80891e-07	1.15116
2	1	0	0	0	486.495	0.24923	0.249828	-0.000615169	3	0.405771	13	-0.912289	-1.53686e-07	1.16212
2	1	0	0	0	487.595	0.260234	0.260737	-0.000474708	3	0.405771	13	-0.912233	-1.23774e-07	1.17297
2	1	0	0	0	488.695	0.271237	0.271794	-0.000335655	3	0.40577	13	-0.912209	-9.12289e-08	1.184
2	1	0	0	0	489.796	0.282241	0.282668	-0.000195229	3	0.40577	13	-0.912044	-5.5185e-08	1.19471
2	1	0	0	0	490.896	0.293245	0.293766	-8.5669e-05	3	0.40577	13	-0.911935	-2.51666e-08	1.2057
2	1	0	0	0	491.997	0.304249	0.304834	-1.40485e-05	3	0.40577	13	-0.911886	-4.28247e-09	1.21672
2	1	0	0	0	493.097	0.315253	0.315338	4.81747e-05	3	0.40577	13	-0.911656	1.51913e-08	1.22699
2	1	0	0	0	494.197	0.326257	0.326763	9.89237e-05	3	0.40577	13	-0.91163	3.23246e-08	1.23839
2	1	0	0	0	495.298	0.337261	0.337551	0.000105451	3	0.40577	13	-0.911514	3.55952e-08	1.24906
2	1	0	1	0	496.398	0.348264	0.34859	0.000142985	3	0.405771	13	-0.911241	4.98431e-08	1.25983
2	1	0	1	0	497.498	0.359269	0.359481	0.000199582	3	0.405771	13	-0.911251	7.17458e-08	1.27073
2	1	0	1	0	498.599	0.370273	0.370601	0.000293329	3	0.405772	13	-0.911177	1.08708e-07	1.28178
2	1	0	1	0	499.699	0.381276	0.381773	0.000384361	3	0.405773	13	-0.911058	1.46739e-07	1.29283
2	1	0	1	0	500.8	0.39228	0.392336	0.000500169	3	0.405774	13	-0.910895	1.96234e-07	1.30323
2	1	0	1	0	501.9	0.403284	0.404103	0.00063588	3	0.405775	13	-0.910829	2.56961e-07	1.31493
2	1	0	1	0	503	0.414288	0.414681	0.00080862	3	0.405776	13	-0.910642	3.35319e-07	1.32532
2	1	0	1	0	504.101	0.425292	0.425552	0.0010082	3	0.405777	13	-0.910569	4.29042e-07	1.33612
2	1	0	1	0	505.201	0.436296	0.436976	0.00121681	3	0.405779	13	-0.910563	5.31716e-07	1.34754
2	1	0	1	0	506.302	0.4473	0.447993	0.00138206	3	0.40578	13	-0.910397	6.19152e-07	1.35839
2	1	0	1	0	507.402	0.458303	0.458911	0.00152886	3	0.405782	13	-0.910337	7.01611e-07	1.36925
2	1	0	1	0	508.502	0.469307	0.469357	0.0016409	3	0.405784	13	-0.910332	7.70167e-07	1.37969
2	1	0	1	0	509.603	0.480311	0.480798	0.00174174	3	0.405786	13	-0.910122	8.37425e-07	1.39092
2	1	0	1	0	510.703	0.491315	0.491647	0.00190899	3	0.405788	13	-0.910107	9.38551e-07	1.40175
2	1	0	1	0	511.804	0.502319	0.50286	0.00219625	3	0.40579	13	-0.910006	1.10441e-06	1.41287
2	1	0	1	0	512.904	0.513323	0.513404	0.00264177	3	0.405793	13	-0.909766	1.3563e-06	1.42317
2	1	0	1	0	514.004	0.524327	0.524742	0.00324164	3	0.405797	13	-0.909875	1.70103e-06	1.43462
2	1	0	1	0	515.105	0.535331	0.535578	0.00388965	3	0.405801	13	-0.909812	2.08321e-06	1.44539
2	1	0	1	0	516.205	0.546334	0.546644	0.00440997	3	0.405805	13	-0.909715	2.41068e-06	1.45636
2	1	0	1	0	517.305	0.557338	0.557679	0.00478835	3	0.405811	13	-0.909663	2.67036e-06	1.46734
2	1	0	1	0	518.406	0.568343	0.56894	0.00505964	3	0.405816	13	-0.90958	2.87863e-06	1.47852
2	1	0	0	0	519.506	0.579346	0.579805	0.00527983	3	0.405822	13	-0.90939	3.06127e-06	1.4892
2	1	0	0	0	520.607	0.59035	0.591005	0.0054992	3	0.405828	13	-0.909413	3.25006e-06	1.50042
2	1	0	0	0	521.707	0.601354	0.601184	0.00579193	3	0.405834	13	-0.909272	3.48202e-06	1.51046
2	1	0	0	0	522.807	0.612358	0.61271	0.00639368	3	0.405841	13	-0.909349	3.91747e-06	1.52206
2	1	0	0	0	523.908	0.623362	0.623743	0.00716128	3	0.405848	13	-0.909481	4.4668e-06	1.53322
2	1	0	0	0	525.008	0.634366	0.634694	0.00840537	3	0.405857	13	-0.909585	5.33484e-06	1.54428
2	1	0	0	0	526.109	0.645369	0.645642	0.0104003	3	0.405867	13	-0.909855	6.71487e-06	1.5555
2	1	0	0	0	527.209	0.656373	0.656745	0.013466	3	0.40588	13	-0.910228	8.84374e-06	1.56697
2	1	0	0	0	528.309	0.667377	0.667628	0.0180172	3	0.405898	13	-0.910818	1.20288e-05	1.57845
2	1	0	0	0	529.41	0.678381	0.67877	0.0244504	3	0.405921	13	-0.911743	1.65962e-05	1.59051
2	1	0	0	0	530.51	0.689385	0.689716	0.0333938	3	0.405953	13	-0.912995	2.30323e-05	1.60271
2	1	0	0	0	531.611	0.700389	0.701253	0.0454565	3	0.405996	13	-0.914483	3.18765e-05	1.61574
2	1	0	0	0	532.711	0.711393	0.711517	0.0612784	3	0.406055	13	-0.916732	4.36006e-05	1.62825
2	1	0	0	0	533.811	0.722397	0.723059	0.08155	3	0.406134	13	-0.919347	5.89655e-05	1.64241
2	1	0	0	0	534.942	0.733701	0.734154	0.107471	3	0.406241	12	-0.92249	7.89004e-05	1.65664
2	1	0	0	0	536.042	0.744704	0.745374	0.139463	3	0.406377	12	-0.926214	0.000103952	1.67159
2	1	0	1	0	537.142	0.755708	0.75597	0.178958	3	0.406552	12	-0.930281	0.000135287	1.68625
2	1	0	1	0	538.243	0.766713	0.76713	0.227428	3	0.406775	12	-0.934752	0.000174467	1.70188
2	1	0	1	0	539.343	0.777716	0.778323	0.287225	3	0.407058	12	-0.939719	0.000223554	1.71804
2	1	0	1	0	540.444	0.78872	0.789494	0.360054	3	0.407414	12	-0.9449	0.00028426	1.73439
2	1	0	1	0	541.544	0.799724	0.800235	0.44805	3	0.407858	12	-0.950179	0.000358546	1.75041
2	1	0	1	0	542.644	0.810728	0.811343	0.551529	3	0.408407	12	-0.955835	0.000447479	1.76718
2	1	0	1	0	543.745	0.821732	0.822415	0.671176	3	0.409079	12	-0.961453	0.000551985	1.78387
2	1	0	1	0	544.845	0.832736	0.83324	0.805412	3	0.409891	12	-0.967061	0.000671101	1.8003
2	1	0	1	0	545.946	0.84374	0.844183	0.952428	3	0.410858	12	-0.972459	0.000804023	1.81664
2	1	0	1	0	547.076	0.855043	0.855644	1.11646	3	0.412031	11	-0.978024	0.000955295	1.83367
2	1	0	1	0	548.176	0.866047	0.866538	1.28168	3	0.413351	11	-0.982807	0.00111062	1.84934
2	1	0	1	0	549.277	0.877051	0.877522	1.45448	3	0.414857	11	-0.987607	0.00127634	1.86513
2	1	0	1	0	550.377	0.888055	0.88845	1.63505	3	0.416557	11	-0.99204	0.00145266	1.88049
2	1	0	1	0	551.478	0.899059	0.899431	1.81999	3	0.418459	11	-0.996428	0.00163695	1.89586
2	1	0	1	0	552.578	0.910063	0.910498	2.01556	3	0.420569	11	-1.00076	0.00183516	1.91125
2	1	0	1	0	553.678	0.921067	0.921567	2.21667	3	0.422898	11	-1.00479	0.00204281	1.92635
2	1	0	1	0	554.779	0.932071	0.932696	2.42969	3	0.425454	11	-1.00915	0.00226617	1.94185
2	1	0	1	0	555.879	0.943075	0.94374	2.64817	3	0.428248	11	-1.01305	0.00249918	1.95679
2	1	0	1	0	556.979	0.954077	0.954966	2.87636	3	0.431288	11	-1.017	0.00274683	1.97197
2	1	0	1	0	558.08	0.965082	0.965751	3.11476	3	0.434585	11	-1.0208	0.00300809	1.98655
2	1	0	1	0	559.18	0.976087	0.976394	3.35954	3	0.438148	11	-1.02477	0.00328024	2.00116
2	1	0	0	0	560.281	0.98709	0.987609	3.61543	3	0.441984	11	-1.0285	0.00357063	2.01611
2	1	0	0	0	561.381	0.998094	0.998763	3.87764	3	0.446113	11	-1.03221	0.00387285	2.03097
2	1	0	1	0	562.332	0.992492	0.993028	3.6647	3	0.44974	11	-1.02949	0.00363915	2.02252
2	1	0	1	0	563.432	0.981488	0.981537	3.32556	3	0.453582	11	-1.02484	0.00326416	2.00638
2	1	0	1	0	564.533	0.970485	0.971077	2.99284	3	0.457056	11	-1.01981	0.00290627	1.99088
2	1	0	1	0	565.633	0.95948	0.960227	2.67266	3	0.460167	11	-1.0146	0.00256636	1.97482
2	1	0	1	0	566.733	0.948475	0.948692	2.38002	3	0.462944	11	-1.00942	0.00225791	1.95812
2	1	0	0	0	567.834	0.937473	0.937455	2.10802	3	0.465408	11	-1.00435	0.00197617	1.9418
2	1	0	0	0	568.934	0.926469	0.926535	1.85946	3	0.467589	11	-0.999145	0.00172286	1.92568
2	1	0	0	0	570.035	0.915465	0.916002	1.62388	3	0.469503	11	-0.994047	0.00148747	1.91005
2	1	0	0	0	571.135	0.904461	0.904827	1.41369	3	0.471173	11	-0.988829	0.00127914	1.89366
2	1	0	0	0	572.235	0.893457	0.89418	1.23146	3	0.472628	11	-0.984142	0.00110115	1.87832
2	1	0	0	0	573.336	0.882453	0.88288	1.05651	3	0.473884	11	-0.979218	0.00093277	1.8621
2	1	0	0	0	574.436	0.871449	0.871967	0.903337	3	0.474962	11	-0.974704	0.00078768	1.84667
2	1	0	0	0	575.537	0.860445	0.860844	0.768537	3	0.475879	11	-0.97026	0.00066159	1.8311
2	1	0	0	0	576.637	0.849442	0.849718	0.655043	3	0.476664	11	-0.966303	0.000556601	1.81602
2	1	0	0	0	577.737	0.838438	0.838844	0.554057	3	0.477327	11	-0.962493	0.000464768	1.80134
2	1	0	0	0	578.838	0.827434	0.827786	0.466209	3	0.477887	11	-0.959106	0.000385921	1.78689
2	1	0	0	0	579.968	0.81613	0.816823	0.389854	3	0.47837	12	-0.955647	0.000318442	1.77247
2	1	0	0	0	581.069	0.805126	0.806047	0.328564	3	0.478765	12	-0.952956	0.000264838	1.759
2	1	0	0	0	582.169	0.794122	0.794436	0.272654	3	0.479095	12	-0.950258	0.000216606	1.74469
2	1	0	0	0	583.269	0.783118	0.783285	0.225036	3	0.479368	12	-0.947777	0.000176267	1.73106
2	1	0	0	0	584.37	0.772114	0.772606	0.184269	3	0.479592	12	-0.945747	0.000142367	1.71835
2	1	0	1	0	585.47	0.761111	0.761889	0.149698	3	0.479776	12	-0.943677	0.000114053	1.70557
2	1	0	1	0	586.57	0.750106	0.750631	0.120386	3	0.479924	12	-0.941909	9.03651e-05	1.69254
2	1	0	1	0	587.671	0.739102	0.739688	0.0955553	3	0.480043	12	-0.940223	7.06811e-05	1.67991
2	1	0	1	0	588.771	0.728099	0.728146	0.0748739	3	0.480136	12	-0.938822	5.45192e-05	1.66697
2	1	0	1	0	589.872	0.717095	0.717435	0.0575881	3	0.480209	12	-0.937477	4.13157e-05	1.65491
2	1	0	1	0	591.002	0.705791	0.705986	0.043129	3	0.480265	13	-0.936291	3.04484e-05	1.64228
2	1	0	1	0	592.102	0.694787	0.694916	0.0318781	3	0.480306	13	-0.935291	2.21526e-05	1.63021
2	1	0	1	0	593.203	0.683783	0.683853	0.0231196	3	0.480336	13	-0.93438	1.58104e-05	1.61823
2	1	0	1	0	594.303	0.672779	0.673059	0.016452	3	0.480358	13	-0.933589	1.10731e-05	1.60665
2	1	0	1	0	595.404	0.661775	0.662521	0.011502	3	0.480373	13	-0.932945	7.62028e-06	1.59547
2	1	0	1	0	596.504	0.650771	0.651088	0.00793737	3	0.480383	13	-0.932283	5.16793e-06	1.58337
2	1	0	1	0	597.604	0.639768	0.640277	0.00540348	3	0.48039	13	-0.931905	3.45972e-06	1.57218
2	1	0	1	0	598.705	0.628764	0.629385	0.00359183	3	0.480395	13	-0.931487	2.26065e-06	1.56087
2	1	0	1	0	599.805	0.61776	0.618171	0.00227874	3	0.480398	13	-0.931081	1.40865e-06	1.54925
2	1	0	1	0	600.906	0.606756	0.607386	0.00128028	3	0.480399	13	-0.9305	7.77623e-07	1.53789
2	1	0	1	0	602.006	0.595752	0.596078	0.000489804	3	0.4804	13	-0.930006	2.91961e-07	1.52608
2	1	0	1	0	603.106	0.584748	0.585363	-0.00017034	3	0.4804	13	-0.929693	-9.9711e-08	1.51506
2	1	0	1	0	604.207	0.573744	0.574199	-0.000648249	3	0.4804	13	-0.929392	-3.72224e-07	1.50359
2	1	0	1	0	605.307	0.562741	0.562906	-0.000985304	3	0.480399	13	-0.929152	-5.54634e-07	1.49206
2	1	0	1	0	606.407	0.551736	0.552164	-0.00120749	3	0.480398	13	-0.928871	-6.66731e-07	1.48104
2	1	0	1	0	607.508	0.540732	0.541164	-0.00135163	3	0.480397	13	-0.928614	-7.31457e-07	1.46978
2	0	0	0	0	608.608	0.529729	0.530348	-0.00148201	3	0.480395	13	-0.928392	-7.85983e-07	1.45874
2	0	0	0	0	609.709	0.518725	0.519357	-0.00166204	3	0.480393	13	-0.928192	-8.63193e-07	1.44755
2	0	0	0	0	610.809	0.507721	0.508252	-0.00183353	3	0.480391	13	-0.927893	-9.31895e-07	1.43614
2	0	0	0	0	611.909	0.496717	0.497114	-0.00195441	3	0.480388	13	-0.927468	-9.71566e-07	1.42458
2	0	0	0	0	613.01	0.485713	0.486233	-0.00203988	3	0.480386	13	-0.927301	-9.91855e-07	1.41353
2	1	0	0	0	614.11	0.474709	0.474982	-0.00205002	3	0.480384	13	-0.927137	-9.73723e-07	1.40212
2	1	0	0	0	615.211	0.463705	0.463908	-0.00201366	3	0.480381	13	-0.926805	-9.34154e-07	1.39071
2	1	0	0	0	616.311	0.452702	0.453013	-0.00193475	3	0.480379	13	-0.926494	-8.76467e-07	1.37951
2	1	0	0	0	617.411	0.441698	0.44212	-0.00182785	3	0.480377	13	-0.926413	-8.0813e-07	1.36853
2	1	0	0	0	618.512	0.430694	0.430956	-0.00174047	3	0.480375	13	-0.926124	-7.50066e-07	1.35708
2	1	0	0	0	619.612	0.41969	0.420194	-0.00167233	3	0.480373	13	-0.925913	-7.02704e-07	1.34611
2	1	0	0	0	620.713	0.408686	0.409499	-0.00162894	3	0.480371	13	-0.925752	-6.67048e-07	1.33525
2	0	0	0	0	621.813	0.397682	0.398249	-0.00159979	3	0.480368	13	-0.925668	-6.37113e-07	1.32392
2	0	0	0	0	622.913	0.386678	0.387165	-0.00159421	3	0.480366	13	-0.925315	-6.17223e-07	1.31248
2	0	0	0	0	624.014	0.375674	0.376496	-0.00160852	3	0.480364	13	-0.925113	-6.05602e-07	1.30161
2	0	0	1	0	625.114	0.364671	0.365235	-0.00160695	3	0.480362	13	-0.924881	-5.86913e-07	1.29012
2	0	0	1	0	626.214	0.353667	0.354054	-0.00162751	3	0.48036	13	-0.924752	-5.76225e-07	1.27881
2	0	0	1	0	627.315	0.342662	0.34319	-0.00163592	3	0.480358	13	-0.924634	-5.61432e-07	1.26782
2	0	0	1	0	628.415	0.331659	0.332078	-0.00165854	3	0.480356	13	-0.924338	-5.50762e-07	1.25642
2	0	0	1	0	629.516	0.320655	0.320869	-0.00169418	3	0.480354	13	-0.923983	-5.43611e-07	1.24485
2	0	0	1	0	630.616	0.309651	0.310098	-0.00173201	3	0.480352	13	-0.924046	-5.37093e-07	1.23414
2	0	0	1	0	631.716	0.298647	0.299011	-0.00177641	3	0.480349	13	-0.923771	-5.31165e-07	1.22278
2	0	0	1	0	632.817	0.287643	0.288091	-0.00183588	3	0.480347	13	-0.92364	-5.289e-07	1.21173
2	0	0	1	0	633.917	0.276639	0.277328	-0.00188816	3	0.480345	13	-0.923354	-5.23639e-07	1.20068
2	0	0	1	0	635.018	0.265635	0.266046	-0.00193409	3	0.480342	13	-0.923203	-5.14556e-07	1.18925
2	0	0	1	0	636.118	0.254632	0.254847	-0.00197459	3	0.48034	13	-0.922955	-5.03217e-07	1.1778
2	0	0	1	0	637.218	0.243628	0.244062	-0.00202012	3	0.480337	13	-0.922812	-4.93033e-07	1.16687
2	0	0	1	0	638.319	0.232624	0.23278	-0.00206396	3	0.480335	13	-0.922617	-4.80448e-07	1.1554
2	0	0	1	0	639.419	0.22162	0.222166	-0.00209771	3	0.480332	13	-0.922565	-4.6604e-07	1.14473
2	0	0	1	0	640.52	0.210616	0.210626	-0.00212505	3	0.48033	13	-0.92238	-4.47591e-07	1.13301
2	0	0	1	0	641.62	0.199612	0.200008	-0.00215956	3	0.480327	13	-0.922189	-4.3193e-07	1.1222
2	0	0	1	0	642.72	0.188608	0.188761	-0.00219234	3	0.480324	13	-0.922046	-4.13829e-07	1.11081
2	0	0	1	0	643.821	0.177604	0.178083	-0.00223091	3	0.480322	13	-0.921817	-3.97288e-07	1.0999
2	0	0	1	0	644.921	0.166601	0.167068	-0.00228352	3	0.480319	13	-0.92159	-3.81504e-07	1.08866
2	0	0	1	0	646.021	0.155596	0.15618	-0.00232196	3	0.480316	13	-0.921502	-3.62645e-07	1.07768
2	0	0	1	0	647.122	0.144592	0.145095	-0.00237647	3	0.480313	13	-0.921283	-3.44814e-07	1.06638
2	0	0	0	0	648.222	0.133589	0.134199	-0.00241045	3	0.48031	13	-0.921208	-3.23481e-07	1.05541
2	0	0	0	0	649.323	0.122585	0.12293	-0.00245041	3	0.480308	13	-0.920966	-3.0123e-07	1.0439
2	0	0	0	0	650.423	0.111581	0.112321	-0.00250098	3	0.480305	13	-0.920856	-2.80913e-07	1.03318
2	0	0	0	0	651.523	0.100577	0.101227	-0.00254315	3	0.480302	13	-0.920651	-2.57435e-07	1.02188
2	0	0	0	0	652.624	0.0895734	0.0900788	-0.00259909	3	0.480299	13	-0.920483	-2.34123e-07	1.01056
2	0	0	0	0	653.724	0.0785695	0.0792224	-0.00260812	3	0.480295	13	-0.920307	-2.06621e-07	0.999529
2	0	0	0	0	654.825	0.0675656	0.0681305	-0.00264665	3	0.480292	13	-0.919987	-1.80318e-07	0.988117
2	0	0	0	0	655.925	0.0565617	0.0569824	-0.00269402	3	0.480289	13	-0.919926	-1.53512e-07	0.976908
2	0	0	0	0	657.025	0.0455578	0.0459191	-0.00274903	3	0.480286	13	-0.919583	-1.26233e-07	0.965502
2	0	0	0	0	658.126	0.0345539	0.0350235	-0.00280546	3	0.480282	13	-0.917903	-9.8257e-08	0.952927
2	0	0	0	0	659.226	0.0235501	0.0240069	-0.0028919	3	0.480279	13	-0.878284	-6.94257e-08	0.902291
2	0	0	0	0	660.327	0.0125462	0.0130094	-0.00298641	3	0.480276	13	-0.720202	-3.88515e-08	0.733212
2	0	0	0	0	661.427	0.0015423	0.00200772	-0.00309529	3	0.480272	13	-0.509951	-6.21447e-09	0.511959
2	0	0	1	1	662.438	0.00854388	0.00856257	-0.00326168	3	0.480269	13	-0.13695	-2.79284e-08	0.145512
2	0	0	1	1	663.538	0.0195484	0.0201642	-0.00314426	3	0.480266	13	-0.0717661	-6.34016e-08	0.0919303
2	0	0	1	1	664.639	0.030553	0.0306689	-0.00303306	3	0.480263	13	-0.0566437	-9.30209e-08	0.0873126
2	0	0	0	1	665.739	0.0415564	0.0422919	-0.00291504	3	0.48026	13	-0.0503084	-1.23282e-07	0.0926003
2	0	0	0	1	666.839	0.0525603	0.0521319	-0.00278436	3	0.480257	13	-0.0457802	-1.45154e-07	0.0979121
2	0	0	0	1	667.94	0.0635642	0.0642412	-0.0026477	3	0.480254	13	-0.0428676	-1.70091e-07	0.107109
2	0	0	0	1	669.04	0.0745681	0.0751676	-0.00244029	3	0.480252	13	-0.0411549	-1.83431e-07	0.116323
2	0	0	0	1	670.141	0.085572	0.0863826	-0.00224751	3	0.480249	13	-0.0398252	-1.94146e-07	0.126208
2	0	0	0	1	671.241	0.0965758	0.0973769	-0.00202475	3	0.480247	13	-0.0388335	-1.97164e-07	0.13621
2	0	0	0	1	672.341	0.10758	0.107652	-0.0018666	3	0.480245	13	-0.037874	-2.00943e-07	0.145526
2	0	0	0	1	673.442	0.118584	0.118876	-0.0017639	3	0.480242	13	-0.0370838	-2.09686e-07	0.15596
2	1	0	0	1	674.542	0.129587	0.130629	-0.00168771	3	0.48024	13	-0.0363675	-2.20464e-07	0.166997
2	0	0	0	1	675.643	0.140591	0.140955	-0.00167734	3	0.480238	13	-0.0357424	-2.3643e-07	0.176698
2	0	0	0	1	676.743	0.151595	0.152226	-0.00169947	3	0.480236	13	-0.0348863	-2.58705e-07	0.187113
2	1	0	0	1	677.843	0.162599	0.163237	-0.00173328	3	0.480235	13	-0.0341669	-2.82935e-07	0.197404
2	1	0	0	1	678.944	0.173603	0.173642	-0.00166472	3	0.480233	13	-0.0336254	-2.89066e-07	0.207267
2	0	0	1	1	679.939	0.183557	0.183892	-0.00300342	3	0.480232	13	-0.0336039	-5.52305e-07	0.217496