File: Lares Oxides/2024-6-21 NiOx on FTO_2_50mg_01_PEIS_C05.mpt
EC-Lab ASCII FILE
Nb header lines : 65

Potentio Electrochemical Impedance Spectroscopy

Run on channel : 5 (SN 39658)
User :
CE vs. WE compliance from -10 V to 10 V
Electrode connection : standard
Potential control : Ewe
Ewe ctrl range : min = -2.50 V, max = 2.50 V
Safety Limits :
	Do not start on E overload
Acquisition started on : 06/21/2024 11:53:45.401
Technique started on : 06/21/2024 11:53:47.106
Loaded Setting File :  NONE
Saved on :
	File : 2024-6-21 NiOx on FTO_2_50mg_01_PEIS_C05.mpr
	Directory : C:\Users\sfolkman\OneDrive - New Mexico State University\Folkman Group Folder\Scott\
	Host : 172.24.124.15
Device : VSP (SN 1910)
Address : USB
EC-Lab for windows v11.46 (software)
Internet server v11.40 (firmware)
Command interpretor v11.40 (firmware)
Electrode material :
Initial state :
Electrolyte :
Comments :
Current amplifier : VSPB-4A
Electrode surface area : 0.001 cm²
Characteristic mass : 0.001 g
Equivalent Weight : 0.000 g/eq.
Density : 0.000 g/cm3
Volume (V) : 0.001 cm³
Cycle Definition : Charge/Discharge alternance
Mode                Single sine
E (V)               0.0000
vs.                 Eoc
tE (h:m:s)          0:00:0.0000
record              0
dI                  0.000
unit dI             mA
dt (s)              0.000
fi                  200.000
unit fi             kHz
ff                  100.000
unit ff             mHz
Nd                  6
Points              per decade
spacing             Logarithmic
Va (mV)             10.0
pw                  0.10
Na                  2
corr                0
E range min (V)     -2.500
E range max (V)     2.500
I Range             Auto
Bandwidth           4
nc cycles           0
goto Ns'            0
nr cycles           0
inc. cycle          0

freq/Hz	Re(Z)/Ohm	-Im(Z)/Ohm	|Z|/Ohm	Phase(Z)/deg	time/s	<Ewe>/V	<I>/mA	Cs/µF	Cp/µF	cycle number	I Range	|Ewe|/V	|I|/A	Ns	(Q-Qo)/mA.h	Re(Y)/Ohm-1	Im(Y)/Ohm-1	|Y|/Ohm-1	Phase(Y)/deg	Re(C)/nF	Im(C)/nF	|C|/nF	Phase(C)/deg	Re(M)	Im(M)	|M|	Phase(M)/deg	Re(Permittivity)	Im(Permittivity)	|Permittivity|	Phase(Permittivity)/deg	Re(Resistivity)/Ohm.cm	Im(Resistivity)/Ohm.cm	|Resistivity|/Ohm.cm	Phase(Resistivity)/deg	Re(Conductivity)/mS/cm	Im(Conductivity)/mS/cm	|Conductivity|/mS/cm	Phase(Conductivity)/deg	Tan(Delta)	Loss Angle(Delta)/deg	dq/mA.h
199998	4.80852	12.2629	13.1719	-68.5888	1.70547	0.247438	-0.0136872	0.0648937	0.0562455	1	10	0.0102591	0.000778865	0	-4.75815e-06	0.0277149	0.0706795	0.0759191	68.5888	56.2455	22.055	60.4151	-21.4112	0.0000000E+000	0.0000000E+000	0.0000000E+000	21.4112	0.0000000E+000	0.0000000E+000	0.0000000E+000	-21.4112	0.0000000E+000	0.0000000E+000	0.0000000E+000	-68.5888	0.0000000E+000	0.0000000E+000	0.0000000E+000	68.5888	0.392121	68.5888	-4.75815e-06
135123	6.8872	9.66718	11.8696	-54.5327	2.3005	0.247499	-0.0123099	0.12184	0.0808197	1	10	0.0101358	0.000853928	0	-7.99568e-06	0.0488843	0.0686161	0.0842487	54.5327	80.8197	57.5785	99.2326	-35.4673	0.0000000E+000	0.0000000E+000	0.0000000E+000	35.4673	0.0000000E+000	0.0000000E+000	0.0000000E+000	-35.4673	0.0000000E+000	0.0000000E+000	0.0000000E+000	-54.5327	0.0000000E+000	0.0000000E+000	0.0000000E+000	54.5327	0.712431	54.5327	-3.23754e-06
91291.2	8.17798	8.06814	11.488	-44.6126	2.89549	0.247497	-0.0130823	0.216082	0.10658	1	10	0.0101242	0.000881283	0	-2.43244e-05	0.0619665	0.0611342	0.0870473	44.6126	106.58	108.031	151.756	-45.3874	0.0000000E+000	0.0000000E+000	0.0000000E+000	45.3874	0.0000000E+000	0.0000000E+000	0.0000000E+000	-45.3874	0.0000000E+000	0.0000000E+000	0.0000000E+000	-44.6126	0.0000000E+000	0.0000000E+000	0.0000000E+000	44.6126	1.01361	44.6126	-1.63287e-05
61674.2	9.97965	6.96015	12.167	-34.8933	3.3415	0.247527	-0.013408	0.370764	0.121329	1	10	0.0109387	0.00089904	0	-2.12492e-05	0.0674132	0.0470163	0.0821892	34.8933	121.329	173.965	212.095	-55.1067	0.0000000E+000	0.0000000E+000	0.0000000E+000	55.1067	0.0000000E+000	0.0000000E+000	0.0000000E+000	-55.1067	0.0000000E+000	0.0000000E+000	0.0000000E+000	-34.8933	0.0000000E+000	0.0000000E+000	0.0000000E+000	34.8933	1.43383	34.8933	3.07518e-06
41669.8	11.1053	5.32045	12.314	-25.5987	3.78748	0.247527	-0.0134397	0.717879	0.134014	1	10	0.010667	0.000866253	0	-3.05323e-05	0.0732373	0.0350874	0.0812085	25.5987	134.014	279.725	310.171	-64.4013	0.0000000E+000	0.0000000E+000	0.0000000E+000	64.4013	0.0000000E+000	0.0000000E+000	0.0000000E+000	-64.4013	0.0000000E+000	0.0000000E+000	0.0000000E+000	-25.5987	0.0000000E+000	0.0000000E+000	0.0000000E+000	25.5987	2.08728	25.5987	-9.28304e-06
28151	11.5749	4.51526	12.4244	-21.3103	4.23348	0.247524	-0.0127789	1.25211	0.165371	1	10	0.0104584	0.000841766	0	-3.72664e-05	0.0749836	0.0292505	0.0804869	21.3103	165.371	423.929	455.042	-68.6897	0.0000000E+000	0.0000000E+000	0.0000000E+000	68.6897	0.0000000E+000	0.0000000E+000	0.0000000E+000	-68.6897	0.0000000E+000	0.0000000E+000	0.0000000E+000	-21.3103	0.0000000E+000	0.0000000E+000	0.0000000E+000	21.3103	2.5635	21.3103	-6.73416e-06
19020.9	12.1356	4.21286	12.846	-19.1444	4.67948	0.247528	-0.0129278	1.98615	0.213613	1	10	0.0104816	0.00081594	0	-3.72474e-05	0.0735399	0.0255293	0.0778451	19.1444	213.613	615.335	651.358	-70.8556	0.0000000E+000	0.0000000E+000	0.0000000E+000	70.8556	0.0000000E+000	0.0000000E+000	0.0000000E+000	-70.8556	0.0000000E+000	0.0000000E+000	0.0000000E+000	-19.1444	0.0000000E+000	0.0000000E+000	0.0000000E+000	19.1444	2.8806	19.1444	1.9061e-08
12850.7	12.7596	4.32707	13.4733	-18.733	5.12549	0.247516	-0.0134601	2.86219	0.295213	1	10	0.0103946	0.000771492	0	-4.0973e-05	0.0702888	0.0238366	0.0742206	18.733	295.213	870.52	919.215	-71.267	0.0000000E+000	0.0000000E+000	0.0000000E+000	71.267	0.0000000E+000	0.0000000E+000	0.0000000E+000	-71.267	0.0000000E+000	0.0000000E+000	0.0000000E+000	-18.733	0.0000000E+000	0.0000000E+000	0.0000000E+000	18.733	2.94878	18.733	-3.72561e-06
8683.37	13.2892	4.5865	14.0584	-19.041	5.59998	0.247572	-0.0119693	3.99623	0.425342	1	10	0.0101343	0.000720872	0	-3.65274e-05	0.0672397	0.0232064	0.0711316	19.041	425.342	1232.42	1303.75	-70.959	0.0000000E+000	0.0000000E+000	0.0000000E+000	70.959	0.0000000E+000	0.0000000E+000	0.0000000E+000	-70.959	0.0000000E+000	0.0000000E+000	0.0000000E+000	-19.041	0.0000000E+000	0.0000000E+000	0.0000000E+000	19.041	2.89747	19.041	4.44557e-06
5865.09	13.7422	5.19982	14.6931	-20.7258	6.23784	0.2475	-0.0145527	5.21864	0.653592	1	10	0.0100962	0.000687139	0	-4.05093e-05	0.0636547	0.0240858	0.0680591	20.7258	653.592	1727.33	1846.85	-69.2742	0.0000000E+000	0.0000000E+000	0.0000000E+000	69.2742	0.0000000E+000	0.0000000E+000	0.0000000E+000	-69.2742	0.0000000E+000	0.0000000E+000	0.0000000E+000	-20.7258	0.0000000E+000	0.0000000E+000	0.0000000E+000	20.7258	2.64283	20.7258	-3.98192e-06
3961.2	14.0703	6.40462	15.4594	-24.4744	6.71293	0.247519	-0.0135178	6.27336	1.07672	1	10	0.0105247	0.000680799	0	-4.09949e-05	0.0588734	0.0267984	0.0646856	24.4744	1076.72	2365.44	2598.97	-65.5256	0.0000000E+000	0.0000000E+000	0.0000000E+000	65.5256	0.0000000E+000	0.0000000E+000	0.0000000E+000	-65.5256	0.0000000E+000	0.0000000E+000	0.0000000E+000	-24.4744	0.0000000E+000	0.0000000E+000	0.0000000E+000	24.4744	2.1969	24.4744	-4.85545e-07
2677.43	14.3701	8.53348	16.7128	-30.7034	7.18695	0.247561	-0.0135532	6.96588	1.81605	1	10	0.0106879	0.000639505	0	-4.33868e-05	0.0514468	0.030551	0.0598342	30.7034	1816.05	3058.16	3556.74	-59.2966	0.0000000E+000	0.0000000E+000	0.0000000E+000	59.2966	0.0000000E+000	0.0000000E+000	0.0000000E+000	-59.2966	0.0000000E+000	0.0000000E+000	0.0000000E+000	-30.7034	0.0000000E+000	0.0000000E+000	0.0000000E+000	30.7034	1.68396	30.7034	-2.39194e-06
1808.26	14.7413	11.8423	18.9088	-38.7763	7.66093	0.247522	-0.0137263	7.43231	2.91516	1	10	0.0106954	0.00056563	0	-4.71024e-05	0.0412293	0.0331211	0.0528853	38.7763	2915.16	3628.81	4654.72	-51.2237	0.0000000E+000	0.0000000E+000	0.0000000E+000	51.2237	0.0000000E+000	0.0000000E+000	0.0000000E+000	-51.2237	0.0000000E+000	0.0000000E+000	0.0000000E+000	-38.7763	0.0000000E+000	0.0000000E+000	0.0000000E+000	38.7763	1.2448	38.7763	-3.71555e-06
1221.96	15.1081	16.7469	22.5547	-47.945	8.13442	0.247542	-0.0139794	7.77731	4.28771	1	10	0.0106152	0.000470643	0	-5.12264e-05	0.0296986	0.0329201	0.0443366	47.945	4287.71	3868.13	5774.68	-42.055	0.0000000E+000	0.0000000E+000	0.0000000E+000	42.055	0.0000000E+000	0.0000000E+000	0.0000000E+000	-42.055	0.0000000E+000	0.0000000E+000	0.0000000E+000	-47.945	0.0000000E+000	0.0000000E+000	0.0000000E+000	47.945	0.902143	47.945	-4.12407e-06
825.264	15.7286	24.0848	28.7658	-56.8534	8.60768	0.247542	-0.0133838	8.00725	5.61331	1	10	0.0105136	0.000365489	0	-5.11982e-05	0.0190081	0.0291066	0.0347636	56.8534	5613.31	3665.78	6704.27	-33.1466	0.0000000E+000	0.0000000E+000	0.0000000E+000	33.1466	0.0000000E+000	0.0000000E+000	0.0000000E+000	-33.1466	0.0000000E+000	0.0000000E+000	0.0000000E+000	-56.8534	0.0000000E+000	0.0000000E+000	0.0000000E+000	56.8534	0.653051	56.8534	2.82443e-08
558.036	17.0833	34.6321	38.6163	-63.7438	9.58148	0.247533	-0.00178149	8.23531	6.62362	1	11	0.0101204	0.000262076	0	-5.15361e-05	0.0114559	0.023224	0.0258958	63.7438	6623.62	3267.29	7385.63	-26.2562	0.0000000E+000	0.0000000E+000	0.0000000E+000	26.2562	0.0000000E+000	0.0000000E+000	0.0000000E+000	-26.2562	0.0000000E+000	0.0000000E+000	0.0000000E+000	-63.7438	0.0000000E+000	0.0000000E+000	0.0000000E+000	63.7438	0.493279	63.7438	-3.37938e-07
377.051	18.7844	50.2882	53.682	-69.5175	10.0527	0.247565	-0.00169492	8.39371	7.36594	1	11	0.00983821	0.000183268	0	-5.08041e-05	0.0065184	0.0174505	0.0186282	69.5175	7365.94	2751.44	7863.05	-20.4825	0.0000000E+000	0.0000000E+000	0.0000000E+000	20.4825	0.0000000E+000	0.0000000E+000	0.0000000E+000	-20.4825	0.0000000E+000	0.0000000E+000	0.0000000E+000	-69.5175	0.0000000E+000	0.0000000E+000	0.0000000E+000	69.5175	0.373536	69.5175	7.32049e-07
254.755	21.5734	72.6239	75.7604	-73.4556	10.527	0.247512	-0.00176046	8.60235	7.90481	1	11	0.0096876	0.000127872	0	-5.09456e-05	0.00375867	0.012653	0.0131995	73.4556	7904.81	2348.18	8246.21	-16.5444	0.0000000E+000	0.0000000E+000	0.0000000E+000	16.5444	0.0000000E+000	0.0000000E+000	0.0000000E+000	-16.5444	0.0000000E+000	0.0000000E+000	0.0000000E+000	-73.4556	0.0000000E+000	0.0000000E+000	0.0000000E+000	73.4556	0.297057	73.4556	-1.41535e-07
172.037	25.7489	104.986	108.098	-76.2196	10.9954	0.247523	-0.00183363	8.81185	8.31187	1	11	0.00963198	8.91046e-05	0	-5.16763e-05	0.00220357	0.00898463	0.00925091	76.2196	8311.87	2038.57	8558.21	-13.7804	0.0000000E+000	0.0000000E+000	0.0000000E+000	13.7804	0.0000000E+000	0.0000000E+000	0.0000000E+000	-13.7804	0.0000000E+000	0.0000000E+000	0.0000000E+000	-76.2196	0.0000000E+000	0.0000000E+000	0.0000000E+000	76.2196	0.24526	76.2196	-7.30726e-07
116.227	33.039	149.996	153.591	-77.578	11.4646	0.247536	-0.00178801	9.1292	8.70677	1	11	0.00955309	6.21981e-05	0	-5.19871e-05	0.00140053	0.00635836	0.00651078	77.578	8706.77	1917.81	8915.48	-12.422	0.0000000E+000	0.0000000E+000	0.0000000E+000	12.422	0.0000000E+000	0.0000000E+000	0.0000000E+000	-12.422	0.0000000E+000	0.0000000E+000	0.0000000E+000	-77.578	0.0000000E+000	0.0000000E+000	0.0000000E+000	77.578	0.220266	77.578	-3.10718e-07
78.5176	44.1983	213.011	217.548	-78.2779	12.2135	0.247541	-7.87602e-05	9.51591	9.12313	1	12	0.00969733	4.45755e-05	0	-5.15857e-05	0.000933885	0.00450081	0.00459668	78.2779	9123.13	1892.98	9317.45	-11.7221	0.0000000E+000	0.0000000E+000	0.0000000E+000	11.7221	0.0000000E+000	0.0000000E+000	0.0000000E+000	-11.7221	0.0000000E+000	0.0000000E+000	0.0000000E+000	-78.2779	0.0000000E+000	0.0000000E+000	0.0000000E+000	78.2779	0.207493	78.2779	4.01323e-07
53.0478	57.7381	307.046	312.428	-79.3503	12.7021	0.247544	-0.00017066	9.77122	9.4375	1	12	0.00957831	3.06577e-05	0	-5.13529e-05	0.000591512	0.00314561	0.00320074	79.3503	9437.5	1774.66	9602.91	-10.6497	0.0000000E+000	0.0000000E+000	0.0000000E+000	10.6497	0.0000000E+000	0.0000000E+000	0.0000000E+000	-10.6497	0.0000000E+000	0.0000000E+000	0.0000000E+000	-79.3503	0.0000000E+000	0.0000000E+000	0.0000000E+000	79.3503	0.188044	79.3503	2.32839e-07
35.8372	88.9569	430.773	439.862	-78.3321	13.1661	0.247519	-9.13998e-05	10.3095	9.88784	1	12	0.00954278	2.16949e-05	0	-5.13295e-05	0.000459776	0.00222646	0.00227344	78.3321	9887.84	2041.89	10096.5	-11.6679	0.0000000E+000	0.0000000E+000	0.0000000E+000	11.6679	0.0000000E+000	0.0000000E+000	0.0000000E+000	-11.6679	0.0000000E+000	0.0000000E+000	0.0000000E+000	-78.3321	0.0000000E+000	0.0000000E+000	0.0000000E+000	78.3321	0.206505	78.3321	2.34023e-08
24.2323	112.995	621.101	631.295	-79.6891	13.6531	0.247555	-0.000241544	10.5746	10.2358	1	12	0.00954168	1.51144e-05	0	-5.13349e-05	0.000283527	0.00155846	0.00158404	79.6891	10235.8	1862.17	10403.8	-10.3109	0.0000000E+000	0.0000000E+000	0.0000000E+000	10.3109	0.0000000E+000	0.0000000E+000	0.0000000E+000	-10.3109	0.0000000E+000	0.0000000E+000	0.0000000E+000	-79.6891	0.0000000E+000	0.0000000E+000	0.0000000E+000	79.6891	0.181928	79.6891	-5.35951e-09
16.367	173.523	866.024	883.237	-78.6698	14.092	0.247519	-0.000161874	11.2285	10.7951	1	12	0.00951052	1.07678e-05	0	-5.143e-05	0.000222435	0.00111013	0.0011322	78.6698	10795.1	2162.99	11009.7	-11.3302	0.0000000E+000	0.0000000E+000	0.0000000E+000	11.3302	0.0000000E+000	0.0000000E+000	0.0000000E+000	-11.3302	0.0000000E+000	0.0000000E+000	0.0000000E+000	-78.6698	0.0000000E+000	0.0000000E+000	0.0000000E+000	78.6698	0.200368	78.6698	-9.51762e-08
11.0502	248.262	1223.5	1248.43	-78.5298	14.7727	0.24754	-6.38778e-05	11.7719	11.3064	1	13	0.00951485	7.62143e-06	0	-5.14093e-05	0.000159287	0.000785007	0.000801004	78.5298	11306.4	2294.19	11536.8	-11.4702	0.0000000E+000	0.0000000E+000	0.0000000E+000	11.4702	0.0000000E+000	0.0000000E+000	0.0000000E+000	-11.4702	0.0000000E+000	0.0000000E+000	0.0000000E+000	-78.5298	0.0000000E+000	0.0000000E+000	0.0000000E+000	78.5298	0.202911	78.5298	2.07511e-08
7.46893	338.44	1741.44	1774.02	-79.0019	15.1116	0.247559	3.16832e-05	12.2364	11.7911	1	13	0.00954111	5.37825e-06	0	-5.14477e-05	0.000107539	0.000553339	0.000563692	79.0019	11791.1	2291.54	12011.7	-10.9981	0.0000000E+000	0.0000000E+000	0.0000000E+000	10.9981	0.0000000E+000	0.0000000E+000	0.0000000E+000	-10.9981	0.0000000E+000	0.0000000E+000	0.0000000E+000	-79.0019	0.0000000E+000	0.0000000E+000	0.0000000E+000	79.0019	0.194346	79.0019	-3.84601e-08
5.04683	507.911	2323.47	2378.33	-77.6691	15.5859	0.247571	4.62647e-05	13.5726	12.9536	1	13	0.00952418	4.00456e-06	0	-5.1405e-05	8.97929e-05	0.000410762	0.000420462	77.6691	12953.6	2831.67	13259.5	-12.3309	0.0000000E+000	0.0000000E+000	0.0000000E+000	12.3309	0.0000000E+000	0.0000000E+000	0.0000000E+000	-12.3309	0.0000000E+000	0.0000000E+000	0.0000000E+000	-77.6691	0.0000000E+000	0.0000000E+000	0.0000000E+000	77.6691	0.218601	77.6691	4.27912e-08
3.4086	626.375	3355.81	3413.77	-79.4272	16.2542	0.247555	-5.37808e-05	13.9138	13.4454	1	13	0.00953768	2.79388e-06	0	-5.14627e-05	5.37484e-05	0.000287958	0.000292931	79.4272	13445.4	2509.63	13677.6	-10.5728	0.0000000E+000	0.0000000E+000	0.0000000E+000	10.5728	0.0000000E+000	0.0000000E+000	0.0000000E+000	-10.5728	0.0000000E+000	0.0000000E+000	0.0000000E+000	-79.4272	0.0000000E+000	0.0000000E+000	0.0000000E+000	79.4272	0.186654	79.4272	-5.77941e-08
2.30321	1024.16	4750.78	4859.92	-77.8346	17.215	0.24757	-2.58426e-05	14.5453	13.8993	1	13	0.00952684	1.96029e-06	0	-5.15459e-05	4.33619e-05	0.000201144	0.000205765	77.8346	13899.3	2996.36	14218.6	-12.1654	0.0000000E+000	0.0000000E+000	0.0000000E+000	12.1654	0.0000000E+000	0.0000000E+000	0.0000000E+000	-12.1654	0.0000000E+000	0.0000000E+000	0.0000000E+000	-77.8346	0.0000000E+000	0.0000000E+000	0.0000000E+000	77.8346	0.215576	77.8346	-8.31661e-08
1.55627	1430.85	6753.4	6903.31	-78.0375	26.1876	0.247563	-7.35429e-05	15.143	14.4924	1	13	0.0104153	1.50875e-06	0	-5.14337e-05	3.00248e-05	0.000141712	0.000144858	78.0375	14492.4	3070.54	14814.1	-11.9625	0.0000000E+000	0.0000000E+000	0.0000000E+000	11.9625	0.0000000E+000	0.0000000E+000	0.0000000E+000	-11.9625	0.0000000E+000	0.0000000E+000	0.0000000E+000	-78.0375	0.0000000E+000	0.0000000E+000	0.0000000E+000	78.0375	0.211872	78.0375	1.12252e-07
1.05233	2006.63	9444.44	9655.26	-78.0049	39.0294	0.247579	-3.57696e-05	16.0137	15.322	1	13	0.0103989	1.07702e-06	0	-5.17943e-05	2.15248e-05	0.000101309	0.00010357	78.0049	15322	3255.43	15664.1	-11.9951	0.0000000E+000	0.0000000E+000	0.0000000E+000	11.9951	0.0000000E+000	0.0000000E+000	0.0000000E+000	-11.9951	0.0000000E+000	0.0000000E+000	0.0000000E+000	-78.0049	0.0000000E+000	0.0000000E+000	0.0000000E+000	78.0049	0.212467	78.0049	-3.60624e-07
0.710357	2792.14	13607.8	13891.3	-78.4046	57.2511	0.247556	-2.44017e-05	16.4648	15.7996	1	13	0.010405	7.49032e-07	0	-5.20958e-05	1.44695e-05	7.05185e-05	7.19877e-05	78.4046	15799.6	3241.89	16128.8	-11.5954	0.0000000E+000	0.0000000E+000	0.0000000E+000	11.5954	0.0000000E+000	0.0000000E+000	0.0000000E+000	-11.5954	0.0000000E+000	0.0000000E+000	0.0000000E+000	-78.4046	0.0000000E+000	0.0000000E+000	0.0000000E+000	78.4046	0.205188	78.4046	-3.01487e-07
0.480355	3948.86	19134.2	19537.4	-78.3391	83.6445	0.247551	-3.89168e-05	17.316	16.6086	1	13	0.0104022	5.32426e-07	0	-5.23142e-05	1.03452e-05	5.01276e-05	5.11839e-05	78.3391	16608.6	3427.65	16958.6	-11.6609	0.0000000E+000	0.0000000E+000	0.0000000E+000	11.6609	0.0000000E+000	0.0000000E+000	0.0000000E+000	-11.6609	0.0000000E+000	0.0000000E+000	0.0000000E+000	-78.3391	0.0000000E+000	0.0000000E+000	0.0000000E+000	78.3391	0.206378	78.3391	-2.18456e-07
0.324439	4973.16	27143.9	27595.7	-79.6177	122.163	0.247554	7.03698e-05	18.0724	17.4854	1	13	0.0104038	3.77007e-07	0	-5.29483e-05	6.53055e-06	3.56442e-05	3.62375e-05	79.6177	17485.4	3203.59	17776.5	-10.3823	0.0000000E+000	0.0000000E+000	0.0000000E+000	10.3823	0.0000000E+000	0.0000000E+000	0.0000000E+000	-10.3823	0.0000000E+000	0.0000000E+000	0.0000000E+000	-79.6177	0.0000000E+000	0.0000000E+000	0.0000000E+000	79.6177	0.183215	79.6177	-6.34057e-07
0.218838	9521.85	38308.3	39474	-76.0415	178.704	0.247558	-6.47959e-05	18.9848	17.8801	1	13	0.0104057	2.6361e-07	0	-5.35829e-05	6.11082e-06	2.45851e-05	2.53331e-05	76.0415	17880.1	4444.24	18424.1	-13.9585	0.0000000E+000	0.0000000E+000	0.0000000E+000	13.9585	0.0000000E+000	0.0000000E+000	0.0000000E+000	-13.9585	0.0000000E+000	0.0000000E+000	0.0000000E+000	-76.0415	0.0000000E+000	0.0000000E+000	0.0000000E+000	76.0415	0.248558	76.0415	-6.34577e-07
0.147897	14448.4	59167.6	60906.2	-76.2772	261.823	0.247562	-8.13033e-05	18.1877	17.1642	1	13	0.0104094	1.70909e-07	0	-5.51797e-05	3.89491e-06	1.595e-05	1.64187e-05	76.2772	17164.2	4191.4	17668.5	-13.7228	0.0000000E+000	0.0000000E+000	0.0000000E+000	13.7228	0.0000000E+000	0.0000000E+000	0.0000000E+000	-13.7228	0.0000000E+000	0.0000000E+000	0.0000000E+000	-76.2772	0.0000000E+000	0.0000000E+000	0.0000000E+000	76.2772	0.244195	76.2772	-1.59687e-06
0.0999041	20142.1	80557.6	83037.5	-75.962	384.27	0.247554	-8.89528e-05	19.7756	18.6121	1	13	0.0104014	1.25261e-07	0	-5.76327e-05	2.92116e-06	1.16831e-05	1.20428e-05	75.962	18612.1	4653.64	19185	-14.038	0.0000000E+000	0.0000000E+000	0.0000000E+000	14.038	0.0000000E+000	0.0000000E+000	0.0000000E+000	-14.038	0.0000000E+000	0.0000000E+000	0.0000000E+000	-75.962	0.0000000E+000	0.0000000E+000	0.0000000E+000	75.962	0.250033	75.962	-2.45301e-06