File: Lares Oxides/2024-6-20 Ni65Co32Fe3Ox on FTO_1_00mg_02_CV_C05.mpt
EC-Lab ASCII FILE
Nb header lines : 59

Cyclic Voltammetry

Run on channel : 5 (SN 39658)
User :
CE vs. WE compliance from -10 V to 10 V
Electrode connection : standard
Potential control : Ewe
Ewe ctrl range : min = -2.50 V, max = 2.50 V
Safety Limits :
	Do not start on E overload
Acquisition started on : 06/20/2024 08:28:43.483
Technique started on : 06/20/2024 08:33:27.159
Loaded Setting File :  NONE
Saved on :
	File : 2024-6-20 Ni65Co32Fe3Ox on FTO_1_00mg_02_CV_C05.mpr
	Directory : C:\Users\sfolkman\OneDrive - New Mexico State University\Folkman Group Folder\Scott\
	Host : 172.24.124.15
Device : VSP (SN 1910)
Address : USB
EC-Lab for windows v11.46 (software)
Internet server v11.40 (firmware)
Command interpretor v11.40 (firmware)
Electrode material :
Initial state :
Electrolyte :
Comments :
Current amplifier : VSPB-4A
Electrode surface area : 0.001 cm²
Characteristic mass : 0.001 g
Equivalent Weight : 0.000 g/eq.
Density : 0.000 g/cm3
Volume (V) : 0.001 cm³
Cycle Definition : Charge/Discharge alternance
Ei (V)              0.000
vs.                 Eoc
dE/dt               10.000
dE/dt unit          mV/s
E1 (V)              1.000
vs.                 Ref
Step percent        50
N                   10
E range min (V)     -2.500
E range max (V)     2.500
I Range             Auto
I Range min         Unset
I Range max         Unset
I Range init        Unset
Bandwidth           4
E2 (V)              0.000
vs.                 Ref
nc cycles           2
Reverse Scan        1
Ef (V)              0.000
vs.                 Eoc

mode	ox/red	error	control changes	counter inc.	time/s	control/V	Ewe/V	<I>/mA	cycle number	(Q-Qo)/C	I Range	P/W
2	1	0	0	0	283.676	0.03263	0.0359297	0.0663503	1	0.0000000E+000	13	2.38394e-06
2	0	0	1	0	284.561	0.0414827	0.041544	0.00292811	1	5.93951e-07	12	1.21645e-07
2	0	0	0	0	285.461	0.0504855	0.0495762	0.00326972	1	1.35075e-06	12	1.62101e-07
2	0	0	0	0	286.362	0.0594883	0.0586683	0.00238103	1	2.27881e-06	12	1.39691e-07
2	0	0	1	0	287.262	0.0684911	0.0688733	0.00182355	1	3.37633e-06	12	1.25594e-07
2	0	0	1	0	288.162	0.0774943	0.0779691	0.00117	1	4.61949e-06	12	9.12238e-08
2	0	0	0	0	289.062	0.0864967	0.0873396	0.00142523	1	6.01693e-06	12	1.24479e-07
2	0	0	1	0	289.963	0.0954995	0.0966927	0.0011323	1	7.57934e-06	12	1.09485e-07
2	0	0	1	0	290.863	0.104502	0.105617	0.00188514	1	9.31341e-06	12	1.99103e-07
2	1	0	0	0	291.763	0.113505	0.113419	0.00268926	1	1.1215e-05	12	3.05013e-07
2	0	0	1	0	292.664	0.122509	0.123836	0.0032859	1	1.3301e-05	12	4.06913e-07
2	0	0	1	0	293.564	0.131511	0.130987	0.00326971	1	1.55674e-05	12	4.28289e-07
2	1	0	0	0	294.464	0.140513	0.141747	0.00241885	1	1.80483e-05	12	3.42865e-07
2	1	0	0	0	295.364	0.149516	0.149958	0.00185777	1	2.07259e-05	12	2.78588e-07
2	0	0	1	0	296.265	0.158519	0.160031	0.000905932	1	2.36266e-05	12	1.44977e-07
2	1	0	1	0	297.165	0.167523	0.167901	0.000775567	1	2.67807e-05	12	1.30218e-07
2	1	0	0	0	298.065	0.176525	0.177982	4.99434e-05	1	3.01804e-05	12	8.88904e-09
2	1	0	1	0	298.965	0.185527	0.184697	0.000882473	1	3.38533e-05	12	1.6299e-07
2	1	0	1	0	299.866	0.19453	0.19435	0.00186595	1	3.78329e-05	12	3.62647e-07
2	1	0	0	0	300.766	0.203533	0.204295	0.00294935	1	4.21221e-05	12	6.02537e-07
2	1	0	1	0	301.666	0.212536	0.212631	0.0028482	1	4.67405e-05	12	6.05616e-07
2	1	0	1	0	302.567	0.221539	0.221249	0.00339946	1	5.17281e-05	12	7.52127e-07
2	1	0	0	0	303.467	0.230541	0.232126	0.00275201	1	5.71129e-05	12	6.38814e-07
2	1	0	0	0	304.367	0.239544	0.241143	0.00210621	1	6.29282e-05	12	5.07899e-07
2	1	0	1	0	305.267	0.248547	0.247948	0.00197123	1	6.92021e-05	12	4.88761e-07
2	1	0	0	0	306.168	0.25755	0.257318	0.00265499	1	7.60003e-05	12	6.83176e-07
2	1	0	0	0	307.068	0.266552	0.267927	0.00269955	1	8.33676e-05	12	7.23283e-07
2	1	0	1	0	307.968	0.275555	0.27531	0.00396493	1	9.1349e-05	12	1.09158e-06
2	1	0	1	0	308.869	0.284558	0.284093	0.00546994	1	0.000100013	12	1.55397e-06
2	1	0	0	0	309.769	0.293561	0.293312	0.00709258	1	0.000109447	12	2.08034e-06
2	1	0	1	0	310.669	0.302564	0.303042	0.00830695	1	0.000119705	12	2.51736e-06
2	1	0	1	0	311.569	0.311566	0.312362	0.00959087	1	0.000130872	12	2.99582e-06
2	1	0	0	0	312.47	0.320569	0.320399	0.011071	1	0.000143025	12	3.54715e-06
2	1	0	1	0	313.37	0.329571	0.330393	0.0120604	1	0.000156215	12	3.98467e-06
2	1	0	1	0	314.27	0.338575	0.340997	0.0133687	1	0.000170568	12	4.55869e-06
2	1	0	0	0	315.17	0.347578	0.348345	0.0145288	1	0.000186108	12	5.06103e-06
2	1	0	0	0	316.071	0.35658	0.35739	0.0161381	1	0.000202888	12	5.76759e-06
2	1	0	1	0	316.971	0.365583	0.367429	0.0173199	1	0.000220968	12	6.36381e-06
2	1	0	1	0	317.871	0.374585	0.375308	0.0179853	1	0.000240401	12	6.75002e-06
2	1	0	0	0	318.772	0.383589	0.384116	0.0197597	1	0.000261308	12	7.59002e-06
2	1	0	1	0	319.672	0.392592	0.392549	0.0213408	1	0.000283709	12	8.37729e-06
2	1	0	1	0	320.572	0.401594	0.40269	0.0233185	1	0.000307732	12	9.39013e-06
2	1	0	0	0	321.472	0.410597	0.412357	0.0254409	1	0.000333503	12	1.04907e-05
2	1	0	1	0	322.373	0.419599	0.419724	0.0275256	1	0.00036115	12	1.15532e-05
2	1	0	1	0	323.273	0.428603	0.428789	0.0299361	1	0.000390921	12	1.28363e-05
2	1	0	0	0	324.173	0.437605	0.437708	0.0325856	1	0.000422979	12	1.4263e-05
2	1	0	0	0	325.104	0.446908	0.448304	0.030207	1	0.000459609	11	1.35419e-05
2	1	0	1	0	326.004	0.455911	0.456324	0.0340564	1	0.000496147	11	1.55407e-05
2	1	0	1	0	326.904	0.464913	0.466405	0.0386533	1	0.000535955	11	1.80281e-05
2	1	0	0	0	327.804	0.473917	0.474245	0.0428045	1	0.000579448	11	2.02998e-05
2	1	0	1	0	328.705	0.482919	0.483676	0.0471985	1	0.000627039	11	2.28288e-05
2	1	0	1	0	329.605	0.491922	0.492156	0.0555605	1	0.000679414	11	2.73445e-05
2	1	0	0	0	330.505	0.500925	0.50067	0.0614244	1	0.000737037	11	3.07534e-05
2	1	0	1	0	331.406	0.509927	0.511017	0.0691897	1	0.000800563	11	3.53571e-05
2	1	0	1	0	332.306	0.518931	0.52005	0.0764403	1	0.00087074	11	3.97528e-05
2	1	0	0	0	333.206	0.527933	0.52801	0.0859598	1	0.00094829	11	4.53877e-05
2	1	0	0	0	334.106	0.536936	0.536696	0.0938977	1	0.00103413	11	5.03945e-05
2	1	0	1	0	335.007	0.545939	0.54556	0.104979	1	0.00112917	11	5.72726e-05
2	1	0	1	0	335.907	0.554942	0.555699	0.119526	1	0.00123454	11	6.64204e-05
2	1	0	0	0	336.807	0.563945	0.563783	0.136631	1	0.00135165	11	7.70304e-05
2	1	0	1	0	337.707	0.572947	0.573539	0.15298	1	0.00148185	11	8.77402e-05
2	1	0	1	0	338.608	0.58195	0.583192	0.172137	1	0.00162703	11	0.000100389
2	1	0	0	0	339.508	0.590953	0.590765	0.192393	1	0.00178954	11	0.000113659
2	1	0	1	0	340.408	0.599956	0.600952	0.217772	1	0.00197236	11	0.00013087
2	1	0	1	0	341.309	0.608958	0.609546	0.251596	1	0.00217965	11	0.000153359
2	1	0	0	0	342.209	0.617961	0.618173	0.289988	1	0.00241705	11	0.000179263
2	1	0	0	0	343.109	0.626964	0.627296	0.339455	1	0.00269268	11	0.000212939
2	1	0	1	0	344.009	0.635967	0.637052	0.398806	1	0.00301746	11	0.000254061
2	1	0	1	0	344.91	0.64497	0.645646	0.478459	1	0.0034061	11	0.000308915
2	1	0	0	0	345.81	0.653972	0.65386	0.581667	1	0.00387668	11	0.000380329
2	1	0	1	0	346.71	0.662975	0.662849	0.708696	1	0.00445042	11	0.000469758
2	1	0	1	0	347.611	0.671978	0.673722	0.857727	1	0.00515098	11	0.000577869
2	1	0	0	0	348.511	0.680981	0.679911	1.03545	1	0.00600208	11	0.000704015
2	1	0	1	0	349.411	0.689985	0.689601	1.23995	1	0.00702723	11	0.00085507
2	1	0	1	0	350.311	0.698986	0.70042	1.46833	1	0.00824837	11	0.00102845
2	1	0	0	0	351.212	0.707989	0.707916	1.71807	1	0.00968516	11	0.00121625
2	1	0	0	0	352.112	0.716992	0.718327	1.98186	1	0.0113555	11	0.00142362
2	1	0	1	0	353.012	0.725995	0.72617	2.26436	1	0.0132742	11	0.00164431
2	1	0	0	0	353.912	0.734998	0.735774	2.56186	1	0.0154553	11	0.00188495
2	1	0	0	0	354.813	0.744	0.744746	2.87496	1	0.0179112	11	0.00214111
2	1	0	1	0	355.713	0.753003	0.754385	3.19626	1	0.0206509	11	0.00241121
2	1	0	1	0	356.613	0.762006	0.76306	3.52598	1	0.0236847	11	0.00269053
2	1	0	0	0	357.514	0.771009	0.771612	3.86609	1	0.0270189	11	0.00298312
2	1	0	1	0	358.414	0.780011	0.780995	4.21495	1	0.0306609	11	0.00329186
2	1	0	1	0	359.314	0.789014	0.789226	4.57161	1	0.0346178	11	0.00360803
2	1	0	0	0	360.214	0.798017	0.797287	4.92993	1	0.0388936	11	0.00393057
2	1	0	0	0	361.115	0.80702	0.807107	5.29429	1	0.0434947	11	0.00427306
2	1	0	1	0	362.015	0.816023	0.815851	5.66266	1	0.048424	11	0.00461989
2	1	0	0	0	362.915	0.825025	0.825851	6.03638	1	0.0536863	11	0.00498515
2	1	0	0	0	363.816	0.834028	0.834972	6.41459	1	0.0592862	11	0.005356
2	1	0	1	0	364.716	0.843031	0.843118	6.79269	1	0.0652241	11	0.00572704
2	1	0	1	0	365.616	0.852034	0.852089	7.17298	1	0.0715061	11	0.00611202
2	1	0	0	0	366.516	0.861037	0.861057	7.55562	1	0.0781319	11	0.00650582
2	1	0	1	0	367.417	0.870039	0.871147	7.94419	1	0.085105	11	0.00692056
2	1	0	1	0	368.317	0.879042	0.879048	8.33458	1	0.0924295	11	0.0073265
2	1	0	0	0	369.217	0.888045	0.888814	8.72723	1	0.100104	11	0.00775688
2	1	0	0	0	370.118	0.897048	0.898121	9.11875	1	0.108135	11	0.00818975
2	1	0	1	0	371.018	0.90605	0.905705	9.51089	1	0.11652	11	0.00861406
2	1	0	0	0	371.918	0.915053	0.915	9.90509	1	0.125262	11	0.00906317
2	1	0	0	0	372.818	0.924056	0.924662	10.3055	1	0.134365	11	0.00952915
2	1	0	1	0	373.749	0.933359	0.934398	10.7226	1	0.144159	10	0.0100192
2	1	0	1	0	374.649	0.942362	0.943339	11.123	1	0.15399	10	0.0104927
2	1	0	0	0	375.549	0.951365	0.952208	11.5224	1	0.164183	10	0.0109717
2	1	0	1	0	376.449	0.960367	0.960735	11.9259	1	0.174739	10	0.0114576
2	1	0	1	0	377.35	0.96937	0.970679	12.3295	1	0.185662	10	0.0119679
2	1	0	0	0	378.25	0.978373	0.979658	12.7365	1	0.196949	10	0.0124774
2	1	0	0	0	379.15	0.987376	0.987251	13.1415	1	0.208603	10	0.012974
2	1	0	1	0	380.051	0.996378	0.997275	13.5476	1	0.22062	10	0.0135107
2	1	0	0	0	380.771	0.996479	0.997013	13.5534	1	0.230447	10	0.0135129
2	1	0	1	0	381.671	0.987476	0.987177	13.1525	1	0.242472	10	0.0129838
2	1	0	1	0	382.572	0.978473	0.978953	12.759	1	0.25414	10	0.0124904
2	1	0	0	0	383.472	0.96947	0.970344	12.3672	1	0.265449	10	0.0120004
2	1	0	0	0	384.372	0.960467	0.960342	11.975	1	0.276406	10	0.0115001
2	1	0	1	0	385.273	0.951465	0.951697	11.582	1	0.287005	10	0.0110226
2	1	0	0	0	386.173	0.942462	0.943003	11.1926	1	0.297251	10	0.0105547
2	1	0	0	0	387.073	0.933459	0.933142	10.8087	1	0.307151	10	0.0100861
2	1	0	1	0	387.973	0.924456	0.924917	10.4249	1	0.316702	10	0.00964216
2	1	0	1	0	388.874	0.915453	0.915539	10.0424	1	0.325907	10	0.00919422
2	1	0	0	0	389.774	0.906451	0.908219	9.66058	1	0.334765	10	0.00877392
2	1	0	1	0	390.674	0.897448	0.897351	9.27936	1	0.343281	10	0.00832684
2	1	0	1	0	391.575	0.888445	0.889495	8.90074	1	0.351458	10	0.00791716
2	1	0	0	0	392.475	0.879442	0.880669	8.5266	1	0.359295	10	0.00750912
2	1	0	1	0	393.375	0.87044	0.87093	8.15959	1	0.366797	10	0.00710643
2	1	0	1	0	394.275	0.861437	0.861735	7.78975	1	0.373968	10	0.0067127
2	1	0	0	0	395.176	0.852434	0.85308	7.42205	1	0.380807	10	0.0063316
2	1	0	0	0	396.076	0.843431	0.843734	7.05639	1	0.38732	10	0.00595372
2	1	0	1	0	396.976	0.834428	0.835275	6.69763	1	0.393508	10	0.00559437
2	1	0	1	0	397.877	0.825426	0.826003	6.34304	1	0.399377	10	0.00523937
2	1	0	0	0	398.777	0.816423	0.816036	5.99201	1	0.404929	10	0.00488969
2	1	0	1	0	399.677	0.80742	0.807605	5.64295	1	0.410167	10	0.00455727
2	1	0	1	0	400.577	0.798417	0.800124	5.29767	1	0.415095	10	0.0042388
2	1	0	0	0	401.478	0.789414	0.789551	4.95794	1	0.419717	10	0.00391455
2	1	0	1	0	402.393	0.780262	0.780651	4.62541	1	0.424105	10	0.00361083
2	1	0	1	0	403.308	0.771109	0.771351	4.30488	1	0.428195	11	0.00332057
2	1	0	0	0	404.208	0.762106	0.762743	3.9831	1	0.431927	11	0.00303808
2	1	0	0	0	405.109	0.753103	0.753564	3.66602	1	0.435374	11	0.00276258
2	1	0	1	0	406.009	0.7441	0.744469	3.35881	1	0.438541	11	0.00250053
2	1	0	1	0	406.909	0.735098	0.735803	3.06053	1	0.441436	11	0.00225194
2	1	0	0	0	407.81	0.726095	0.727111	2.7715	1	0.444065	11	0.00201519
2	1	0	1	0	408.71	0.717092	0.717525	2.48934	1	0.446437	11	0.00178616
2	1	0	1	0	409.61	0.708089	0.709238	2.22086	1	0.44856	11	0.00157512
2	1	0	0	0	410.51	0.699086	0.699323	1.96413	1	0.450443	11	0.00137356
2	1	0	1	0	411.411	0.690085	0.689359	1.71932	1	0.452097	11	0.00118523
2	1	0	1	0	412.311	0.681081	0.682116	1.48475	1	0.453534	11	0.00101277
2	1	0	0	0	413.211	0.672078	0.672207	1.26771	1	0.454767	11	0.000852163
2	1	0	0	0	414.112	0.663075	0.663357	1.06824	1	0.455809	11	0.000708628
2	1	0	1	0	415.012	0.654072	0.654641	0.883192	1	0.456676	11	0.000578174
2	1	0	1	0	415.912	0.64507	0.645978	0.715532	1	0.457386	11	0.000462218
2	1	0	0	0	416.812	0.636067	0.637257	0.568544	1	0.457955	11	0.000362309
2	1	0	1	0	417.713	0.627064	0.627668	0.443181	1	0.458402	11	0.000278171
2	1	0	1	0	418.613	0.618061	0.618121	0.332964	1	0.458744	11	0.000205812
2	1	0	0	0	419.513	0.609058	0.609982	0.240848	1	0.458998	11	0.000146913
2	1	0	1	0	420.414	0.600056	0.599964	0.167041	1	0.459181	11	0.000100219
2	1	0	1	0	421.314	0.591053	0.591832	0.109278	1	0.459305	11	6.46741e-05
2	1	0	0	0	422.214	0.58205	0.583163	0.062504	1	0.459382	11	3.645e-05
2	1	0	0	0	423.114	0.573047	0.573722	0.0206094	1	0.459423	11	1.18241e-05
2	1	0	1	0	424.015	0.564045	0.565018	-0.00976902	1	0.459435	11	-5.51968e-06
2	1	0	1	0	424.915	0.555042	0.555567	-0.0295994	1	0.459424	11	-1.64444e-05
2	1	0	0	0	425.815	0.546039	0.545058	-0.044836	1	0.459394	11	-2.44382e-05
2	1	0	1	0	426.715	0.537036	0.538742	-0.0597147	1	0.45935	11	-3.21708e-05
2	0	0	1	0	427.616	0.528033	0.528954	-0.0710458	1	0.459295	11	-3.758e-05
2	1	0	0	0	428.516	0.519031	0.519426	-0.0747948	1	0.459231	11	-3.88504e-05
2	0	0	1	0	429.416	0.510027	0.510101	-0.0767324	1	0.45916	11	-3.91413e-05
2	0	0	1	0	430.317	0.501025	0.502291	-0.0840869	1	0.459084	11	-4.22361e-05
2	0	0	0	0	431.217	0.492022	0.493308	-0.0876757	1	0.459003	11	-4.32511e-05
2	0	0	0	0	432.117	0.483019	0.482405	-0.0846336	1	0.45892	11	-4.08277e-05
2	0	0	1	0	433.017	0.474017	0.474735	-0.0851392	1	0.458835	11	-4.04186e-05
2	0	0	1	0	433.918	0.465013	0.46597	-0.0879707	1	0.458749	11	-4.09917e-05
2	0	0	0	0	434.818	0.456011	0.456341	-0.0915456	1	0.458663	11	-4.1776e-05
2	0	0	1	0	435.718	0.447008	0.447714	-0.0913796	1	0.458576	11	-4.09119e-05
2	0	0	1	0	436.619	0.438006	0.438613	-0.0896641	1	0.45849	11	-3.93278e-05
2	0	0	0	0	437.519	0.429003	0.429382	-0.0912645	1	0.458405	11	-3.91873e-05
2	0	0	1	0	438.419	0.42	0.421141	-0.0932708	1	0.458322	11	-3.92801e-05
2	0	0	1	0	439.319	0.410997	0.411309	-0.0924518	1	0.458239	11	-3.80263e-05
2	0	0	0	0	440.22	0.401994	0.402071	-0.0896407	1	0.458159	11	-3.60419e-05
2	1	0	0	0	441.12	0.392992	0.392876	-0.0874443	1	0.45808	11	-3.43547e-05
2	1	0	1	0	442.02	0.383989	0.385341	-0.0877678	1	0.458004	11	-3.38205e-05
2	1	0	0	0	442.92	0.374986	0.376048	-0.0865486	1	0.457929	11	-3.25465e-05
2	1	0	0	0	443.821	0.365983	0.366489	-0.0833862	1	0.457857	11	-3.05601e-05
2	1	0	1	0	444.721	0.35698	0.357502	-0.0782321	1	0.457788	11	-2.79681e-05
2	1	0	1	0	445.621	0.347978	0.347813	-0.0764333	1	0.45772	11	-2.65845e-05
2	1	0	0	0	446.522	0.338975	0.339228	-0.0743076	1	0.457655	11	-2.52072e-05
2	0	0	1	0	447.422	0.329972	0.330544	-0.0712629	1	0.457592	11	-2.35555e-05
2	1	0	1	0	448.322	0.320969	0.320927	-0.0637238	1	0.457532	11	-2.04507e-05
2	0	0	0	0	449.222	0.311967	0.31242	-0.0602157	1	0.457473	11	-1.88126e-05
2	0	0	0	0	450.123	0.302964	0.303676	-0.0589732	1	0.457416	11	-1.79087e-05
2	0	0	1	0	451.023	0.293961	0.294993	-0.0570987	1	0.457361	11	-1.68437e-05
2	0	0	0	0	451.923	0.284958	0.285828	-0.0545619	1	0.457308	11	-1.55953e-05
2	0	0	0	0	452.824	0.275955	0.275743	-0.0515085	1	0.457256	11	-1.42031e-05
2	0	0	1	0	453.724	0.266953	0.26775	-0.0498341	1	0.457206	11	-1.33431e-05
2	0	0	1	0	454.624	0.25795	0.258234	-0.0510788	1	0.457158	11	-1.31903e-05
2	0	0	0	0	455.524	0.248947	0.250477	-0.0498288	1	0.45711	11	-1.2481e-05
2	0	0	1	0	456.425	0.239944	0.24001	-0.0480253	1	0.457065	11	-1.15266e-05
2	0	0	1	0	457.325	0.230941	0.230664	-0.0483175	1	0.45702	11	-1.11451e-05
2	0	0	0	0	458.255	0.221639	0.221272	-0.0445011	1	0.456978	12	-9.84685e-06
2	0	0	0	0	459.156	0.212636	0.21315	-0.0432958	1	0.456937	12	-9.22849e-06
2	0	0	1	0	460.056	0.203633	0.204256	-0.0415723	1	0.456897	12	-8.49138e-06
2	0	0	0	0	460.956	0.19463	0.195264	-0.0416773	1	0.456858	12	-8.13806e-06
2	0	0	0	0	461.856	0.185627	0.185019	-0.0435818	1	0.45682	12	-8.06348e-06
2	1	0	1	0	462.757	0.176625	0.176955	-0.0432166	1	0.456782	12	-7.64742e-06
2	1	0	1	0	463.657	0.167623	0.168209	-0.0404962	1	0.456746	12	-6.81185e-06
2	1	0	0	0	464.557	0.158619	0.160066	-0.0401113	1	0.456711	12	-6.42044e-06
2	1	0	1	0	465.457	0.149616	0.150907	-0.0411547	1	0.456676	12	-6.21052e-06
2	1	0	1	0	466.358	0.140613	0.140191	-0.0400224	1	0.456642	12	-5.61079e-06
2	1	0	0	0	467.258	0.131611	0.13173	-0.037101	1	0.456608	12	-4.8873e-06
2	1	0	1	0	468.158	0.122609	0.123309	-0.0363048	1	0.456575	12	-4.47669e-06
2	0	0	1	0	469.059	0.113605	0.113724	-0.0364071	1	0.456543	12	-4.14034e-06
2	1	0	0	0	469.959	0.104602	0.104779	-0.0354706	1	0.456511	12	-3.71657e-06
2	0	0	0	0	470.859	0.0955995	0.0952785	-0.0328741	1	0.45648	12	-3.1322e-06
2	0	0	1	0	471.759	0.0865967	0.0866575	-0.0313881	1	0.45645	12	-2.72001e-06
2	0	0	1	0	472.66	0.0775944	0.0785053	-0.0316011	1	0.456419	12	-2.48085e-06
2	0	0	0	0	473.56	0.0685911	0.0684691	-0.0314625	1	0.45639	12	-2.15421e-06
2	0	0	1	0	474.46	0.0595883	0.0588243	-0.0301303	1	0.456361	12	-1.77239e-06
2	0	0	1	0	475.361	0.0505856	0.0506499	-0.0287018	1	0.456332	12	-1.45374e-06
2	0	0	0	0	476.261	0.0415828	0.0427354	-0.02962	1	0.456303	12	-1.26582e-06
2	0	0	1	0	477.161	0.03258	0.0320798	-0.0306208	1	0.456275	12	-9.82308e-07
2	0	0	1	0	478.061	0.0235772	0.0226692	-0.0296771	1	0.456248	12	-6.72758e-07
2	0	0	0	0	478.962	0.0145744	0.0158412	-0.0285378	1	0.456221	12	-4.52071e-07
2	0	0	0	0	479.862	0.00557161	0.00780257	-0.030439	1	0.456194	12	-2.37502e-07
2	0	0	0	1	480.673	0.00257068	0.00464209	-0.0267865	1	0.45617	12	-1.24345e-07
2	0	0	1	1	481.573	0.0115735	0.012791	-0.0233107	1	0.456147	12	-2.98167e-07
2	0	0	1	1	482.473	0.0205763	0.0201485	-0.0214452	1	0.456125	12	-4.32089e-07
2	0	0	0	1	483.374	0.029579	0.0302601	-0.0217312	1	0.456104	12	-6.57588e-07
2	1	0	1	1	484.114	0.0369813	0.0381098	-0.0235822	2	0.456088	12	-8.98713e-07
2	0	0	1	1	485.014	0.0459841	0.0481016	-0.0210847	2	0.45607	12	-1.01421e-06
2	1	0	0	1	485.914	0.0549869	0.0558961	-0.0194802	2	0.456052	12	-1.08887e-06
2	1	0	1	1	486.815	0.0639897	0.064322	-0.0188582	2	0.456036	12	-1.213e-06
2	1	0	1	1	487.715	0.0729925	0.0731721	-0.0183212	2	0.45602	12	-1.3406e-06
2	1	0	0	1	488.615	0.0819953	0.0836604	-0.0160319	2	0.456004	12	-1.34123e-06
2	0	0	1	1	489.516	0.0909972	0.0918421	-0.0139876	2	0.45599	12	-1.28465e-06
2	0	0	1	1	490.416	0.100001	0.100371	-0.0139764	2	0.455976	12	-1.40283e-06
2	0	0	0	1	491.316	0.109004	0.109874	-0.0133996	2	0.455963	12	-1.47226e-06
2	0	0	0	1	492.216	0.118006	0.118481	-0.011404	2	0.45595	12	-1.35116e-06
2	0	0	1	1	493.117	0.127009	0.126166	-0.0105861	2	0.455938	12	-1.33561e-06
2	0	0	1	1	494.017	0.136011	0.135267	-0.0121437	2	0.455927	12	-1.64263e-06
2	0	0	0	1	494.917	0.145015	0.145324	-0.0116613	2	0.455916	12	-1.69466e-06
2	0	0	1	1	495.817	0.154018	0.155701	-0.00984991	2	0.455906	12	-1.53364e-06
2	0	0	1	1	496.718	0.16302	0.164711	-0.011322	2	0.455896	12	-1.86486e-06
2	0	0	0	1	497.618	0.172023	0.172476	-0.0121534	2	0.455887	12	-2.09618e-06
2	1	0	1	1	498.518	0.181025	0.181674	-0.0112492	2	0.455879	12	-2.04368e-06
2	1	0	1	1	499.419	0.190029	0.190529	-0.00993897	2	0.455871	12	-1.89366e-06
2	1	0	0	1	500.319	0.199032	0.199438	-0.0102729	2	0.455864	12	-2.04881e-06
2	1	0	0	1	501.219	0.208034	0.208371	-0.0107445	2	0.455857	12	-2.23884e-06
2	1	0	1	1	502.119	0.217037	0.216703	-0.0091617	2	0.455851	12	-1.98536e-06
2	1	0	1	1	503.02	0.22604	0.226422	-0.00679973	2	0.455846	12	-1.53961e-06
2	1	0	0	1	503.92	0.235043	0.234803	-0.00618175	2	0.455841	12	-1.4515e-06
2	1	0	1	1	504.82	0.244045	0.245047	-0.00601231	2	0.455837	12	-1.4733e-06
2	1	0	1	1	505.721	0.253048	0.254944	-0.00338636	2	0.455834	12	-8.63332e-07
2	1	0	0	1	506.621	0.262051	0.262759	-0.000873995	2	0.455831	12	-2.2965e-07
2	0	0	1	1	507.521	0.271054	0.271778	0.000377327	2	0.45583	12	1.02549e-07
2	0	0	1	1	508.421	0.280057	0.281636	0.00143382	2	0.455829	12	4.03816e-07
2	0	0	0	1	509.322	0.289059	0.290874	0.00266421	2	0.455828	12	7.74948e-07
2	0	0	0	1	510.222	0.298062	0.298116	0.00509077	2	0.455829	12	1.51764e-06
2	0	0	1	1	511.122	0.307065	0.306867	0.00562085	2	0.455831	12	1.72485e-06
2	0	0	1	1	512.023	0.316068	0.315514	0.00496391	2	0.455834	12	1.56618e-06
2	0	0	0	1	512.923	0.325071	0.324977	0.00609819	2	0.455838	12	1.98177e-06
2	0	0	1	1	513.823	0.334073	0.333754	0.0080462	2	0.455842	12	2.68545e-06
2	0	0	1	1	514.723	0.343076	0.342487	0.00736572	2	0.455849	12	2.52266e-06
2	0	0	0	1	515.624	0.352079	0.352012	0.00634346	2	0.455856	12	2.23298e-06
2	1	0	1	1	516.524	0.361082	0.360826	0.00631429	2	0.455864	12	2.27836e-06
2	1	0	1	1	517.424	0.370084	0.370344	0.00908041	2	0.455874	12	3.36288e-06
2	1	0	0	1	518.324	0.379087	0.380343	0.0101502	2	0.455885	12	3.86057e-06
2	1	0	0	1	519.225	0.38809	0.387671	0.00906804	2	0.455898	12	3.51542e-06
2	1	0	1	1	520.125	0.397093	0.396592	0.0106242	2	0.455912	12	4.21348e-06
2	1	0	1	1	521.025	0.406097	0.405817	0.0143542	2	0.455929	12	5.8252e-06
2	1	0	0	1	521.926	0.415098	0.416073	0.0184943	2	0.455947	12	7.69496e-06
2	1	0	1	1	522.826	0.424101	0.424349	0.0205443	2	0.455968	12	8.71794e-06
2	1	0	1	1	523.726	0.433104	0.432384	0.0250095	2	0.455991	12	1.08137e-05
2	1	0	0	1	524.626	0.442107	0.4428	0.0320632	2	0.456018	12	1.41976e-05
2	1	0	1	1	525.527	0.45111	0.450879	0.0388891	2	0.456048	12	1.75343e-05
2	0	0	1	1	526.427	0.460112	0.460479	0.0432042	2	0.456083	12	1.98946e-05
2	0	0	0	1	527.327	0.469115	0.469054	0.0493997	2	0.456123	12	2.31711e-05
2	0	0	0	1	528.228	0.478118	0.478621	0.0595006	2	0.456169	12	2.84783e-05
2	0	0	1	1	529.128	0.487121	0.487328	0.0684644	2	0.456221	12	3.33646e-05
2	0	0	0	1	530.028	0.496124	0.497897	0.0762076	2	0.456281	12	3.79436e-05
2	0	0	0	1	530.928	0.505126	0.506171	0.083986	2	0.456349	12	4.25113e-05
2	0	0	1	1	531.859	0.514429	0.51441	0.0951763	2	0.45643	11	4.89597e-05
2	0	0	1	1	532.759	0.523432	0.524103	0.110481	2	0.456518	11	5.79036e-05
2	1	0	0	1	533.659	0.532435	0.532482	0.12275	2	0.456617	11	6.53624e-05
2	0	0	1	1	534.559	0.541438	0.541489	0.136338	2	0.456729	11	7.38253e-05
2	1	0	1	1	535.46	0.55044	0.551312	0.152959	2	0.456855	11	8.4328e-05
2	0	0	0	1	536.36	0.559443	0.559794	0.171966	2	0.456997	11	9.62654e-05
2	1	0	0	1	537.26	0.568446	0.569129	0.188255	2	0.457157	11	0.000107141
2	1	0	1	1	538.161	0.577449	0.577369	0.207351	2	0.457336	11	0.000119718
2	1	0	0	1	539.061	0.586452	0.586956	0.231736	2	0.457537	11	0.000136019
2	1	0	0	1	539.961	0.595454	0.595151	0.260844	2	0.457762	11	0.000155242
2	1	0	1	1	540.861	0.604457	0.606078	0.292029	2	0.458016	11	0.000176992
2	1	0	1	1	541.762	0.61346	0.614231	0.327841	2	0.458303	11	0.00020137
2	1	0	0	1	542.662	0.622463	0.622729	0.380582	2	0.45863	11	0.000236999
2	1	0	1	1	543.562	0.631465	0.631346	0.443932	2	0.459006	11	0.000280275
2	1	0	1	1	544.463	0.640468	0.64107	0.519706	2	0.459446	11	0.000333168
2	1	0	0	1	545.363	0.649471	0.649706	0.619097	2	0.459964	11	0.000402231
2	1	0	1	1	546.263	0.658473	0.658726	0.742087	2	0.460578	11	0.000488832
2	1	0	1	1	547.163	0.667477	0.668182	0.885731	2	0.46131	11	0.000591829
2	1	0	0	1	548.064	0.676479	0.676541	1.05192	2	0.46218	11	0.000711665
2	1	0	0	1	548.964	0.685482	0.687151	1.24159	2	0.463208	11	0.000853158
2	1	0	1	1	549.864	0.694485	0.695105	1.45403	2	0.464416	11	0.0010107
2	1	0	1	1	550.765	0.703487	0.704589	1.68381	2	0.46582	11	0.00118639
2	1	0	0	1	551.665	0.712491	0.713659	1.92699	2	0.467438	11	0.00137522
2	1	0	1	1	552.565	0.721493	0.720588	2.18852	2	0.469285	11	0.00157702
2	1	0	1	1	553.465	0.730496	0.731337	2.46544	2	0.471375	11	0.00180307
2	1	0	0	1	554.366	0.739499	0.74068	2.75113	2	0.473718	11	0.00203771
2	1	0	1	1	555.266	0.748501	0.748715	3.04714	2	0.476327	11	0.00228144
2	1	0	1	1	556.166	0.757505	0.757205	3.35396	2	0.479211	11	0.00253963
2	1	0	0	1	557.066	0.766507	0.767714	3.67377	2	0.482377	11	0.00282041
2	1	0	0	1	557.967	0.77551	0.776174	3.99824	2	0.485834	11	0.00310333
2	1	0	1	1	558.867	0.784513	0.785379	4.32739	2	0.489588	11	0.00339864
2	1	0	1	1	559.767	0.793516	0.793178	4.66527	2	0.493645	11	0.00370039
2	1	0	0	1	560.668	0.802519	0.802498	5.01265	2	0.49801	11	0.00402264
2	1	0	1	1	561.568	0.811521	0.812212	5.36399	2	0.502689	11	0.0043567
2	1	0	1	1	562.468	0.820524	0.821682	5.72023	2	0.507687	11	0.00470021
2	1	0	0	1	563.368	0.829527	0.829757	6.07957	2	0.513005	11	0.00504457
2	1	0	1	1	564.269	0.83853	0.838715	6.44418	2	0.51865	11	0.00540483
2	1	0	1	1	565.169	0.847532	0.847358	6.81594	2	0.524623	11	0.00577554
2	1	0	0	1	566.069	0.856535	0.856686	7.18688	2	0.530927	11	0.0061569
2	1	0	0	1	566.97	0.865538	0.866897	7.56133	2	0.537566	11	0.0065549
2	1	0	1	1	567.87	0.874541	0.874149	7.93818	2	0.544541	11	0.00693915
2	1	0	1	1	568.77	0.883544	0.883622	8.3202	2	0.551855	11	0.00735191
2	1	0	0	1	569.67	0.892546	0.893498	8.70221	2	0.559512	11	0.0077754
2	1	0	1	1	570.571	0.901549	0.902248	9.0832	2	0.567511	11	0.0081953
2	1	0	1	1	571.471	0.910552	0.911796	9.469	2	0.575859	11	0.0086338
2	1	0	0	1	572.371	0.919555	0.919586	9.85502	2	0.584552	11	0.00906254
2	1	0	1	1	573.272	0.928558	0.929064	10.2431	2	0.593595	11	0.00951645
2	1	0	1	1	574.202	0.93786	0.937842	10.6374	2	0.603318	10	0.00997617
2	1	0	0	1	575.102	0.946863	0.947369	11.0285	2	0.613065	10	0.010448
2	1	0	0	1	576.002	0.955866	0.957249	11.4231	2	0.623169	10	0.0109348
2	1	0	1	1	576.903	0.964869	0.964588	11.8169	2	0.633625	10	0.0113984
2	1	0	1	1	577.803	0.973872	0.974698	12.209	2	0.644436	10	0.0119001
2	1	0	0	1	578.703	0.982874	0.98322	12.5993	2	0.655604	10	0.0123879
2	1	0	1	1	579.603	0.991877	0.992986	12.9933	2	0.667125	10	0.0129022
2	1	0	1	1	580.419	1.00003	0.999923	13.3935	2	0.677874	10	0.0133924
2	1	0	0	1	581.274	0.991477	0.991492	12.9734	2	0.68913	10	0.0128631
2	1	0	1	1	582.175	0.982474	0.983191	12.5854	2	0.70064	10	0.0123739
2	1	0	1	1	583.075	0.973471	0.974209	12.2009	2	0.711802	10	0.0118863
2	1	0	0	1	583.975	0.964469	0.964423	11.8183	2	0.722613	10	0.0113978
2	1	0	1	1	584.875	0.955466	0.955652	11.4358	2	0.733077	10	0.0109287
2	1	0	1	1	585.776	0.946463	0.947127	11.0523	2	0.743198	10	0.0104679
2	1	0	0	1	586.676	0.93746	0.937148	10.6714	2	0.752972	10	0.0100007
2	1	0	0	1	587.576	0.928458	0.929639	10.3022	2	0.762408	10	0.00957732
2	1	0	1	1	588.477	0.919455	0.920797	9.92832	2	0.771504	10	0.00914197
2	1	0	0	1	589.377	0.910452	0.910701	9.55566	2	0.780262	10	0.00870235
2	1	0	0	1	590.277	0.901449	0.902381	9.18037	2	0.788687	10	0.00828419
2	1	0	1	1	591.177	0.892446	0.892851	8.81039	2	0.796777	10	0.00786636
2	1	0	1	1	592.078	0.883444	0.883596	8.44567	2	0.804536	10	0.00746257
2	1	0	0	1	592.978	0.874441	0.876002	8.07516	2	0.811965	10	0.00707386
2	1	0	1	1	593.878	0.865438	0.865917	7.70995	2	0.819066	10	0.00667617
2	1	0	1	1	594.779	0.856435	0.856726	7.35161	2	0.825845	10	0.00629832
2	1	0	0	1	595.679	0.847432	0.848034	6.99796	2	0.832302	10	0.00593451
2	1	0	1	1	596.579	0.83843	0.839189	6.64607	2	0.838444	10	0.00557731
2	1	0	1	1	597.479	0.829427	0.829029	6.29549	2	0.844273	10	0.00521914
2	1	0	0	1	598.38	0.820424	0.820907	5.9494	2	0.849791	10	0.0048839
2	1	0	0	1	599.28	0.811421	0.811211	5.61274	2	0.855002	10	0.00455311
2	1	0	1	1	600.18	0.802418	0.803537	5.27935	2	0.859907	10	0.00424215
2	1	0	1	1	601.081	0.793416	0.794851	4.94709	2	0.864514	10	0.0039322
2	1	0	0	1	601.981	0.784413	0.785472	4.62199	2	0.868826	10	0.00363045
2	1	0	1	1	602.911	0.77511	0.776005	4.2992	2	0.872982	11	0.0033362
2	1	0	1	1	603.811	0.766107	0.765976	3.98837	2	0.876718	11	0.003055
2	1	0	0	1	604.712	0.757104	0.756108	3.68289	2	0.880173	11	0.00278466
2	1	0	1	1	605.612	0.748102	0.749206	3.38024	2	0.883356	11	0.00253249
2	1	0	1	1	606.512	0.739099	0.73892	3.0885	2	0.886271	11	0.00228215
2	1	0	0	1	607.412	0.730096	0.73087	2.80657	2	0.888923	11	0.00205123
2	1	0	0	1	608.313	0.721093	0.721933	2.53054	2	0.891323	11	0.00182688
2	1	0	1	1	609.213	0.71209	0.712171	2.26321	2	0.893477	11	0.00161179
2	1	0	1	1	610.113	0.703088	0.703088	2.00836	2	0.895395	11	0.00141206
2	1	0	0	1	611.014	0.694085	0.695052	1.76668	2	0.897086	11	0.00122793
2	1	0	1	1	611.914	0.685082	0.684984	1.53564	2	0.898562	11	0.00105189
2	1	0	1	1	612.814	0.676079	0.677385	1.31511	2	0.899835	11	0.000890838
2	1	0	0	1	613.714	0.667077	0.667875	1.11084	2	0.900918	11	0.000741901
2	1	0	1	1	614.615	0.658074	0.659329	0.923342	2	0.901825	11	0.000608786
2	1	0	1	1	615.515	0.649071	0.648455	0.755529	2	0.902573	11	0.000489927
2	1	0	0	1	616.415	0.640068	0.640182	0.602883	2	0.903177	11	0.000385955
2	1	0	0	1	617.316	0.631065	0.631983	0.467202	2	0.903654	11	0.000295264
2	1	0	1	1	618.216	0.622063	0.622736	0.351227	2	0.904021	11	0.000218722
2	1	0	1	1	619.116	0.61306	0.613999	0.255824	2	0.904294	11	0.000157076
2	1	0	0	1	620.016	0.604057	0.604965	0.176066	2	0.904488	11	0.000106514
2	1	0	1	1	620.917	0.595054	0.595634	0.110274	2	0.904617	11	6.5683e-05
2	1	0	1	1	621.817	0.586051	0.587529	0.0520326	2	0.904693	11	3.05706e-05
2	1	0	0	1	622.717	0.577049	0.577422	0.00723616	2	0.904724	11	4.17832e-06
2	1	0	1	1	623.618	0.568045	0.568427	-0.028615	2	0.90472	11	-1.62655e-05
2	1	0	1	1	624.518	0.559043	0.559263	-0.054487	2	0.904688	11	-3.04726e-05
2	1	0	0	1	625.418	0.55004	0.549908	-0.0752551	2	0.904633	11	-4.13833e-05
2	1	0	0	1	626.318	0.541037	0.5421	-0.0951161	2	0.90456	11	-5.15624e-05
2	1	0	1	1	627.219	0.532035	0.53158	-0.10848	2	0.904473	11	-5.76656e-05
2	1	0	1	1	628.119	0.523031	0.523366	-0.116434	2	0.904374	11	-6.09378e-05
2	0	0	0	1	629.019	0.514029	0.515203	-0.12101	2	0.904267	11	-6.23448e-05
2	0	0	1	1	629.919	0.505026	0.505554	-0.12499	2	0.904153	11	-6.31891e-05
2	0	0	1	1	630.82	0.496024	0.495714	-0.130228	2	0.904035	11	-6.4556e-05
2	0	0	0	1	631.72	0.487021	0.486504	-0.132104	2	0.903914	11	-6.42693e-05
2	0	0	1	1	632.62	0.478018	0.478841	-0.131383	2	0.90379	11	-6.29113e-05
2	0	0	1	1	633.521	0.469015	0.469479	-0.129808	2	0.903666	11	-6.09424e-05
2	0	0	0	1	634.421	0.460012	0.46002	-0.128402	2	0.903542	11	-5.90674e-05
2	0	0	0	1	635.321	0.45101	0.451345	-0.12987	2	0.903418	11	-5.86164e-05
2	0	0	1	1	636.221	0.442007	0.442988	-0.129584	2	0.903296	11	-5.74042e-05
2	0	0	0	1	637.122	0.433004	0.434891	-0.128121	2	0.903175	11	-5.57185e-05
2	0	0	0	1	638.022	0.424001	0.425242	-0.126261	2	0.903057	11	-5.36915e-05
2	0	0	1	1	638.922	0.414998	0.415346	-0.122252	2	0.902941	11	-5.0777e-05
2	0	0	1	1	639.823	0.405996	0.406177	-0.120201	2	0.902828	11	-4.88228e-05
2	0	0	0	1	640.723	0.396993	0.396369	-0.117995	2	0.902717	11	-4.67698e-05
2	0	0	1	1	641.623	0.38799	0.388055	-0.115992	2	0.90261	11	-4.50112e-05
2	0	0	1	1	642.523	0.378987	0.378512	-0.115083	2	0.902506	11	-4.35602e-05
2	0	0	0	1	643.424	0.369985	0.371061	-0.111102	2	0.902405	11	-4.12257e-05
2	0	0	0	1	644.324	0.360982	0.360793	-0.107356	2	0.902308	11	-3.87334e-05
2	0	0	1	1	645.224	0.351979	0.352436	-0.104176	2	0.902214	11	-3.67154e-05
2	0	0	0	1	646.124	0.342976	0.343823	-0.100462	2	0.902124	11	-3.45412e-05
2	1	0	0	1	647.025	0.333973	0.335561	-0.098417	2	0.902037	11	-3.30249e-05
2	0	0	1	1	647.925	0.324971	0.326438	-0.0961703	2	0.901952	11	-3.13936e-05
2	1	0	1	1	648.825	0.315968	0.316562	-0.0937392	2	0.901871	11	-2.96743e-05
2	0	0	0	1	649.726	0.306965	0.307674	-0.0903772	2	0.901792	11	-2.78068e-05
2	0	0	1	1	650.626	0.297962	0.298587	-0.0853312	2	0.901715	11	-2.54788e-05
2	0	0	1	1	651.526	0.288959	0.288943	-0.082929	2	0.901641	11	-2.39618e-05
2	1	0	0	1	652.426	0.279957	0.280783	-0.0805345	2	0.901569	11	-2.26127e-05
2	0	0	1	1	653.327	0.270954	0.271374	-0.0763976	2	0.901499	11	-2.07323e-05
2	1	0	1	1	654.227	0.261951	0.26256	-0.0717667	2	0.901431	11	-1.88431e-05
2	0	0	0	1	655.127	0.252948	0.252722	-0.068459	2	0.901365	11	-1.73011e-05
2	0	0	0	1	656.028	0.243945	0.245425	-0.0691995	2	0.9013	11	-1.69833e-05
2	0	0	1	1	656.928	0.234943	0.235195	-0.0669439	2	0.901237	11	-1.57448e-05
2	0	0	1	1	657.828	0.22594	0.226358	-0.0642373	2	0.901176	11	-1.45406e-05
2	0	0	0	1	658.728	0.216937	0.217161	-0.062281	2	0.901116	11	-1.3525e-05
2	0	0	1	1	659.629	0.207934	0.209118	-0.0614196	2	0.901058	11	-1.2844e-05
2	0	0	1	1	660.529	0.198932	0.200213	-0.0608893	2	0.901001	11	-1.21908e-05
2	0	0	0	1	661.429	0.189929	0.190124	-0.059634	2	0.900945	11	-1.13378e-05
2	0	0	1	1	662.36	0.180626	0.180261	-0.0550937	2	0.900888	12	-9.93127e-06
2	0	0	1	1	663.26	0.171623	0.171659	-0.0539212	2	0.900836	12	-9.25608e-06
2	0	0	0	1	664.16	0.16262	0.163202	-0.0539845	2	0.900785	12	-8.81036e-06
2	0	0	0	1	665.06	0.153617	0.152834	-0.0542904	2	0.900735	12	-8.29744e-06
2	0	0	1	1	665.961	0.144615	0.144277	-0.0532452	2	0.900685	12	-7.68206e-06
2	0	0	1	1	666.861	0.135612	0.136361	-0.0513573	2	0.900637	12	-7.00314e-06
2	0	0	0	1	667.761	0.126609	0.127195	-0.0509886	2	0.900589	12	-6.4855e-06
2	0	0	1	1	668.661	0.117606	0.118139	-0.0517567	2	0.900543	12	-6.11449e-06
2	0	0	1	1	669.562	0.108604	0.109286	-0.0522035	2	0.900497	12	-5.70511e-06
2	0	0	0	1	670.462	0.0996007	0.100153	-0.0518886	2	0.900452	12	-5.19682e-06
2	0	0	1	1	671.362	0.0905982	0.0903173	-0.0499385	2	0.900407	12	-4.51031e-06
2	0	0	1	1	672.263	0.0815952	0.0824934	-0.0488428	2	0.900364	12	-4.02921e-06
2	1	0	0	1	673.163	0.0725924	0.0730501	-0.0481679	2	0.900321	12	-3.51867e-06
2	0	0	0	1	674.063	0.0635896	0.0652884	-0.0489875	2	0.900278	12	-3.19832e-06
2	0	0	1	1	674.963	0.0545868	0.0553986	-0.0481168	2	0.900236	12	-2.6656e-06
2	1	0	1	1	675.864	0.0455838	0.04518	-0.0469512	2	0.900195	12	-2.12125e-06
2	1	0	0	1	676.764	0.0365812	0.0363275	-0.044728	2	0.900154	12	-1.62486e-06
2	0	0	1	1	677.664	0.0275784	0.0290061	-0.0442665	2	0.900114	12	-1.284e-06
2	0	0	1	1	678.565	0.0185756	0.0197379	-0.0441478	2	0.900075	12	-8.71386e-07
2	0	0	0	1	679.465	0.00957285	0.0100729	-0.0439556	2	0.900035	12	-4.42762e-07
2	0	0	1	1	680.365	0.00056962	0.000620046	-0.0433029	2	0.899997	12	-2.68498e-08
2	0	0	0	0	681.176	0.00757223	0.0071395	-0.039456	2	0.899964	12	-2.81696e-07
2	0	0	1	0	682.076	0.016575	0.017092	-0.0377643	2	0.89993	12	-6.45467e-07
2	1	0	0	0	682.976	0.0255778	0.0257204	-0.0356701	2	0.899898	12	-9.1745e-07
2	0	0	0	0	683.717	0.0329801	0.0336338	-0.0326192	3	0.899873	12	-1.09711e-06
2	0	0	1	0	684.617	0.0419829	0.0417647	-0.0318679	3	0.899843	12	-1.33095e-06
2	0	0	0	0	685.517	0.0509857	0.051244	-0.0303485	3	0.899815	12	-1.55518e-06
2	0	0	0	0	686.418	0.0599885	0.0608549	-0.0281936	3	0.899788	12	-1.71572e-06
2	0	0	1	0	687.318	0.0689913	0.069095	-0.0261347	3	0.899762	12	-1.80577e-06
2	0	0	1	0	688.218	0.0779934	0.0780979	-0.0255887	3	0.899736	12	-1.99843e-06
2	0	0	0	0	689.118	0.0869968	0.0889056	-0.0251044	3	0.899712	12	-2.23192e-06
2	0	0	1	0	690.019	0.0959996	0.0960466	-0.0244847	3	0.899689	12	-2.35167e-06
2	0	0	1	0	690.919	0.105002	0.104946	-0.0246754	3	0.899666	12	-2.58957e-06
2	0	0	0	0	691.819	0.114005	0.11531	-0.0238319	3	0.899645	12	-2.74805e-06
2	0	0	1	0	692.72	0.123008	0.124333	-0.0227467	3	0.899624	12	-2.82816e-06
2	0	0	1	0	693.62	0.132011	0.132127	-0.0208676	3	0.899604	12	-2.75718e-06
2	0	0	0	0	694.52	0.141014	0.142099	-0.0203537	3	0.899585	12	-2.89224e-06
2	1	0	0	0	695.42	0.150016	0.15181	-0.0204222	3	0.899566	12	-3.10029e-06
2	0	0	1	0	696.321	0.159019	0.158801	-0.0201049	3	0.899548	12	-3.19268e-06
2	0	0	1	0	697.221	0.168022	0.168904	-0.0205164	3	0.899531	12	-3.46529e-06
2	0	0	0	0	698.121	0.177025	0.177327	-0.0197773	3	0.899515	12	-3.50705e-06
2	1	0	1	0	699.021	0.186028	0.187382	-0.0196441	3	0.8995	12	-3.68096e-06
2	1	0	1	0	699.922	0.19503	0.196245	-0.0180248	3	0.899485	12	-3.53728e-06
2	1	0	0	0	700.822	0.204033	0.204609	-0.0171433	3	0.899471	12	-3.50769e-06
2	1	0	1	0	701.722	0.213036	0.213916	-0.0156952	3	0.899458	12	-3.35746e-06
2	1	0	1	0	702.623	0.222039	0.223382	-0.0152806	3	0.899445	12	-3.41342e-06
2	1	0	0	0	703.523	0.231041	0.230512	-0.014044	3	0.899434	12	-3.2373e-06
2	1	0	0	0	704.423	0.240044	0.239874	-0.014169	3	0.899423	12	-3.39879e-06
2	1	0	1	0	705.323	0.249047	0.249712	-0.0143073	3	0.899413	12	-3.5727e-06
2	1	0	1	0	706.224	0.25805	0.258486	-0.0135635	3	0.899404	12	-3.50598e-06
2	1	0	0	0	707.124	0.267053	0.267726	-0.0126895	3	0.899395	12	-3.3973e-06
2	1	0	1	0	708.024	0.276055	0.277421	-0.0109918	3	0.899388	12	-3.04936e-06
2	1	0	1	0	708.925	0.285058	0.28554	-0.00832242	3	0.899382	12	-2.37639e-06
2	1	0	0	0	709.825	0.294061	0.294062	-0.00700328	3	0.899376	12	-2.0594e-06
2	1	0	1	0	710.725	0.303064	0.304185	-0.00574146	3	0.899372	12	-1.74646e-06
2	1	0	1	0	711.625	0.312067	0.31236	-0.00569809	3	0.899369	12	-1.77986e-06
2	1	0	0	0	712.526	0.321069	0.320802	-0.00399902	3	0.899367	12	-1.28289e-06
2	1	0	0	0	713.426	0.330072	0.331191	-0.00127565	3	0.899366	12	-4.22482e-07
2	1	0	1	0	714.326	0.339075	0.338757	0.00177351	3	0.899366	12	6.00789e-07
2	1	0	1	0	715.227	0.348079	0.348286	0.00408068	3	0.899368	12	1.42124e-06
2	0	0	0	0	716.127	0.35708	0.35709	0.00589628	3	0.89937	12	2.1055e-06
2	0	0	1	0	717.027	0.366083	0.366731	0.00695734	3	0.899375	12	2.55148e-06
2	0	0	1	0	717.927	0.375086	0.376131	0.00876835	3	0.899381	12	3.29805e-06
2	0	0	0	0	718.828	0.384089	0.384637	0.0115777	3	0.899388	12	4.45321e-06
2	0	0	1	0	719.728	0.393092	0.392778	0.0149275	3	0.899397	12	5.86321e-06
2	0	0	1	0	720.628	0.402094	0.402408	0.0179696	3	0.899408	12	7.23112e-06
2	0	0	0	0	721.528	0.411097	0.412776	0.0206074	3	0.899422	12	8.50627e-06
2	0	0	0	0	722.429	0.4201	0.420433	0.0219834	3	0.899438	12	9.24254e-06
2	0	0	1	0	723.329	0.429103	0.430066	0.0252026	3	0.899457	12	1.08388e-05
2	0	0	0	0	724.229	0.438106	0.437897	0.0290728	3	0.899479	12	1.27309e-05
2	0	0	0	0	725.13	0.447108	0.447183	0.0349563	3	0.899506	12	1.56319e-05
2	0	0	1	0	726.03	0.456111	0.456599	0.0410144	3	0.899539	12	1.87271e-05
2	0	0	1	0	726.93	0.465114	0.464814	0.0463382	3	0.899577	12	2.15387e-05
2	0	0	0	0	727.83	0.474117	0.474764	0.0517868	3	0.899621	12	2.45865e-05
2	1	0	1	0	728.731	0.483119	0.484336	0.0588391	3	0.899673	12	2.84979e-05
2	1	0	1	0	729.631	0.492122	0.493565	0.0676045	3	0.899733	12	3.33672e-05
2	1	0	0	0	730.531	0.501125	0.501418	0.0791943	3	0.899803	12	3.97095e-05
2	1	0	1	0	731.432	0.510127	0.512238	0.0909366	3	0.899883	12	4.65812e-05
2	0	0	1	0	732.362	0.519431	0.520708	0.107015	3	0.899974	11	5.57233e-05
2	0	0	0	0	733.262	0.528434	0.528629	0.120855	3	0.900078	11	6.38873e-05
2	1	0	0	0	734.162	0.537436	0.537732	0.136555	3	0.900197	11	7.34302e-05
2	1	0	1	0	735.063	0.546439	0.547882	0.156312	3	0.900332	11	8.56408e-05
2	1	0	1	0	735.963	0.555442	0.556518	0.17547	3	0.900485	11	9.76522e-05
2	1	0	0	0	736.863	0.564445	0.564291	0.196459	3	0.900658	11	0.00011086
2	1	0	1	0	737.763	0.573448	0.574071	0.218989	3	0.900851	11	0.000125715
2	1	0	1	0	738.664	0.58245	0.582698	0.246501	3	0.901069	11	0.000143636
2	1	0	0	0	739.564	0.591453	0.591935	0.278714	3	0.901313	11	0.00016498
2	1	0	0	0	740.464	0.600456	0.600514	0.314278	3	0.901586	11	0.000188728
2	1	0	1	0	741.365	0.609459	0.609172	0.354342	3	0.901893	11	0.000215855
2	1	0	0	0	742.265	0.618461	0.618423	0.401241	3	0.902239	11	0.000248136
2	1	0	0	0	743.165	0.627464	0.628571	0.460112	3	0.902633	11	0.000289213
2	1	0	1	0	744.065	0.636467	0.637723	0.533941	3	0.903085	11	0.000340507
2	1	0	1	0	744.966	0.645469	0.645014	0.625791	3	0.903609	11	0.000403644
2	1	0	0	0	745.866	0.654473	0.655528	0.735987	3	0.904221	11	0.00048246
2	1	0	1	0	746.766	0.663475	0.663689	0.865342	3	0.904939	11	0.000574318
2	1	0	1	0	747.667	0.672478	0.673389	1.01657	3	0.905783	11	0.000684548
2	1	0	0	0	748.567	0.681481	0.681631	1.19074	3	0.906773	11	0.000811649
2	1	0	1	0	749.467	0.690484	0.691433	1.38727	3	0.907928	11	0.000959205
2	1	0	1	0	750.367	0.699486	0.698749	1.60085	3	0.909265	11	0.00111859
2	1	0	0	0	751.268	0.708489	0.709459	1.83109	3	0.910803	11	0.00129908
2	1	0	0	0	752.168	0.717492	0.718886	2.07535	3	0.912555	11	0.00149194
2	1	0	1	0	753.068	0.726495	0.727235	2.33443	3	0.914535	11	0.00169768
2	1	0	1	0	753.969	0.735498	0.736375	2.60813	3	0.916755	11	0.00192056
2	1	0	0	0	754.869	0.744501	0.745284	2.89387	3	0.919227	11	0.00215675
2	1	0	1	0	755.769	0.753503	0.753843	3.18868	3	0.921959	11	0.00240376
2	1	0	1	0	756.669	0.762506	0.763881	3.48825	3	0.924962	11	0.00266461
2	1	0	0	0	757.57	0.771509	0.772071	3.79725	3	0.928241	11	0.00293175
2	1	0	1	0	758.47	0.780512	0.780145	4.11465	3	0.931805	11	0.00321003
2	1	0	1	0	759.37	0.789514	0.789362	4.44012	3	0.935659	11	0.00350486
2	1	0	0	0	760.27	0.798517	0.798674	4.77216	3	0.939809	11	0.0038114
2	1	0	0	0	761.171	0.80752	0.809237	5.108	3	0.944262	11	0.00413358
2	1	0	1	0	762.071	0.816523	0.816926	5.44848	3	0.949019	11	0.004451
2	1	0	1	0	762.971	0.825526	0.825884	5.79181	3	0.954087	11	0.00478337
2	1	0	0	0	763.872	0.834528	0.833714	6.14144	3	0.959468	11	0.00512021
2	1	0	1	0	764.772	0.843531	0.844336	6.49715	3	0.965166	11	0.00548578
2	1	0	1	0	765.672	0.852534	0.852978	6.85577	3	0.971186	11	0.00584782
2	1	0	0	0	766.572	0.861537	0.86311	7.21608	3	0.977528	11	0.00622827
2	1	0	1	0	767.473	0.87054	0.871537	7.57939	3	0.984196	11	0.00660571
2	1	0	1	0	768.373	0.879542	0.880828	7.94403	3	0.991191	11	0.00699733
2	1	0	0	0	769.273	0.888545	0.888893	8.31226	3	0.998516	11	0.00738871
2	1	0	0	0	770.174	0.897548	0.897702	8.6866	3	1.00617	11	0.00779798
2	1	0	1	0	771.074	0.906551	0.906848	9.06076	3	1.01417	11	0.00821673
2	1	0	1	0	771.974	0.915554	0.916954	9.44279	3	1.0225	11	0.0086586
2	1	0	0	0	772.874	0.924556	0.925368	9.82015	3	1.03117	11	0.00908725
2	1	0	1	0	773.775	0.933559	0.933895	10.1981	3	1.04018	11	0.00952392
2	1	0	1	0	774.69	0.942712	0.944201	10.6062	3	1.0497	11	0.0100144
2	1	0	0	0	775.605	0.951865	0.951936	10.9614	3	1.05956	10	0.0104345
2	1	0	1	0	776.506	0.960868	0.961286	11.3463	3	1.06961	10	0.010907
2	1	0	1	0	777.406	0.96987	0.970213	11.732	3	1.08	10	0.0113825
2	1	0	0	0	778.306	0.978873	0.979442	12.1169	3	1.09073	10	0.0118678
2	1	0	0	0	779.206	0.987876	0.988049	12.5	3	1.10182	10	0.0123506
2	1	0	1	0	780.107	0.996879	0.998073	12.8857	3	1.11324	10	0.0128608
2	1	0	0	0	780.877	0.995478	0.996092	12.8299	3	1.12321	10	0.0127798
2	1	0	0	0	781.778	0.986476	0.986674	12.4496	3	1.13458	10	0.0122837
2	1	0	1	0	782.678	0.977473	0.978472	12.0648	3	1.1456	10	0.0118051
2	1	0	0	0	783.578	0.96847	0.968546	11.6798	3	1.15628	10	0.0113124
2	1	0	0	0	784.478	0.959467	0.959659	11.298	3	1.16662	10	0.0108422
2	1	0	1	0	785.379	0.950464	0.951309	10.9227	3	1.17662	10	0.0103909
2	1	0	1	0	786.279	0.941461	0.941648	10.5485	3	1.18629	10	0.00993301
2	1	0	0	0	787.179	0.932459	0.931952	10.176	3	1.19562	10	0.00948352
2	1	0	1	0	788.079	0.923456	0.923506	9.80724	3	1.20461	10	0.00905704
2	1	0	1	0	788.98	0.914453	0.915376	9.43823	3	1.21327	10	0.00863953
2	1	0	0	0	789.88	0.90545	0.9057	9.07213	3	1.22161	10	0.00821663
2	1	0	1	0	790.78	0.896448	0.89629	8.70644	3	1.22961	10	0.0078035
2	1	0	1	0	791.681	0.887445	0.888025	8.35137	3	1.2373	10	0.00741623
2	1	0	0	0	792.581	0.878442	0.879109	7.99214	3	1.24466	10	0.00702597
2	1	0	0	0	793.481	0.869439	0.869643	7.63813	3	1.2517	10	0.00664245
2	1	0	1	0	794.381	0.860436	0.860571	7.28854	3	1.25842	10	0.00627231
2	1	0	1	0	795.282	0.851434	0.851836	6.94231	3	1.26483	10	0.00591371
2	1	0	0	0	796.182	0.842431	0.84385	6.59905	3	1.27093	10	0.00556861
2	1	0	1	0	797.082	0.833428	0.833914	6.26126	3	1.27672	10	0.00522136
2	1	0	1	0	797.983	0.824425	0.825432	5.92554	3	1.28221	10	0.00489113
2	1	0	0	0	798.883	0.815422	0.815623	5.59455	3	1.2874	10	0.00456305
2	1	0	1	0	799.783	0.80642	0.807121	5.27015	3	1.29229	10	0.00425365
2	1	0	1	0	800.683	0.797417	0.798065	4.94879	3	1.29689	10	0.00394946
2	1	0	0	0	801.584	0.788414	0.789461	4.63083	3	1.3012	10	0.00365586
2	1	0	0	0	802.514	0.779111	0.779619	4.30816	3	1.30535	11	0.00335872
2	1	0	1	0	803.414	0.770108	0.771056	4.00318	3	1.3091	11	0.00308668
2	1	0	1	0	804.315	0.761106	0.761657	3.70466	3	1.31257	11	0.00282168
2	1	0	0	0	805.215	0.752103	0.752166	3.41184	3	1.31577	11	0.00256627
2	1	0	1	0	806.115	0.7431	0.743953	3.12361	3	1.31871	11	0.00232382
2	1	0	1	0	807.015	0.734097	0.734416	2.84224	3	1.32139	11	0.00208739
2	1	0	0	0	807.916	0.725095	0.725818	2.56931	3	1.32382	11	0.00186485
2	1	0	1	0	808.816	0.716092	0.716654	2.30677	3	1.32601	11	0.00165316
2	1	0	1	0	809.716	0.707089	0.70752	2.05697	3	1.32796	11	0.00145535
2	1	0	0	0	810.616	0.698086	0.697911	1.81418	3	1.3297	11	0.00126613
2	1	0	0	0	811.517	0.689083	0.689443	1.58415	3	1.33122	11	0.00109218
2	1	0	1	0	812.417	0.680081	0.680541	1.36481	3	1.33253	11	0.000928806
2	1	0	1	0	813.317	0.671078	0.671768	1.16034	3	1.33366	11	0.000779479
2	1	0	0	0	814.218	0.662075	0.662889	0.972658	3	1.33461	11	0.000644764
2	1	0	1	0	815.118	0.653072	0.652398	0.80196	3	1.3354	11	0.000523197
2	1	0	1	0	816.018	0.644069	0.644885	0.647562	3	1.33605	11	0.000417603
2	1	0	0	0	816.918	0.635067	0.635772	0.508312	3	1.33656	11	0.000323171
2	1	0	1	0	817.819	0.626064	0.626539	0.386559	3	1.33696	11	0.000242195
2	1	0	1	0	818.719	0.617061	0.617632	0.281143	3	1.33726	11	0.000173643
2	1	0	0	0	819.619	0.608058	0.609362	0.194798	3	1.33747	11	0.000118702
2	1	0	0	0	820.52	0.599055	0.599685	0.123071	3	1.33762	11	7.38036e-05
2	1	0	1	0	821.42	0.590053	0.590521	0.0623339	3	1.3377	11	3.68095e-05
2	1	0	1	0	822.32	0.581049	0.582431	0.0105922	3	1.33774	11	6.16922e-06
2	1	0	0	0	823.22	0.572047	0.572757	-0.0311043	3	1.33774	11	-1.78152e-05
2	1	0	1	0	824.121	0.563044	0.563851	-0.0605186	3	1.3377	11	-3.41235e-05
2	1	0	1	0	825.021	0.554042	0.554839	-0.0847057	3	1.33764	11	-4.6998e-05
2	1	0	0	0	825.921	0.545039	0.545062	-0.105167	3	1.33756	11	-5.73224e-05
2	1	0	1	0	826.821	0.536036	0.535991	-0.122088	3	1.33746	11	-6.5438e-05
2	0	0	1	0	827.722	0.527033	0.526952	-0.131999	3	1.33735	11	-6.95574e-05
2	1	0	0	0	828.622	0.51803	0.518326	-0.138703	3	1.33723	11	-7.18933e-05
2	0	0	0	0	829.522	0.509028	0.509813	-0.141864	3	1.3371	11	-7.23244e-05
2	0	0	1	0	830.423	0.500025	0.500616	-0.146974	3	1.33696	11	-7.35778e-05
2	0	0	0	0	831.323	0.491022	0.491062	-0.151463	3	1.33683	11	-7.43776e-05
2	0	0	0	0	832.223	0.482019	0.481576	-0.152529	3	1.33669	11	-7.34543e-05
2	0	0	1	0	833.123	0.473016	0.473168	-0.151119	3	1.33655	11	-7.15047e-05
2	0	0	1	0	834.024	0.464014	0.465048	-0.148885	3	1.3364	11	-6.92387e-05
2	0	0	0	0	834.924	0.455011	0.456261	-0.147634	3	1.33626	11	-6.73597e-05
2	0	0	1	0	835.824	0.446008	0.446716	-0.147371	3	1.33612	11	-6.5833e-05
2	0	0	1	0	836.725	0.437005	0.437348	-0.146373	3	1.33599	11	-6.40161e-05
2	0	0	0	0	837.625	0.428003	0.428423	-0.143808	3	1.33585	11	-6.16108e-05
2	0	0	0	0	838.525	0.419	0.419055	-0.140374	3	1.33572	11	-5.88246e-05
2	0	0	1	0	839.425	0.409997	0.409511	-0.137282	3	1.33559	11	-5.62184e-05
2	0	0	0	0	840.326	0.400994	0.401211	-0.135721	3	1.33546	11	-5.44529e-05
2	0	0	0	0	841.226	0.391991	0.392535	-0.135773	3	1.33534	11	-5.32958e-05
2	0	0	1	0	842.126	0.382989	0.38295	-0.132173	3	1.33522	11	-5.06158e-05
2	0	0	1	0	843.026	0.373987	0.375615	-0.126779	3	1.33511	11	-4.76203e-05
2	0	0	0	0	843.927	0.364983	0.365778	-0.123194	3	1.335	11	-4.50616e-05
2	1	0	1	0	844.827	0.35598	0.355815	-0.11999	3	1.33489	11	-4.26942e-05
2	0	0	1	0	845.727	0.346977	0.348241	-0.117251	3	1.33478	11	-4.08315e-05
2	1	0	0	0	846.628	0.337975	0.338318	-0.113307	3	1.33468	11	-3.83339e-05
2	0	0	1	0	847.528	0.328972	0.329789	-0.107165	3	1.33459	11	-3.5342e-05
2	1	0	1	0	848.428	0.319969	0.319742	-0.102869	3	1.33449	11	-3.28915e-05
2	0	0	0	0	849.328	0.310966	0.311912	-0.100063	3	1.3344	11	-3.12109e-05
2	1	0	0	0	850.229	0.301963	0.302186	-0.0976066	3	1.33432	11	-2.94954e-05
2	0	0	1	0	851.129	0.292961	0.29412	-0.0932919	3	1.33423	11	-2.7439e-05
2	0	0	1	0	852.029	0.283958	0.285051	-0.0884168	3	1.33415	11	-2.52033e-05
2	0	0	0	0	852.93	0.274955	0.275922	-0.0863821	3	1.33407	11	-2.38347e-05
2	0	0	1	0	853.83	0.265952	0.265593	-0.0845569	3	1.33399	11	-2.24577e-05
2	0	0	1	0	854.73	0.256949	0.257588	-0.0807453	3	1.33391	11	-2.07991e-05
2	0	0	0	0	855.63	0.247947	0.249072	-0.0770541	3	1.33384	11	-1.91921e-05
2	0	0	1	0	856.531	0.238944	0.240042	-0.075332	3	1.33377	11	-1.80828e-05
2	0	0	1	0	857.431	0.229941	0.230739	-0.0749813	3	1.33369	11	-1.73011e-05
2	0	0	0	0	858.346	0.220788	0.221726	-0.0825698	3	1.33362	11	-1.83079e-05
2	0	0	0	0	859.262	0.211635	0.210892	-0.0707299	3	1.33356	12	-1.49164e-05
2	0	0	1	0	860.162	0.202633	0.202408	-0.0682036	3	1.33349	12	-1.38049e-05
2	0	0	1	0	861.062	0.19363	0.193509	-0.0661012	3	1.33343	12	-1.27911e-05
2	0	0	0	0	861.962	0.184627	0.185509	-0.0657301	3	1.33337	12	-1.21935e-05
2	0	0	1	0	862.863	0.175624	0.176953	-0.065568	3	1.33331	12	-1.16025e-05
2	0	0	1	0	863.763	0.166621	0.166294	-0.0648217	3	1.33325	12	-1.07795e-05
2	0	0	0	0	864.663	0.157619	0.157693	-0.063633	3	1.33319	12	-1.00345e-05
2	0	0	1	0	865.563	0.148616	0.148456	-0.0619909	3	1.33313	12	-9.20292e-06
2	0	0	1	0	866.464	0.139613	0.140145	-0.0607095	3	1.33307	12	-8.50812e-06
2	0	0	0	0	867.364	0.13061	0.130899	-0.0597479	3	1.33302	12	-7.82092e-06
2	0	0	0	0	868.264	0.121608	0.122064	-0.0603509	3	1.33296	12	-7.36664e-06
2	0	0	1	0	869.165	0.112605	0.114363	-0.0603747	3	1.33291	12	-6.90465e-06
2	0	0	1	0	870.065	0.103602	0.104453	-0.0596748	3	1.33286	12	-6.23318e-06
2	0	0	0	0	870.965	0.0945992	0.0953634	-0.0591809	3	1.33281	12	-5.64369e-06
2	0	0	1	0	871.865	0.0855964	0.0872898	-0.057196	3	1.33275	12	-4.99263e-06
2	0	0	1	0	872.766	0.0765936	0.0763114	-0.055557	3	1.3327	12	-4.23963e-06
2	0	0	0	0	873.666	0.0675908	0.0681285	-0.0553415	3	1.33265	12	-3.77033e-06
2	0	0	1	0	874.566	0.0585876	0.0593169	-0.0541121	3	1.33261	12	-3.20976e-06
2	1	0	1	0	875.467	0.0495852	0.0495879	-0.0547005	3	1.33256	12	-2.71248e-06
2	0	0	0	0	876.367	0.0405825	0.0413064	-0.0548749	3	1.33251	12	-2.26668e-06
2	1	0	0	0	877.267	0.0315797	0.0326419	-0.053621	3	1.33246	12	-1.75029e-06
2	1	0	1	0	878.167	0.0225769	0.0226862	-0.0524679	3	1.33242	12	-1.1903e-06
2	0	0	1	0	879.068	0.0135734	0.0145526	-0.0510962	3	1.33237	12	-7.43582e-07
2	0	0	0	0	879.968	0.0045713	0.00498053	-0.0496275	3	1.33233	12	-2.47171e-07
2	0	0	0	1	880.779	0.00357099	0.00326184	-0.047902	3	1.33229	12	-1.56249e-07
2	0	0	1	1	881.679	0.0125738	0.0121025	-0.0463623	3	1.33224	12	-5.61098e-07
2	0	0	1	1	882.579	0.0215766	0.0217727	-0.0444374	3	1.33221	12	-9.67523e-07
2	1	0	0	1	883.48	0.0305794	0.0297222	-0.0417567	3	1.33217	12	-1.2411e-06
2	1	0	0	1	883.653	0.0323299	0.0304108	-0.0168144	3	1.33216	12	-5.11338e-07