File: Lares Oxides/2024-6-21 Co80Fe20Ox on FTO_1_00mg_02_CV_C05.mpt
EC-Lab ASCII FILE
Nb header lines : 59

Cyclic Voltammetry

Run on channel : 5 (SN 39658)
User :
CE vs. WE compliance from -10 V to 10 V
Electrode connection : standard
Potential control : Ewe
Ewe ctrl range : min = -2.50 V, max = 2.50 V
Safety Limits :
	Do not start on E overload
Acquisition started on : 06/21/2024 09:40:48.362
Technique started on : 06/21/2024 09:42:08.579
Loaded Setting File :  NONE
Saved on :
	File : 2024-6-21 Co80Fe20Ox on FTO_1_00mg_02_CV_C05.mpr
	Directory : C:\Users\sfolkman\OneDrive - New Mexico State University\Folkman Group Folder\Scott\
	Host : 172.24.124.15
Device : VSP (SN 1910)
Address : USB
EC-Lab for windows v11.46 (software)
Internet server v11.40 (firmware)
Command interpretor v11.40 (firmware)
Electrode material :
Initial state :
Electrolyte :
Comments :
Current amplifier : VSPB-4A
Electrode surface area : 0.001 cm²
Characteristic mass : 0.001 g
Equivalent Weight : 0.000 g/eq.
Density : 0.000 g/cm3
Volume (V) : 0.001 cm³
Cycle Definition : Charge/Discharge alternance
Ei (V)              0.000
vs.                 Eoc
dE/dt               10.000
dE/dt unit          mV/s
E1 (V)              1.000
vs.                 Ref
Step percent        50
N                   10
E range min (V)     -2.500
E range max (V)     2.500
I Range             Auto
I Range min         Unset
I Range max         Unset
I Range init        Unset
Bandwidth           4
E2 (V)              0.000
vs.                 Ref
nc cycles           2
Reverse Scan        1
Ef (V)              0.000
vs.                 Eoc

mode	ox/red	error	control changes	counter inc.	time/s	control/V	Ewe/V	<I>/mA	cycle number	(Q-Qo)/C	I Range	P/W
2	0	0	0	0	80.2168	0.0624392	0.0627412	-0.00525672	1	0.0000000E+000	13	-3.29813e-07
2	1	0	1	0	81.072	0.0709919	0.0715012	0.000212983	1	3.65476e-07	13	1.52285e-08
2	1	0	0	0	81.9722	0.0799947	0.080241	0.000311235	1	7.55888e-07	13	2.49738e-08
2	1	0	0	0	82.8726	0.0889975	0.0897978	0.000440205	1	1.21927e-06	13	3.95295e-08
2	1	0	1	0	83.7728	0.0980002	0.0982438	0.000575254	1	1.75952e-06	13	5.65151e-08
2	1	0	0	0	84.673	0.107003	0.10763	0.000694853	1	2.38227e-06	13	7.47869e-08
2	1	0	0	0	85.5734	0.116006	0.116344	0.00082224	1	3.09376e-06	13	9.56628e-08
2	1	0	1	0	86.4736	0.125009	0.125511	0.000939726	1	3.90214e-06	13	1.17946e-07
2	0	0	1	0	87.374	0.134011	0.134288	0.00105661	1	4.81493e-06	13	1.4189e-07
2	0	0	0	0	88.2742	0.143014	0.143499	0.00116349	1	5.84488e-06	13	1.6696e-07
2	0	0	1	0	89.1744	0.152017	0.152269	0.00133696	1	7.00143e-06	13	2.03578e-07
2	0	0	1	0	90.0748	0.16102	0.161333	0.00152298	1	8.29647e-06	13	2.45708e-07
2	0	0	0	0	90.975	0.170023	0.170363	0.00174781	1	9.74625e-06	13	2.97762e-07
2	0	0	0	0	91.8754	0.179025	0.179558	0.00201842	1	1.13662e-05	13	3.62423e-07
2	0	0	1	0	92.7756	0.188028	0.188319	0.00223477	1	1.31736e-05	13	4.20849e-07
2	0	0	0	0	93.6758	0.197031	0.197491	0.00248361	1	1.51918e-05	13	4.9049e-07
2	0	0	0	0	94.5762	0.206034	0.206361	0.00271466	1	1.74479e-05	13	5.602e-07
2	0	0	1	0	95.4764	0.215036	0.215722	0.00299015	1	1.99718e-05	13	6.45043e-07
2	0	0	1	0	96.3768	0.224039	0.22451	0.00334509	1	2.28039e-05	13	7.51005e-07
2	0	0	0	0	97.277	0.233042	0.233496	0.0037312	1	2.59887e-05	13	8.71221e-07
2	0	0	1	0	98.1772	0.242045	0.242489	0.00419666	1	2.95675e-05	13	1.01765e-06
2	0	0	1	0	99.0776	0.251048	0.251715	0.00469342	1	3.35795e-05	13	1.1814e-06
2	0	0	0	0	99.9778	0.26005	0.260464	0.00524191	1	3.80593e-05	13	1.36533e-06
2	0	0	1	0	100.878	0.269052	0.269641	0.00578406	1	4.30387e-05	13	1.55962e-06
2	0	0	1	0	101.778	0.278056	0.278448	0.00633888	1	4.85362e-05	13	1.76505e-06
2	0	0	0	0	102.679	0.287059	0.287885	0.00691333	1	5.45833e-05	13	1.99024e-06
2	0	0	0	0	103.579	0.296062	0.296611	0.00746146	1	6.12092e-05	13	2.21315e-06
2	0	0	1	0	104.479	0.305064	0.305466	0.00807142	1	6.84355e-05	13	2.46554e-06
2	0	0	1	0	105.38	0.314066	0.314605	0.00870744	1	7.63017e-05	13	2.73941e-06
2	1	0	0	0	106.28	0.32307	0.323454	0.00939934	1	8.48423e-05	13	3.04026e-06
2	1	0	1	0	107.18	0.332073	0.332406	0.0101623	1	9.4097e-05	13	3.37801e-06
2	1	0	1	0	108.08	0.341076	0.341634	0.0109156	1	0.000104109	13	3.72916e-06
2	1	0	0	0	108.981	0.350078	0.350474	0.0117462	1	0.000114921	13	4.11675e-06
2	1	0	1	0	109.881	0.359081	0.359559	0.0125593	1	0.000126589	13	4.51582e-06
2	1	0	1	0	110.781	0.368084	0.36828	0.0134585	1	0.000139164	13	4.9565e-06
2	1	0	0	0	111.711	0.377387	0.377786	0.0151507	1	0.000152766	12	5.72372e-06
2	1	0	0	0	112.612	0.38639	0.386912	0.016167	1	0.000167288	12	6.25521e-06
2	1	0	1	0	113.512	0.395392	0.395918	0.0172651	1	0.000182943	12	6.83557e-06
2	1	0	1	0	114.412	0.404394	0.404943	0.0183127	1	0.000199842	12	7.41558e-06
2	1	0	0	0	115.313	0.413398	0.413951	0.0197825	1	0.000218112	12	8.189e-06
2	1	0	1	0	116.213	0.422401	0.422906	0.0216441	1	0.000237894	12	9.15342e-06
2	1	0	1	0	117.113	0.431404	0.431473	0.02374	1	0.000259365	12	1.02432e-05
2	1	0	0	0	118.013	0.440406	0.44076	0.0256574	1	0.000282726	12	1.13088e-05
2	1	0	1	0	118.914	0.449409	0.449709	0.0280251	1	0.000308236	12	1.26032e-05
2	1	0	1	0	119.814	0.458412	0.45907	0.0311174	1	0.0003362	12	1.42851e-05
2	1	0	0	0	120.714	0.467415	0.467715	0.0346887	1	0.000366984	12	1.62244e-05
2	1	0	0	0	121.615	0.476417	0.477109	0.0388274	1	0.000401074	12	1.85249e-05
2	1	0	1	0	122.515	0.48542	0.485822	0.0435105	1	0.000439049	12	2.11384e-05
2	1	0	1	0	123.415	0.494423	0.495004	0.0491738	1	0.000481662	12	2.43412e-05
2	1	0	0	0	124.315	0.503426	0.504083	0.0564029	1	0.000529883	12	2.84318e-05
2	1	0	1	0	125.216	0.512429	0.513182	0.0651585	1	0.000584891	12	3.34381e-05
2	1	0	1	0	126.116	0.521431	0.521856	0.0754331	1	0.000648162	12	3.93652e-05
2	1	0	0	0	127.016	0.530434	0.531006	0.0876378	1	0.000721453	12	4.65362e-05
2	1	0	1	0	127.917	0.539437	0.539701	0.102452	1	0.000806892	12	5.52932e-05
2	1	0	1	0	128.817	0.54844	0.549016	0.120448	1	0.000906882	12	6.61282e-05
2	1	0	0	0	129.717	0.557443	0.558241	0.141875	1	0.00102432	12	7.92003e-05
2	1	0	0	0	130.617	0.566445	0.566963	0.166915	1	0.00116265	12	9.46347e-05
2	1	0	1	0	131.518	0.575448	0.576095	0.19656	1	0.00132566	12	0.000113237
2	1	0	1	0	132.418	0.584451	0.584952	0.231405	1	0.00151794	12	0.000135361
2	1	0	0	0	133.318	0.593454	0.594002	0.272937	1	0.00174478	12	0.000162125
2	1	0	1	0	134.218	0.602457	0.602958	0.322349	1	0.00201241	12	0.000194363
2	1	0	1	0	135.119	0.611459	0.611691	0.380658	1	0.00232845	12	0.000232845
2	1	0	0	0	136.019	0.620462	0.620815	0.450475	1	0.00270227	12	0.000279662
2	1	0	1	0	136.919	0.629466	0.630228	0.535285	1	0.00314588	12	0.000337351
2	1	0	1	0	137.82	0.638468	0.638786	0.638101	1	0.00367395	12	0.00040761
2	1	0	0	0	138.72	0.64747	0.647982	0.763131	1	0.00430477	12	0.000494495
2	1	0	0	0	139.62	0.656473	0.656978	0.913829	1	0.00506008	12	0.000600365
2	1	0	1	0	140.55	0.665776	0.666381	1.10027	1	0.00599821	11	0.000733201
2	1	0	1	0	141.451	0.67478	0.675291	1.31004	1	0.00708189	11	0.000884659
2	1	0	0	0	142.351	0.683782	0.684478	1.54799	1	0.00836768	11	0.00105956
2	1	0	1	0	143.251	0.692785	0.693345	1.81437	1	0.0098811	11	0.00125799
2	1	0	1	0	144.152	0.701787	0.702506	2.1064	1	0.0116468	11	0.00147976
2	1	0	0	0	145.052	0.71079	0.711425	2.42181	1	0.0136861	11	0.00172293
2	1	0	1	0	145.952	0.719794	0.720383	2.75701	1	0.016019	11	0.00198611
2	1	0	1	0	146.852	0.728796	0.729171	3.11158	1	0.0186626	11	0.00226887
2	1	0	0	0	147.753	0.737798	0.738394	3.48065	1	0.0216319	11	0.00257009
2	1	0	0	0	148.653	0.746801	0.747316	3.86398	1	0.0249415	11	0.00288762
2	1	0	1	0	149.553	0.755804	0.756097	4.25964	1	0.0286009	11	0.0032207
2	1	0	1	0	150.454	0.764808	0.765171	4.66479	1	0.0326215	11	0.00356936
2	1	0	0	0	151.354	0.77381	0.774273	5.08016	1	0.0370117	11	0.00393343
2	1	0	1	0	152.254	0.782812	0.783384	5.50443	1	0.041779	11	0.00431208
2	1	0	1	0	153.154	0.791815	0.792181	5.93501	1	0.0469316	11	0.0047016
2	1	0	0	0	154.055	0.800818	0.801461	6.37081	1	0.0524734	11	0.00510596
2	1	0	1	0	154.955	0.809821	0.81037	6.81311	1	0.058411	11	0.00552114
2	1	0	1	0	155.855	0.818824	0.819512	7.26079	1	0.0647499	11	0.0059503
2	1	0	0	0	156.755	0.827826	0.828488	7.71078	1	0.0714914	11	0.00638828
2	1	0	0	0	157.656	0.836829	0.837506	8.16656	1	0.0786423	11	0.00683954
2	1	0	1	0	158.556	0.845832	0.846344	8.62552	1	0.0862029	11	0.00730016
2	1	0	0	0	159.456	0.854835	0.855352	9.08658	1	0.0941767	11	0.00777222
2	1	0	0	0	160.357	0.863837	0.864105	9.55116	1	0.102569	11	0.0082532
2	1	0	1	0	161.257	0.87284	0.87342	10.016	1	0.111378	11	0.0087482
2	1	0	1	0	162.157	0.881843	0.882337	10.4856	1	0.120609	11	0.00925181
2	1	0	0	0	163.087	0.891146	0.891759	10.9609	1	0.130592	10	0.00977446
2	1	0	1	0	163.988	0.90015	0.900626	11.4331	1	0.140676	10	0.010297
2	1	0	1	0	164.888	0.909151	0.909741	11.9043	1	0.151185	10	0.0108299
2	1	0	0	0	165.788	0.918154	0.918725	12.3746	1	0.162116	10	0.0113689
2	1	0	0	0	166.689	0.927157	0.927508	12.8411	1	0.173471	10	0.0119102
2	1	0	1	0	167.589	0.93616	0.93659	13.3092	1	0.185243	10	0.0124653
2	1	0	0	0	168.489	0.945163	0.945795	13.774	1	0.197435	10	0.0130273
2	1	0	0	0	169.389	0.954165	0.95473	14.2307	1	0.210045	10	0.0135865
2	1	0	1	0	170.29	0.963168	0.963702	14.6816	1	0.223062	10	0.0141487
2	1	0	1	0	171.19	0.972171	0.972407	15.1325	1	0.236486	10	0.014715
2	1	0	0	0	172.09	0.981174	0.981759	15.573	1	0.250309	10	0.0152889
2	1	0	1	0	172.99	0.990177	0.990835	16.0023	1	0.264523	10	0.0158556
2	1	0	1	0	173.891	0.999179	0.999752	16.4195	1	0.279122	10	0.0164155
2	1	0	0	0	174.631	0.993478	0.994111	16.0361	1	0.291168	10	0.0159417
2	1	0	1	0	175.532	0.984475	0.984904	15.4553	1	0.305341	10	0.015222
2	1	0	1	0	176.432	0.975472	0.97587	14.8702	1	0.31899	10	0.0145114
2	1	0	0	0	177.332	0.966469	0.966875	14.2911	1	0.332114	10	0.0138177
2	1	0	0	0	178.233	0.957466	0.957912	13.7238	1	0.344725	10	0.0131462
2	1	0	1	0	179.133	0.948464	0.948925	13.1639	1	0.356826	10	0.0124915
2	1	0	1	0	180.033	0.939461	0.939994	12.6128	1	0.368427	10	0.0118559
2	1	0	0	0	180.933	0.930458	0.931068	12.0674	1	0.379536	10	0.0112356
2	1	0	1	0	181.834	0.921455	0.921812	11.5327	1	0.390155	10	0.010631
2	1	0	1	0	182.734	0.912453	0.91317	11.0081	1	0.400301	10	0.0100522
2	1	0	0	0	183.634	0.90345	0.903921	10.4973	1	0.409978	10	0.00948873
2	1	0	1	0	184.535	0.894446	0.894699	9.99083	1	0.419199	10	0.00893879
2	1	0	1	0	185.435	0.885444	0.885824	9.48733	1	0.427964	10	0.0084041
2	1	0	0	0	186.335	0.876441	0.876891	8.99852	1	0.436283	10	0.00789072
2	1	0	0	0	187.235	0.867439	0.867834	8.51499	1	0.444165	10	0.0073896
2	1	0	1	0	188.136	0.858436	0.859135	8.04443	1	0.451615	10	0.00691125
2	1	0	1	0	189.036	0.849432	0.849929	7.5806	1	0.458645	10	0.00644298
2	1	0	0	0	189.936	0.84043	0.840964	7.12863	1	0.465264	10	0.00599492
2	1	0	1	0	190.836	0.831427	0.83191	6.68453	1	0.471478	10	0.00556093
2	1	0	1	0	191.737	0.822425	0.822899	6.24875	1	0.477297	10	0.00514209
2	1	0	0	0	192.637	0.813422	0.814016	5.8253	1	0.482728	10	0.00474189
2	1	0	1	0	193.537	0.804418	0.804865	5.4081	1	0.487781	10	0.00435279
2	1	0	1	0	194.438	0.795416	0.795912	4.99845	1	0.492461	10	0.00397833
2	1	0	0	0	195.338	0.786413	0.786916	4.6003	1	0.496777	10	0.00362005
2	1	0	0	0	196.268	0.777111	0.777655	4.21656	1	0.500878	11	0.00327903
2	1	0	1	0	197.168	0.768108	0.768425	3.84196	1	0.504503	11	0.00295226
2	1	0	1	0	198.069	0.759104	0.759688	3.48173	1	0.507798	11	0.00264503
2	1	0	0	0	198.969	0.750102	0.750845	3.13392	1	0.510775	11	0.00235308
2	1	0	1	0	199.869	0.741099	0.74148	2.79765	1	0.513443	11	0.0020744
2	1	0	1	0	200.77	0.732097	0.732501	2.4717	1	0.515813	11	0.00181052
2	1	0	0	0	201.67	0.723094	0.723459	2.1637	1	0.517897	11	0.00156535
2	1	0	1	0	202.57	0.71409	0.714565	1.87445	1	0.519713	11	0.00133942
2	1	0	1	0	203.47	0.705088	0.705538	1.60388	1	0.521277	11	0.0011316
2	1	0	0	0	204.371	0.696085	0.696601	1.35258	1	0.522605	11	0.000942209
2	1	0	0	0	205.271	0.687083	0.687715	1.12349	1	0.523717	11	0.000772637
2	1	0	1	0	206.171	0.67808	0.678424	0.917415	1	0.524633	11	0.000622396
2	1	0	0	0	207.071	0.669077	0.669364	0.734497	1	0.525374	11	0.000491646
2	1	0	0	0	207.972	0.660074	0.660491	0.575982	1	0.525962	11	0.000380431
2	1	0	1	0	208.902	0.650771	0.651296	0.43713	1	0.52643	12	0.000284701
2	1	0	1	0	209.802	0.641769	0.64217	0.325719	1	0.526772	12	0.000209167
2	1	0	0	0	210.703	0.632766	0.633165	0.234912	1	0.527023	12	0.000148738
2	1	0	1	0	211.603	0.623763	0.624043	0.163026	1	0.527201	12	0.000101735
2	1	0	1	0	212.503	0.61476	0.615314	0.107063	1	0.527322	12	6.58774e-05
2	1	0	0	0	213.403	0.605758	0.606269	0.0641755	1	0.527398	12	3.89076e-05
2	1	0	0	0	214.304	0.596755	0.597132	0.0320017	1	0.527441	12	1.91093e-05
2	1	0	1	0	215.204	0.587752	0.587831	0.00817426	1	0.527458	12	4.80508e-06
2	1	0	1	0	216.104	0.578748	0.579154	-0.00949054	1	0.527457	12	-5.49648e-06
2	1	0	0	0	217.005	0.569746	0.570071	-0.021855	1	0.527443	12	-1.24589e-05
2	0	0	1	0	217.905	0.560744	0.561232	-0.0306599	1	0.527418	12	-1.72073e-05
2	0	0	1	0	218.805	0.551741	0.552216	-0.0367072	1	0.527387	12	-2.02703e-05
2	0	0	0	0	219.705	0.542738	0.543258	-0.040659	1	0.527352	12	-2.20883e-05
2	0	0	1	0	220.606	0.533735	0.534259	-0.0430564	1	0.527314	12	-2.30033e-05
2	0	0	1	0	221.506	0.524732	0.525015	-0.0440586	1	0.527274	12	-2.31315e-05
2	0	0	0	0	222.406	0.51573	0.516174	-0.0442587	1	0.527233	12	-2.28452e-05
2	0	0	0	0	223.307	0.506727	0.506876	-0.0434908	1	0.527193	12	-2.20444e-05
2	0	0	1	0	224.207	0.497724	0.498303	-0.0422848	1	0.527154	12	-2.10707e-05
2	0	0	0	0	225.107	0.488721	0.488944	-0.0407486	1	0.527115	12	-1.99238e-05
2	0	0	0	0	226.007	0.479719	0.479951	-0.0387201	1	0.527079	12	-1.85837e-05
2	0	0	1	0	226.908	0.470716	0.471282	-0.0369455	1	0.527043	12	-1.74118e-05
2	0	0	1	0	227.808	0.461714	0.462574	-0.0349173	1	0.52701	12	-1.61518e-05
2	0	0	0	0	228.708	0.45271	0.453082	-0.0332652	1	0.526978	12	-1.50719e-05
2	0	0	1	0	229.608	0.443707	0.444131	-0.0314205	1	0.526947	12	-1.39548e-05
2	0	0	1	0	230.509	0.434705	0.435102	-0.0299263	1	0.526919	12	-1.3021e-05
2	0	0	0	0	231.409	0.425702	0.426046	-0.0282116	1	0.526892	12	-1.20194e-05
2	0	0	1	0	232.309	0.4167	0.416943	-0.0266006	1	0.526866	12	-1.10909e-05
2	0	0	1	0	233.21	0.407696	0.408428	-0.0250024	1	0.526842	12	-1.02117e-05
2	0	0	0	0	234.11	0.398693	0.399265	-0.0236469	1	0.52682	12	-9.44138e-06
2	0	0	0	0	235.01	0.389691	0.39008	-0.0222377	1	0.526798	12	-8.67447e-06
2	0	0	1	0	235.91	0.380688	0.381422	-0.021209	1	0.526778	12	-8.08957e-06
2	0	0	1	0	236.811	0.371686	0.372086	-0.0200918	1	0.526758	12	-7.47586e-06
2	0	0	0	0	237.711	0.362682	0.363014	-0.0193851	1	0.52674	12	-7.03707e-06
2	0	0	1	0	238.611	0.353679	0.354078	-0.0184731	1	0.526722	12	-6.54091e-06
2	0	0	1	0	239.512	0.344677	0.345027	-0.0178095	1	0.526706	12	-6.14475e-06
2	0	0	0	0	240.412	0.335674	0.336374	-0.0171001	1	0.52669	12	-5.75204e-06
2	0	0	1	0	241.312	0.326672	0.327146	-0.0161959	1	0.526674	12	-5.2984e-06
2	0	0	1	0	242.212	0.317668	0.318232	-0.0155893	1	0.52666	12	-4.96101e-06
2	0	0	0	0	243.128	0.308515	0.308642	-0.0142686	1	0.526645	12	-4.40389e-06
2	0	0	0	0	244.043	0.299363	0.299766	-0.0137842	1	0.526632	13	-4.13204e-06
2	0	0	1	0	244.943	0.29036	0.290631	-0.0132901	1	0.526619	13	-3.86251e-06
2	0	0	1	0	245.843	0.281357	0.281734	-0.0128464	1	0.526606	13	-3.61927e-06
2	0	0	0	0	246.744	0.272354	0.272646	-0.0124421	1	0.526595	13	-3.39229e-06
2	0	0	1	0	247.644	0.263351	0.264106	-0.0120952	1	0.526583	13	-3.19441e-06
2	0	0	1	0	248.544	0.254349	0.254731	-0.0117847	1	0.526572	13	-3.00193e-06
2	0	0	0	0	249.445	0.245346	0.245728	-0.0114988	1	0.526561	13	-2.82559e-06
2	0	0	1	0	250.345	0.236344	0.236791	-0.0111891	1	0.52655	13	-2.64948e-06
2	0	0	1	0	251.245	0.22734	0.227876	-0.0109067	1	0.52654	13	-2.48538e-06
2	0	0	0	0	252.145	0.218338	0.218664	-0.0106276	1	0.52653	13	-2.32388e-06
2	0	0	0	0	253.046	0.209335	0.209948	-0.0103543	1	0.52652	13	-2.17386e-06
2	0	0	1	0	253.946	0.200332	0.200696	-0.0100968	1	0.526511	13	-2.02638e-06
2	0	0	1	0	254.846	0.191329	0.191536	-0.00985308	1	0.526502	13	-1.88722e-06
2	0	0	0	0	255.747	0.182326	0.183082	-0.00962471	1	0.526493	13	-1.76211e-06
2	0	0	1	0	256.647	0.173324	0.173921	-0.00944457	1	0.526484	13	-1.64261e-06
2	0	0	1	0	257.547	0.164321	0.164781	-0.00927472	1	0.526476	13	-1.5283e-06
2	0	0	0	0	258.447	0.155318	0.155622	-0.00910448	1	0.526467	13	-1.41686e-06
2	0	0	1	0	259.348	0.146315	0.146931	-0.00903797	1	0.526459	13	-1.32796e-06
2	0	0	1	0	260.248	0.137312	0.137761	-0.00906238	1	0.52645	13	-1.24844e-06
2	0	0	0	0	261.148	0.12831	0.128545	-0.0090608	1	0.526442	13	-1.16472e-06
2	0	0	0	0	262.049	0.119307	0.120004	-0.00899353	1	0.526434	13	-1.07926e-06
2	0	0	1	0	262.949	0.110304	0.110524	-0.00876301	1	0.526426	13	-9.68522e-07
2	0	0	1	0	263.849	0.101301	0.101615	-0.00859045	1	0.526418	13	-8.72923e-07
2	0	0	0	0	264.749	0.0922985	0.092728	-0.00845551	1	0.526411	13	-7.84063e-07
2	0	0	1	0	265.65	0.0832957	0.0834747	-0.0083383	1	0.526403	13	-6.96037e-07
2	0	0	1	0	266.55	0.0742929	0.0744166	-0.00816256	1	0.526396	13	-6.0743e-07
2	0	0	0	0	267.45	0.0652901	0.0660194	-0.0080102	1	0.526388	13	-5.28829e-07
2	0	0	1	0	268.35	0.0562867	0.0566208	-0.00784544	1	0.526381	13	-4.44215e-07
2	0	0	1	0	269.251	0.0472845	0.0477971	-0.00767945	1	0.526374	13	-3.67055e-07
2	0	0	0	0	270.151	0.0382817	0.0387538	-0.00752969	1	0.526368	13	-2.91804e-07
2	0	0	0	0	271.051	0.029279	0.0298686	-0.00740526	1	0.526361	13	-2.21185e-07
2	0	0	1	0	271.952	0.0202762	0.0204668	-0.00728193	1	0.526354	13	-1.49038e-07
2	0	0	1	0	272.852	0.0112725	0.0116727	-0.00718671	1	0.526348	13	-8.38881e-08
2	0	0	0	0	273.752	0.00227059	0.00256482	-0.00701615	1	0.526342	13	-1.79951e-08
2	0	0	0	1	274.533	0.00557161	0.00581123	-0.00631106	1	0.526336	13	-3.6675e-08
2	1	0	1	1	275.433	0.0145744	0.0151537	-0.00587323	1	0.526331	13	-8.9001e-08
2	0	0	1	1	276.333	0.0235774	0.0238812	-0.005587	1	0.526326	13	-1.33424e-07
2	1	0	0	1	277.234	0.03258	0.0326684	-0.00539721	1	0.526321	13	-1.76318e-07
2	0	0	1	1	278.134	0.0415828	0.0418252	-0.00522493	1	0.526317	13	-2.18533e-07
2	0	0	1	1	279.034	0.0505856	0.0510615	-0.00499049	1	0.526312	13	-2.54822e-07
2	0	0	0	1	279.935	0.0595883	0.0600486	-0.00474166	1	0.526308	13	-2.8473e-07
2	0	0	1	1	280.655	0.0667906	0.0670825	-0.00436981	2	0.526305	13	-2.93137e-07
2	0	0	1	1	281.555	0.0757934	0.0761066	-0.00420349	2	0.526301	13	-3.19914e-07
2	0	0	0	1	282.455	0.0847962	0.0854332	-0.00410047	2	0.526297	13	-3.50316e-07
2	0	0	1	1	283.356	0.0937989	0.094313	-0.00400969	2	0.526293	13	-3.78166e-07
2	0	0	1	1	284.256	0.102802	0.103226	-0.00388625	2	0.52629	13	-4.01162e-07
2	0	0	0	1	285.156	0.111805	0.11235	-0.00372091	2	0.526286	13	-4.18043e-07
2	0	0	0	1	286.057	0.120807	0.12108	-0.00350939	2	0.526283	13	-4.24917e-07
2	0	0	1	1	286.957	0.12981	0.130315	-0.00337867	2	0.52628	13	-4.40292e-07
2	0	0	0	1	287.857	0.138813	0.139356	-0.0032766	2	0.526277	13	-4.56615e-07
2	0	0	0	1	288.757	0.147816	0.148316	-0.0032464	2	0.526274	13	-4.81492e-07
2	0	0	1	1	289.658	0.156818	0.157501	-0.00320983	2	0.526271	13	-5.05553e-07
2	0	0	1	1	290.558	0.165821	0.166222	-0.0031553	2	0.526268	13	-5.24481e-07
2	0	0	0	1	291.458	0.174824	0.175353	-0.00308024	2	0.526266	13	-5.40131e-07
2	0	0	1	1	292.358	0.183827	0.184187	-0.00298468	2	0.526263	13	-5.49738e-07
2	0	0	1	1	293.259	0.19283	0.193392	-0.00287676	2	0.526261	13	-5.56343e-07
2	0	0	0	1	294.159	0.201832	0.202298	-0.00274648	2	0.526258	13	-5.55606e-07
2	0	0	1	1	295.059	0.210835	0.211207	-0.00267116	2	0.526256	13	-5.64168e-07
2	0	0	1	1	295.96	0.219838	0.220019	-0.00257528	2	0.526254	13	-5.66611e-07
2	1	0	0	1	296.86	0.228841	0.229163	-0.00250499	2	0.526252	13	-5.74052e-07
2	1	0	0	1	297.76	0.237844	0.238128	-0.00244523	2	0.52625	13	-5.82277e-07
2	1	0	1	1	298.66	0.246846	0.24743	-0.00235943	2	0.526249	13	-5.83795e-07
2	1	0	1	1	299.561	0.255849	0.256241	-0.00225307	2	0.526247	13	-5.77329e-07
2	1	0	0	1	300.461	0.264852	0.265257	-0.00212246	2	0.526245	13	-5.62996e-07
2	1	0	1	1	301.361	0.273855	0.274251	-0.00200374	2	0.526244	13	-5.49529e-07
2	1	0	1	1	302.262	0.282858	0.283641	-0.00181816	2	0.526243	13	-5.15705e-07
2	1	0	0	1	303.162	0.29186	0.292137	-0.00168139	2	0.526242	13	-4.91195e-07
2	1	0	1	1	304.062	0.300863	0.301302	-0.00154389	2	0.526241	13	-4.65179e-07
2	1	0	1	1	304.962	0.309866	0.310282	-0.00140869	2	0.52624	13	-4.37091e-07
2	1	0	0	1	305.863	0.318869	0.319184	-0.00125071	2	0.526239	13	-3.99206e-07
2	1	0	0	1	306.763	0.327871	0.328375	-0.0011335	2	0.526238	13	-3.72214e-07
2	1	0	1	1	307.663	0.336874	0.337032	-0.000994445	2	0.526238	13	-3.3516e-07
2	1	0	1	1	308.563	0.345877	0.346594	-0.000843969	2	0.526238	13	-2.92515e-07
2	1	0	0	1	309.464	0.35488	0.355331	-0.000637216	2	0.526238	13	-2.26423e-07
2	1	0	1	1	310.364	0.363883	0.364332	-0.000433454	2	0.526238	13	-1.57921e-07
2	1	0	1	1	311.264	0.372885	0.373097	-0.000147756	2	0.526238	13	-5.51272e-08
2	1	0	0	1	312.165	0.381888	0.382353	0.000124989	2	0.526239	13	4.77899e-08
2	1	0	1	1	313.065	0.390892	0.391499	0.000453209	2	0.526239	13	1.77431e-07
2	1	0	1	1	313.965	0.399894	0.400499	0.000814087	2	0.52624	13	3.26041e-07
2	1	0	0	1	314.865	0.408897	0.409646	0.00117938	2	0.526242	13	4.83126e-07
2	1	0	0	1	315.766	0.417899	0.418316	0.00163585	2	0.526243	13	6.84303e-07
2	1	0	1	1	316.666	0.426902	0.427325	0.00212413	2	0.526246	13	9.07692e-07
2	1	0	1	1	317.566	0.435906	0.43632	0.00268948	2	0.526248	13	1.17348e-06
2	1	0	0	1	318.467	0.444908	0.445644	0.00338499	2	0.526251	13	1.5085e-06
2	1	0	1	1	319.367	0.45391	0.454226	0.00418099	2	0.526255	13	1.89912e-06
2	1	0	1	1	320.267	0.462913	0.463128	0.00518896	2	0.52626	13	2.40315e-06
2	1	0	0	1	321.167	0.471916	0.472091	0.00638041	2	0.526266	13	3.01213e-06
2	1	0	1	1	322.098	0.481219	0.481607	0.00726352	2	0.526273	12	3.49816e-06
2	1	0	1	1	322.998	0.490222	0.490636	0.0089564	2	0.526281	12	4.39433e-06
2	1	0	0	1	323.898	0.499225	0.499784	0.011137	2	0.526292	12	5.56612e-06
2	1	0	0	1	324.799	0.508227	0.508708	0.0139045	2	0.526304	12	7.07334e-06
2	1	0	1	1	325.699	0.51723	0.517642	0.0172827	2	0.526319	12	8.94623e-06
2	1	0	0	1	326.599	0.526233	0.526511	0.0214431	2	0.526338	12	1.129e-05
2	1	0	0	1	327.499	0.535236	0.535399	0.026749	2	0.526361	12	1.43214e-05
2	1	0	1	1	328.4	0.544238	0.544814	0.0328722	2	0.526389	12	1.79092e-05
2	1	0	1	1	329.3	0.553241	0.553913	0.0402491	2	0.526423	12	2.22945e-05
2	1	0	0	1	330.2	0.562244	0.562747	0.0488698	2	0.526464	12	2.75013e-05
2	1	0	1	1	331.1	0.571247	0.571847	0.0587305	2	0.526513	12	3.35849e-05
2	1	0	1	1	332.001	0.58025	0.580517	0.070362	2	0.526573	12	4.08463e-05
2	1	0	0	1	332.901	0.589252	0.589924	0.0835868	2	0.526643	12	4.93099e-05
2	1	0	0	1	333.801	0.598255	0.598568	0.0990167	2	0.526726	12	5.92682e-05
2	1	0	1	1	334.702	0.607258	0.60768	0.117067	2	0.526824	12	7.11391e-05
2	1	0	0	1	335.602	0.616261	0.616592	0.139038	2	0.52694	12	8.57299e-05
2	1	0	0	1	336.502	0.625264	0.625706	0.166688	2	0.527078	12	0.000104298
2	1	0	1	1	337.402	0.634266	0.634648	0.202428	2	0.527245	12	0.000128471
2	1	0	1	1	338.303	0.643269	0.643702	0.249766	2	0.527449	12	0.000160775
2	1	0	0	1	339.203	0.652272	0.652726	0.312574	2	0.527702	12	0.000204026
2	1	0	1	1	340.103	0.661275	0.661791	0.393729	2	0.528019	12	0.000260566
2	1	0	1	1	341.004	0.670277	0.670775	0.497116	2	0.528419	12	0.000333453
2	1	0	0	1	341.904	0.67928	0.679555	0.624369	2	0.528923	12	0.000424293
2	1	0	1	1	342.804	0.688282	0.68868	0.776671	2	0.529552	12	0.000534878
2	1	0	1	1	343.704	0.697286	0.697726	0.954602	2	0.53033	12	0.000666051
2	1	0	0	1	344.635	0.706589	0.706819	1.16231	2	0.531315	11	0.000821544
2	1	0	0	1	345.535	0.715591	0.716099	1.38935	2	0.532464	11	0.000994909
2	1	0	1	1	346.435	0.724594	0.725163	1.63807	2	0.533827	11	0.00118787
2	1	0	1	1	347.336	0.733597	0.733985	1.90689	2	0.535423	11	0.00139963
2	1	0	0	1	348.236	0.7426	0.743076	2.19318	2	0.537269	11	0.0016297
2	1	0	1	1	349.136	0.751603	0.751981	2.49605	2	0.539379	11	0.00187698
2	1	0	1	1	350.036	0.760606	0.761139	2.81207	2	0.541769	11	0.00214038
2	1	0	0	1	350.937	0.769608	0.770083	3.14177	2	0.544449	11	0.00241943
2	1	0	0	1	351.837	0.778611	0.779016	3.48237	2	0.547431	11	0.00271282
2	1	0	1	1	352.737	0.787614	0.788217	3.83156	2	0.550724	11	0.0030201
2	1	0	0	1	353.637	0.796617	0.79688	4.18908	2	0.554335	11	0.00333819
2	1	0	0	1	354.538	0.805619	0.806078	4.55205	2	0.55827	11	0.00366931
2	1	0	1	1	355.438	0.814622	0.815229	4.91586	2	0.562532	11	0.00400755
2	1	0	1	1	356.338	0.823624	0.824277	5.289	2	0.567126	11	0.00435959
2	1	0	0	1	357.239	0.832628	0.833053	5.66407	2	0.572057	11	0.00471847
2	1	0	1	1	358.139	0.841631	0.842127	6.038	2	0.577323	11	0.00508476
2	1	0	1	1	359.039	0.850633	0.851131	6.41416	2	0.582929	11	0.00545929
2	1	0	0	1	359.939	0.859636	0.860093	6.79149	2	0.588874	11	0.00584131
2	1	0	1	1	360.84	0.868638	0.869363	7.16744	2	0.595159	11	0.00623111
2	1	0	1	1	361.74	0.877642	0.878217	7.53971	2	0.60178	11	0.00662151
2	1	0	0	1	362.64	0.886645	0.88713	7.91133	2	0.608734	11	0.00701838
2	1	0	0	1	363.541	0.895647	0.896104	8.27327	2	0.616023	11	0.00741371
2	1	0	1	1	364.441	0.90465	0.905079	8.64389	2	0.623637	11	0.0078234
2	1	0	1	1	365.341	0.913652	0.914215	9.01232	2	0.631588	11	0.00823919
2	1	0	0	1	366.241	0.922656	0.923022	9.36188	2	0.639863	11	0.00864122
2	1	0	1	1	367.142	0.931659	0.932137	9.70615	2	0.648446	11	0.00904747
2	1	0	1	1	368.042	0.940661	0.941278	10.0465	2	0.65734	11	0.00945651
2	1	0	0	1	368.942	0.949664	0.950265	10.3886	2	0.666538	11	0.00987192
2	1	0	1	1	369.842	0.958667	0.959195	10.7213	2	0.676041	11	0.0102838
2	1	0	1	1	370.773	0.96797	0.968511	11.0701	2	0.686176	10	0.0107215
2	1	0	0	1	371.673	0.976973	0.977567	11.4206	2	0.6963	10	0.0111644
2	1	0	0	1	372.573	0.985975	0.986664	11.7611	2	0.70674	10	0.0116042
2	1	0	1	1	373.474	0.994978	0.995564	12.133	2	0.717491	10	0.0120792
2	1	0	1	1	374.234	0.997479	0.998013	12.1835	2	0.726804	10	0.0121593
2	1	0	0	1	375.135	0.988476	0.989344	11.6364	2	0.737525	10	0.0115124
2	1	0	1	1	376.035	0.979473	0.980095	11.1265	2	0.747768	10	0.010905
2	1	0	1	1	376.935	0.97047	0.970983	10.6358	2	0.757562	10	0.0103272
2	1	0	0	1	377.835	0.961468	0.962129	10.1495	2	0.766915	10	0.00976516
2	1	0	1	1	378.736	0.952465	0.95287	9.70147	2	0.77585	10	0.00924424
2	1	0	1	1	379.636	0.943462	0.943832	9.28234	2	0.784391	10	0.00876097
2	1	0	0	1	380.536	0.934459	0.934807	8.85892	2	0.792561	10	0.00828138
2	1	0	0	1	381.437	0.925457	0.925987	8.40133	2	0.80033	10	0.00777953
2	1	0	1	1	382.337	0.916454	0.916912	7.94865	2	0.807688	10	0.00728821
2	1	0	1	1	383.237	0.907451	0.907916	7.50548	2	0.814642	10	0.00681435
2	1	0	0	1	384.137	0.898448	0.89898	7.06647	2	0.821199	10	0.00635262
2	1	0	1	1	385.038	0.889445	0.889848	6.64581	2	0.827368	10	0.00591376
2	1	0	1	1	385.938	0.880443	0.880903	6.22484	2	0.833159	10	0.00548348
2	1	0	0	1	386.838	0.87144	0.872054	5.81165	2	0.838576	10	0.00506808
2	1	0	1	1	387.738	0.862436	0.863052	5.41208	2	0.843629	10	0.00467091
2	1	0	1	1	388.639	0.853434	0.85389	5.01689	2	0.848321	10	0.00428387
2	1	0	0	1	389.539	0.844431	0.84488	4.63226	2	0.852661	10	0.0039137
2	1	0	0	1	390.469	0.835129	0.835658	4.24244	2	0.856787	11	0.00354523
2	1	0	1	1	391.37	0.826126	0.8266	3.87487	2	0.860439	11	0.00320297
2	1	0	1	1	392.27	0.817122	0.817658	3.51761	2	0.863764	11	0.0028762
2	1	0	0	1	393.17	0.80812	0.808609	3.17219	2	0.866771	11	0.00256506
2	1	0	1	1	394.07	0.799117	0.799635	2.8424	2	0.869475	11	0.00227288
2	1	0	1	1	394.971	0.790115	0.790533	2.52266	2	0.871888	11	0.00199425
2	1	0	0	1	395.871	0.781112	0.781587	2.21673	2	0.874017	11	0.00173256
2	1	0	1	1	396.771	0.772109	0.772727	1.92674	2	0.875879	11	0.00148884
2	1	0	1	1	397.672	0.763106	0.763613	1.65997	2	0.87749	11	0.00126758
2	1	0	0	1	398.572	0.754103	0.754482	1.41103	2	0.878867	11	0.00106459
2	1	0	0	1	399.472	0.745101	0.745499	1.18145	2	0.880031	11	0.000880772
2	1	0	1	1	400.372	0.736098	0.736597	0.970683	2	0.880995	11	0.000715002
2	1	0	1	1	401.273	0.727094	0.727603	0.781031	2	0.88178	11	0.00056828
2	1	0	0	1	402.173	0.718092	0.718417	0.620673	2	0.882408	11	0.000445902
2	1	0	1	1	403.073	0.70909	0.709447	0.484563	2	0.882903	11	0.000343772
2	1	0	1	1	404.004	0.699787	0.700352	0.369903	2	0.883297	12	0.000259063
2	1	0	0	1	404.904	0.690784	0.691392	0.278883	2	0.883586	12	0.000192817
2	1	0	1	1	405.804	0.68178	0.682069	0.207205	2	0.883802	12	0.000141328
2	1	0	1	1	406.704	0.672778	0.673368	0.152405	2	0.883962	12	0.000102625
2	1	0	0	1	407.605	0.663776	0.664309	0.109909	2	0.884078	12	7.30138e-05
2	1	0	0	1	408.505	0.654773	0.655203	0.078103	2	0.884162	12	5.11733e-05
2	1	0	1	1	409.405	0.64577	0.64619	0.0547771	2	0.88422	12	3.53964e-05
2	1	0	1	1	410.305	0.636766	0.637238	0.0376691	2	0.884261	12	2.40042e-05
2	1	0	0	1	411.206	0.627764	0.628006	0.0250302	2	0.884289	12	1.57191e-05
2	1	0	1	1	412.106	0.618762	0.619275	0.0156453	2	0.884306	12	9.68876e-06
2	1	0	1	1	413.006	0.609759	0.610361	0.00874121	2	0.884317	12	5.33529e-06
2	1	0	0	1	413.907	0.600756	0.601112	0.00405017	2	0.884323	12	2.43461e-06
2	1	0	1	1	414.807	0.591753	0.59206	0.000751766	2	0.884325	12	4.4509e-07
2	1	0	1	1	415.707	0.58275	0.583278	-0.00146023	2	0.884325	12	-8.51719e-07
2	1	0	0	1	416.607	0.573748	0.574003	-0.00282609	2	0.884323	12	-1.62218e-06
2	1	0	0	1	417.508	0.564745	0.565119	-0.00401247	2	0.88432	12	-2.26752e-06
2	1	0	1	1	418.408	0.555742	0.556062	-0.00501601	2	0.884315	12	-2.78921e-06
2	1	0	0	1	419.308	0.546739	0.547103	-0.00555065	2	0.884311	12	-3.03677e-06
2	1	0	0	1	420.209	0.537736	0.538006	-0.00595618	2	0.884306	12	-3.20446e-06
2	1	0	1	1	421.109	0.528734	0.529375	-0.00605668	2	0.8843	12	-3.20625e-06
2	0	0	1	1	422.009	0.519732	0.520193	-0.00591606	2	0.884295	12	-3.07749e-06
2	1	0	0	1	422.909	0.510728	0.511198	-0.00567332	2	0.88429	12	-2.90019e-06
2	1	0	1	1	423.81	0.501725	0.502089	-0.0055097	2	0.884284	12	-2.76636e-06
2	1	0	1	1	424.71	0.492723	0.493465	-0.00519378	2	0.884279	12	-2.56295e-06
2	0	0	0	1	425.61	0.48372	0.484036	-0.00496903	2	0.884274	12	-2.40519e-06
2	0	0	1	1	426.51	0.474718	0.475117	-0.00491617	2	0.884269	12	-2.33575e-06
2	0	0	1	1	427.411	0.465714	0.466298	-0.00474238	2	0.884264	12	-2.21136e-06
2	1	0	0	1	428.311	0.456711	0.45714	-0.00460509	2	0.88426	12	-2.10517e-06
2	0	0	0	1	429.211	0.447709	0.447989	-0.0043131	2	0.884256	12	-1.93222e-06
2	1	0	1	1	430.142	0.438406	0.439104	-0.004248	2	0.884251	13	-1.86531e-06
2	1	0	1	1	431.042	0.429403	0.43	-0.00399551	2	0.884247	13	-1.71807e-06
2	1	0	0	1	431.942	0.4204	0.420783	-0.00376669	2	0.884244	13	-1.58496e-06
2	1	0	1	1	432.842	0.411397	0.411939	-0.00358057	2	0.88424	13	-1.47498e-06
2	1	0	1	1	433.743	0.402395	0.40283	-0.00337432	2	0.884237	13	-1.35928e-06
2	1	0	0	1	434.643	0.393392	0.394017	-0.00319181	2	0.884234	13	-1.25763e-06
2	1	0	0	1	435.543	0.384389	0.384888	-0.00300273	2	0.884231	13	-1.15572e-06
2	1	0	1	1	436.444	0.375386	0.376062	-0.00286933	2	0.884228	13	-1.07904e-06
2	1	0	0	1	437.344	0.366383	0.366861	-0.00275	2	0.884225	13	-1.00887e-06
2	1	0	0	1	438.244	0.357381	0.357678	-0.00245036	2	0.884222	13	-8.76439e-07
2	0	0	1	1	439.144	0.348378	0.348931	-0.00251206	2	0.884219	13	-8.76538e-07
2	0	0	1	1	440.045	0.339376	0.339985	-0.0024232	2	0.884217	13	-8.23852e-07
2	0	0	0	1	440.945	0.330372	0.330825	-0.00232901	2	0.884214	13	-7.70496e-07
2	0	0	1	1	441.845	0.321369	0.321617	-0.00221735	2	0.884212	13	-7.13137e-07
2	0	0	1	1	442.746	0.312367	0.312619	-0.00209986	2	0.88421	13	-6.56458e-07
2	0	0	0	1	443.646	0.303364	0.303791	-0.00201229	2	0.884207	13	-6.11316e-07
2	0	0	1	1	444.546	0.294362	0.294763	-0.00189984	2	0.884205	13	-5.60004e-07
2	0	0	1	1	445.446	0.285358	0.285692	-0.00182081	2	0.884203	13	-5.20192e-07
2	0	0	0	1	446.347	0.276355	0.276869	-0.00177053	2	0.884201	13	-4.90204e-07
2	0	0	0	1	447.247	0.267353	0.267565	-0.0017644	2	0.884199	13	-4.72093e-07
2	0	0	1	1	448.147	0.25835	0.25895	-0.00175405	2	0.884197	13	-4.54211e-07
2	0	0	1	1	449.047	0.249347	0.24985	-0.0017438	2	0.884195	13	-4.35688e-07
2	0	0	0	1	449.948	0.240344	0.240831	-0.00172979	2	0.884193	13	-4.16587e-07
2	0	0	1	1	450.848	0.231342	0.231704	-0.0016937	2	0.884191	13	-3.92436e-07
2	0	0	1	1	451.748	0.222339	0.222854	-0.00166666	2	0.884189	13	-3.71422e-07
2	0	0	0	1	452.649	0.213336	0.213639	-0.00162065	2	0.884187	13	-3.46234e-07
2	0	0	1	1	453.549	0.204333	0.205099	-0.00160072	2	0.884185	13	-3.28306e-07
2	0	0	1	1	454.449	0.19533	0.195803	-0.0016022	2	0.884183	13	-3.13714e-07
2	0	0	0	1	455.349	0.186328	0.186788	-0.0016054	2	0.884182	13	-2.9987e-07
2	0	0	0	1	456.25	0.177325	0.177797	-0.00165731	2	0.88418	13	-2.94665e-07
2	0	0	1	1	457.15	0.168322	0.168711	-0.00167157	2	0.884178	13	-2.82013e-07
2	0	0	1	1	458.05	0.159319	0.159873	-0.00171308	2	0.884176	13	-2.73875e-07
2	0	0	0	1	458.951	0.150316	0.150711	-0.00172451	2	0.884175	13	-2.59903e-07
2	0	0	1	1	459.851	0.141314	0.141796	-0.00171847	2	0.884173	13	-2.43671e-07
2	0	0	1	1	460.751	0.132311	0.132724	-0.00170697	2	0.884171	13	-2.26556e-07
2	0	0	0	1	461.651	0.123308	0.123994	-0.00177609	2	0.884169	13	-2.20225e-07
2	0	0	1	1	462.552	0.114305	0.1146	-0.001936	2	0.884167	13	-2.21865e-07
2	1	0	1	1	463.452	0.105303	0.10582	-0.00189899	2	0.884166	13	-2.0095e-07
2	1	0	0	1	464.352	0.0962997	0.0963702	-0.00190621	2	0.884164	13	-1.83702e-07
2	1	0	0	1	465.253	0.0872969	0.0877948	-0.00192946	2	0.884162	13	-1.69396e-07
2	1	0	1	1	466.153	0.0782941	0.0789817	-0.00196653	2	0.88416	13	-1.5532e-07
2	1	0	1	1	467.053	0.0692905	0.0695334	-0.00200505	2	0.884159	13	-1.39418e-07
2	1	0	0	1	467.953	0.0602886	0.0604358	-0.00204745	2	0.884157	13	-1.23739e-07
2	1	0	1	1	468.854	0.0512858	0.0516111	-0.00205218	2	0.884155	13	-1.05915e-07
2	1	0	1	1	469.754	0.042283	0.0427588	-0.00204978	2	0.884154	13	-8.76461e-08
2	1	0	0	1	470.654	0.0332802	0.0337346	-0.00200558	2	0.884152	13	-6.76573e-08
2	1	0	1	1	471.554	0.0242774	0.0245852	-0.00196984	2	0.88415	13	-4.84291e-08
2	1	0	1	1	472.455	0.0152746	0.0157446	-0.00193457	2	0.884148	13	-3.04591e-08
2	1	0	0	1	473.355	0.00627183	0.00681486	-0.0019203	2	0.884147	13	-1.30865e-08
2	1	0	0	0	474.136	0.00157037	0.00180308	-0.00179627	2	0.884145	13	-3.23881e-09
2	1	0	1	0	475.036	0.0105736	0.0107597	-0.00153357	2	0.884144	13	-1.65007e-08
2	1	0	1	0	475.936	0.019576	0.0199405	-0.00132893	2	0.884143	13	-2.64995e-08
2	1	0	0	0	476.837	0.0285787	0.0287716	-0.00117652	2	0.884142	13	-3.38505e-08
2	1	0	0	0	477.737	0.0375815	0.0381183	-0.00106519	2	0.884141	13	-4.06034e-08
2	1	0	1	0	478.637	0.0465843	0.0469643	-0.000992552	2	0.88414	13	-4.66145e-08
2	1	0	1	0	479.537	0.0555878	0.0559732	-0.000958746	2	0.88414	13	-5.36641e-08
2	0	0	0	0	480.258	0.0627893	0.0629746	-0.000726353	3	0.884139	13	-4.57417e-08
2	0	0	1	0	481.158	0.0717921	0.0722788	-0.000663553	3	0.884138	13	-4.79608e-08
2	0	0	0	0	482.058	0.0807949	0.081286	-0.000563755	3	0.884138	13	-4.58254e-08
2	0	0	0	0	482.959	0.0897977	0.0900651	-0.00045177	3	0.884137	13	-4.06887e-08
2	0	0	1	0	483.859	0.0988005	0.0994256	-0.000373565	3	0.884137	13	-3.71419e-08
2	0	0	1	0	484.759	0.107803	0.108228	-0.000300362	3	0.884136	13	-3.25075e-08
2	0	0	0	0	485.659	0.116806	0.117355	-0.000249158	3	0.884136	13	-2.924e-08
2	0	0	1	0	486.56	0.125809	0.126061	-0.000210711	3	0.884136	13	-2.65625e-08
2	0	0	1	0	487.46	0.134812	0.135067	-0.000217803	3	0.884135	13	-2.94181e-08
2	0	0	0	0	488.36	0.143814	0.14442	-0.000188911	3	0.884135	13	-2.72826e-08
2	0	0	1	0	489.26	0.152817	0.15331	-0.000158102	3	0.884135	13	-2.42386e-08
2	0	0	1	0	490.161	0.16182	0.16266	-0.000114846	3	0.884135	13	-1.86809e-08
2	0	0	0	0	491.061	0.170823	0.171037	-5.38396e-05	3	0.884135	13	-9.20854e-09
2	0	0	0	0	491.961	0.179826	0.180287	-3.62541e-05	3	0.884135	13	-6.53614e-09
2	0	0	1	0	492.862	0.188828	0.189227	-4.73363e-06	3	0.884135	13	-8.95732e-10
2	0	0	1	0	493.762	0.197831	0.198517	1.82597e-05	3	0.884135	13	3.62487e-09
2	0	0	0	0	494.662	0.206834	0.207378	2.47665e-06	3	0.884135	13	5.13603e-10
2	0	0	1	0	495.562	0.215837	0.21623	4.23515e-05	3	0.884135	13	9.15766e-09
2	0	0	1	0	496.463	0.22484	0.225343	2.69163e-05	3	0.884135	13	6.06539e-09
2	0	0	0	0	497.363	0.233842	0.234023	5.96473e-05	3	0.884135	13	1.39588e-08
2	0	0	1	0	498.263	0.242845	0.243145	9.35836e-05	3	0.884135	13	2.27544e-08
2	0	0	1	0	499.164	0.251848	0.252172	0.000125018	3	0.884136	13	3.15261e-08
2	0	0	0	0	500.064	0.260851	0.261376	0.000159545	3	0.884136	13	4.17013e-08
2	0	0	0	0	500.964	0.269853	0.270151	0.00019734	3	0.884136	13	5.33116e-08
2	1	0	1	0	501.864	0.278856	0.279158	0.000238084	3	0.884137	13	6.64632e-08
2	1	0	1	0	502.765	0.287859	0.2883	0.000266867	3	0.884137	13	7.69377e-08
2	1	0	0	0	503.665	0.296862	0.297357	0.000294736	3	0.884138	13	8.76418e-08
2	1	0	1	0	504.565	0.305865	0.306225	0.000334028	3	0.884138	13	1.02288e-07
2	1	0	1	0	505.466	0.314867	0.315338	0.000356755	3	0.884139	13	1.12498e-07
2	1	0	0	0	506.366	0.32387	0.324576	0.000374754	3	0.88414	13	1.21636e-07
2	1	0	1	0	507.266	0.332874	0.333117	0.000372821	3	0.88414	13	1.24193e-07
2	1	0	1	0	508.166	0.341876	0.342352	0.00037875	3	0.884141	13	1.29666e-07
2	1	0	0	0	509.067	0.350879	0.351498	0.000388128	3	0.884142	13	1.36426e-07
2	1	0	0	0	509.967	0.359881	0.360583	0.00033572	3	0.884143	13	1.21055e-07
2	1	0	1	0	510.867	0.368884	0.369305	0.000331612	3	0.884144	13	1.22466e-07
2	1	0	1	0	511.767	0.377888	0.378079	0.000301343	3	0.884144	13	1.13931e-07
2	1	0	0	0	512.668	0.38689	0.3874	0.000289694	3	0.884145	13	1.12227e-07
2	1	0	1	0	513.568	0.395893	0.395998	0.000286984	3	0.884146	13	1.13645e-07
2	1	0	1	0	514.468	0.404895	0.40538	0.000283235	3	0.884147	13	1.14818e-07
2	1	0	0	0	515.369	0.413898	0.414192	0.000281313	3	0.884148	13	1.16518e-07
2	1	0	1	0	516.269	0.422902	0.423261	0.00028128	3	0.884149	13	1.19055e-07
2	1	0	1	0	517.169	0.431904	0.43248	0.00036997	3	0.884151	13	1.60005e-07
2	1	0	0	0	518.069	0.440906	0.441169	0.000436469	3	0.884152	13	1.92557e-07
2	1	0	0	0	518.97	0.449909	0.450495	0.000481841	3	0.884153	13	2.17067e-07
2	1	0	1	0	519.87	0.458912	0.459508	0.000583264	3	0.884155	13	2.68014e-07
2	1	0	0	0	520.77	0.467915	0.468288	0.000659497	3	0.884156	13	3.08834e-07
2	1	0	0	0	521.671	0.476918	0.477272	0.000809491	3	0.884158	13	3.86347e-07
2	1	0	1	0	522.571	0.48592	0.486568	0.000984911	3	0.88416	13	4.79226e-07
2	1	0	1	0	523.471	0.494923	0.495372	0.00125185	3	0.884162	13	6.20131e-07
2	1	0	0	0	524.371	0.503926	0.50434	0.00160601	3	0.884164	13	8.09976e-07
2	1	0	1	0	525.302	0.513229	0.513711	0.00218943	3	0.884167	12	1.12473e-06
2	1	0	1	0	526.202	0.522232	0.523062	0.00281652	3	0.88417	12	1.47322e-06
2	1	0	0	0	527.102	0.531234	0.531531	0.00333609	3	0.884174	12	1.77323e-06
2	1	0	0	0	528.003	0.540237	0.54076	0.003822	3	0.884178	12	2.06678e-06
2	1	0	1	0	528.903	0.54924	0.549686	0.00452913	3	0.884182	12	2.4896e-06
2	1	0	0	0	529.803	0.558243	0.558793	0.00550568	3	0.884188	12	3.07653e-06
2	1	0	0	0	530.703	0.567246	0.567544	0.00649146	3	0.884194	12	3.68419e-06
2	1	0	1	0	531.604	0.576248	0.576651	0.00781967	3	0.884201	12	4.50922e-06
2	1	0	1	0	532.504	0.585251	0.585548	0.00954191	3	0.88421	12	5.58725e-06
2	1	0	0	0	533.404	0.594254	0.594828	0.0113841	3	0.88422	12	6.77159e-06
2	1	0	1	0	534.304	0.603257	0.603719	0.0135001	3	0.884232	12	8.15027e-06
2	1	0	1	0	535.205	0.61226	0.612323	0.0162699	3	0.884246	12	9.96246e-06
2	1	0	0	0	536.105	0.621262	0.621885	0.0194996	3	0.884262	12	1.21265e-05
2	1	0	1	0	537.005	0.630264	0.630475	0.0239266	3	0.884282	12	1.50851e-05
2	1	0	1	0	537.906	0.639268	0.639563	0.0301784	3	0.884306	12	1.9301e-05
2	1	0	0	0	538.806	0.648271	0.648828	0.0388969	3	0.884338	12	2.52374e-05
2	1	0	0	0	539.706	0.657273	0.657806	0.0512916	3	0.884378	12	3.37399e-05
2	1	0	1	0	540.606	0.666276	0.666553	0.0691355	3	0.884432	12	4.60825e-05
2	1	0	1	0	541.507	0.675279	0.675723	0.0941467	3	0.884506	12	6.36171e-05
2	1	0	0	0	542.407	0.684282	0.684754	0.128504	3	0.884606	12	8.79935e-05
2	1	0	1	0	543.307	0.693285	0.693638	0.174881	3	0.884742	12	0.000121304
2	1	0	1	0	544.208	0.702287	0.702985	0.236022	3	0.884927	12	0.00016592
2	1	0	0	0	545.108	0.71129	0.711961	0.314952	3	0.885174	12	0.000224233
2	1	0	1	0	546.008	0.720293	0.720724	0.414404	3	0.885502	12	0.000298671
2	1	0	1	0	546.908	0.729296	0.729485	0.537004	3	0.885929	12	0.000391737
2	1	0	0	0	547.809	0.738299	0.73849	0.683432	3	0.886478	12	0.000504708
2	1	0	0	0	548.709	0.747301	0.748023	0.854626	3	0.88717	12	0.000639279
2	1	0	1	0	549.609	0.756304	0.756861	1.05026	3	0.888027	12	0.000794898
2	1	0	1	0	550.539	0.765606	0.766197	1.27454	3	0.889109	11	0.000976546
2	1	0	0	0	551.44	0.77461	0.774841	1.51448	3	0.890365	11	0.00117348
2	1	0	1	0	552.34	0.783613	0.784099	1.77385	3	0.891847	11	0.00139087
2	1	0	1	0	553.24	0.792615	0.792975	2.05209	3	0.893571	11	0.00162726
2	1	0	0	0	554.141	0.801618	0.802165	2.3449	3	0.895551	11	0.001881
2	1	0	1	0	555.041	0.81062	0.811187	2.65391	3	0.897804	11	0.00215282
2	1	0	1	0	555.941	0.819624	0.820327	2.97717	3	0.900341	11	0.00244225
2	1	0	0	0	556.841	0.828627	0.828982	3.31205	3	0.903173	11	0.00274563
2	1	0	0	0	557.742	0.837629	0.838094	3.65714	3	0.906313	11	0.00306503
2	1	0	1	0	558.642	0.846632	0.847035	4.01426	3	0.909768	11	0.00340022
2	1	0	1	0	559.542	0.855634	0.856083	4.37912	3	0.913549	11	0.00374889
2	1	0	0	0	560.443	0.864638	0.865297	4.75193	3	0.917662	11	0.00411183
2	1	0	1	0	561.343	0.87364	0.874033	5.1309	3	0.922114	11	0.00448458
2	1	0	1	0	562.243	0.882643	0.883165	5.51819	3	0.926911	11	0.00487348
2	1	0	0	0	563.143	0.891646	0.892173	5.90987	3	0.932058	11	0.00527262
2	1	0	1	0	564.044	0.900649	0.901375	6.30793	3	0.937561	11	0.00568581
2	1	0	1	0	564.944	0.909652	0.91019	6.70753	3	0.943423	11	0.00610513
2	1	0	0	0	565.844	0.918654	0.919007	7.10659	3	0.949644	11	0.006531
2	1	0	0	0	566.745	0.927657	0.928232	7.50806	3	0.956227	11	0.00696922
2	1	0	1	0	567.645	0.93666	0.937082	7.91111	3	0.963171	11	0.00741337
2	1	0	1	0	568.545	0.945663	0.946099	8.31727	3	0.97048	11	0.00786897
2	1	0	0	0	569.445	0.954666	0.955223	8.71942	3	0.978153	11	0.00832899
2	1	0	1	0	570.346	0.963668	0.964173	9.1181	3	0.986186	11	0.00879142
2	1	0	1	0	571.246	0.972671	0.973225	9.51832	3	0.99458	11	0.00926347
2	1	0	0	0	572.146	0.981674	0.982338	9.92778	3	1.00334	11	0.00975243
2	1	0	1	0	573.046	0.990677	0.991089	10.3388	3	1.01246	11	0.0102467
2	1	0	1	0	573.937	0.999579	1.00012	10.7484	3	1.02185	11	0.0107497
2	1	0	0	0	574.737	0.992477	0.993018	10.3497	3	1.03031	11	0.0102774
2	1	0	0	0	575.638	0.983474	0.983802	9.86888	3	1.03941	11	0.00970902
2	1	0	1	0	576.538	0.974472	0.975076	9.40156	3	1.04808	11	0.00916724
2	1	0	1	0	577.438	0.965468	0.966046	8.96789	3	1.05634	11	0.0086634
2	1	0	0	0	578.339	0.956466	0.956998	8.68539	3	1.06432	11	0.0083119
2	1	0	1	0	579.239	0.947463	0.94794	8.22054	3	1.07193	11	0.00779258
2	1	0	1	0	580.139	0.93846	0.938715	7.76299	3	1.07912	11	0.00728724
2	1	0	0	0	581.039	0.929458	0.929872	7.32335	3	1.08591	11	0.00680978
2	1	0	1	0	581.94	0.920454	0.920967	6.88339	3	1.0923	11	0.00633938
2	1	0	1	0	582.84	0.911452	0.911984	6.45103	3	1.0983	11	0.00588323
2	1	0	0	0	583.74	0.902449	0.902813	6.02509	3	1.10391	11	0.00543953
2	1	0	0	0	584.641	0.893447	0.893721	5.61504	3	1.10915	11	0.00501828
2	1	0	1	0	585.541	0.884444	0.88504	5.20607	3	1.11401	11	0.00460758
2	1	0	0	0	586.441	0.875441	0.875718	4.80171	3	1.11851	11	0.00420494
2	1	0	0	0	587.341	0.866438	0.866877	4.40828	3	1.12266	11	0.00382144
2	1	0	1	0	588.242	0.857435	0.857882	4.02449	3	1.12645	11	0.00345253
2	1	0	1	0	589.142	0.848433	0.848804	3.65795	3	1.12991	11	0.00310489
2	1	0	0	0	590.042	0.83943	0.840094	3.29598	3	1.13304	11	0.00276893
2	1	0	1	0	590.942	0.830427	0.830967	2.94937	3	1.13584	11	0.00245083
2	1	0	1	0	591.843	0.821424	0.821925	2.61518	3	1.13835	11	0.00214948
2	1	0	0	0	592.743	0.812422	0.813081	2.29571	3	1.14056	11	0.0018666
2	1	0	0	0	593.643	0.803419	0.803985	1.99254	3	1.14248	11	0.00160197
2	1	0	1	0	594.544	0.794416	0.794927	1.70804	3	1.14415	11	0.00135777
2	1	0	0	0	595.444	0.785413	0.785882	1.44618	3	1.14556	11	0.00113653
2	1	0	0	0	596.344	0.77641	0.776901	1.20623	3	1.14676	11	0.000937123
2	1	0	1	0	597.244	0.767408	0.767913	0.992298	3	1.14774	11	0.000761998
2	1	0	1	0	598.145	0.758405	0.758655	0.803345	3	1.14855	11	0.000609462
2	1	0	0	0	599.045	0.749402	0.749808	0.640663	3	1.1492	11	0.000480374
2	1	0	1	0	599.945	0.740399	0.740838	0.503113	3	1.14971	11	0.000372725
2	1	0	1	0	600.876	0.731096	0.731832	0.387194	3	1.15012	12	0.000283361
2	1	0	0	0	601.776	0.722094	0.722916	0.295179	3	1.15042	12	0.00021339
2	1	0	0	0	602.676	0.713091	0.713584	0.222461	3	1.15066	12	0.000158745
2	1	0	1	0	603.576	0.704088	0.704515	0.165715	3	1.15083	12	0.000116749
2	1	0	0	0	604.477	0.695085	0.695504	0.121964	3	1.15096	12	8.48261e-05
2	1	0	0	0	605.377	0.686082	0.686768	0.0885643	3	1.15105	12	6.08232e-05
2	1	0	1	0	606.277	0.67708	0.677652	0.0637214	3	1.15112	12	4.31809e-05
2	1	0	1	0	607.178	0.668077	0.668596	0.0453558	3	1.15117	12	3.03247e-05
2	1	0	0	0	608.078	0.659074	0.6598	0.0317427	3	1.1512	12	2.09438e-05
2	1	0	1	0	608.978	0.650071	0.65077	0.0218526	3	1.15123	12	1.4221e-05
2	1	0	1	0	609.878	0.641068	0.641743	0.0149965	3	1.15124	12	9.62391e-06
2	1	0	0	0	610.779	0.632066	0.632669	0.00985229	3	1.15126	12	6.23324e-06
2	1	0	0	0	611.679	0.623063	0.623497	0.0062184	3	1.15126	12	3.87715e-06
2	1	0	1	0	612.579	0.61406	0.614219	0.00382085	3	1.15127	12	2.34684e-06
2	1	0	0	0	613.479	0.605057	0.605458	0.0020421	3	1.15127	12	1.23641e-06
2	1	0	0	0	614.38	0.596054	0.596418	0.000682227	3	1.15127	12	4.06893e-07
2	1	0	1	0	615.28	0.587052	0.587364	-0.000203602	3	1.15127	12	-1.19589e-07
2	1	0	1	0	616.18	0.57805	0.578555	-0.000879208	3	1.15127	12	-5.0867e-07
2	1	0	0	0	617.081	0.569046	0.569673	-0.00132249	3	1.15127	12	-7.53387e-07
2	1	0	1	0	617.981	0.560043	0.560589	-0.00162259	3	1.15127	12	-9.09604e-07
2	1	0	1	0	618.881	0.551041	0.551396	-0.00201214	3	1.15127	12	-1.10948e-06
2	1	0	0	0	619.781	0.542038	0.54257	-0.00219526	3	1.15126	12	-1.19108e-06
2	1	0	1	0	620.682	0.533035	0.533543	-0.00231433	3	1.15126	12	-1.23479e-06
2	1	0	1	0	621.582	0.524032	0.5246	-0.0023932	3	1.15126	12	-1.25547e-06
2	1	0	0	0	622.482	0.515029	0.515474	-0.00242123	3	1.15126	12	-1.24808e-06
2	1	0	0	0	623.383	0.506027	0.506241	-0.00238527	3	1.15126	12	-1.20752e-06
2	1	0	1	0	624.283	0.497024	0.497352	-0.00234366	3	1.15125	12	-1.16562e-06
2	1	0	1	0	625.183	0.488021	0.488575	-0.00232603	3	1.15125	12	-1.13644e-06
2	1	0	0	0	626.083	0.479018	0.479867	-0.00236027	3	1.15125	12	-1.13261e-06
2	1	0	1	0	626.984	0.470015	0.470587	-0.00232751	3	1.15125	12	-1.0953e-06
2	1	0	1	0	627.884	0.461013	0.461683	-0.00230819	3	1.15125	12	-1.06565e-06
2	1	0	0	0	628.784	0.45201	0.452424	-0.00227907	3	1.15124	12	-1.0311e-06
2	1	0	1	0	629.684	0.443007	0.443433	-0.00223942	3	1.15124	12	-9.93032e-07
2	1	0	1	0	630.585	0.434004	0.434143	-0.00205202	3	1.15124	12	-8.90872e-07
2	1	0	0	0	631.485	0.425002	0.425263	-0.0019991	3	1.15124	12	-8.50146e-07
2	1	0	0	0	632.385	0.415999	0.416533	-0.0019412	3	1.15124	12	-8.08574e-07
2	1	0	1	0	633.286	0.406996	0.407697	-0.00187237	3	1.15124	12	-7.63358e-07
2	1	0	1	0	634.216	0.397693	0.398373	-0.00156645	3	1.15123	13	-6.24033e-07
2	1	0	0	0	635.116	0.38869	0.38903	-0.00155885	3	1.15123	13	-6.06438e-07
2	1	0	1	0	636.016	0.379688	0.379852	-0.00153394	3	1.15123	13	-5.82669e-07
2	1	0	1	0	636.917	0.370685	0.371305	-0.00153169	3	1.15123	13	-5.68726e-07
2	1	0	0	0	637.817	0.361682	0.362226	-0.00151252	3	1.15123	13	-5.47875e-07
2	1	0	1	0	638.717	0.352679	0.352994	-0.00151769	3	1.15123	13	-5.35737e-07
2	1	0	1	0	639.618	0.343676	0.343827	-0.00147561	3	1.15123	13	-5.07354e-07
2	1	0	0	0	640.518	0.334674	0.334956	-0.00143517	3	1.15122	13	-4.8072e-07
2	1	0	0	0	641.418	0.325671	0.325895	-0.00140504	3	1.15122	13	-4.57894e-07
2	1	0	1	0	642.318	0.316668	0.317165	-0.00136136	3	1.15122	13	-4.31776e-07
2	1	0	1	0	643.219	0.307665	0.308382	-0.00133165	3	1.15122	13	-4.10657e-07
2	1	0	0	0	644.119	0.298662	0.299131	-0.0013038	3	1.15122	13	-3.90007e-07
2	1	0	1	0	645.019	0.28966	0.290055	-0.00128374	3	1.15122	13	-3.72356e-07
2	1	0	1	0	645.92	0.280657	0.281155	-0.0012787	3	1.15122	13	-3.59512e-07
2	1	0	0	0	646.82	0.271654	0.271901	-0.00126826	3	1.15122	13	-3.44842e-07
2	1	0	1	0	647.72	0.262651	0.26321	-0.00125585	3	1.15121	13	-3.30554e-07
2	1	0	1	0	648.62	0.253648	0.253912	-0.00121536	3	1.15121	13	-3.08596e-07
2	1	0	0	0	649.521	0.244646	0.24539	-0.00118231	3	1.15121	13	-2.90126e-07
2	1	0	0	0	650.421	0.235643	0.23618	-0.00114292	3	1.15121	13	-2.69934e-07
2	1	0	1	0	651.321	0.22664	0.226935	-0.00109443	3	1.15121	13	-2.48366e-07
2	1	0	0	0	652.221	0.217637	0.217992	-0.0010489	3	1.15121	13	-2.28652e-07
2	1	0	0	0	653.122	0.208635	0.208975	-0.000981361	3	1.15121	13	-2.0508e-07
2	1	0	1	0	654.022	0.199632	0.200026	-0.000937185	3	1.15121	13	-1.87462e-07
2	1	0	1	0	654.922	0.190629	0.191068	-0.000898856	3	1.15121	13	-1.71742e-07
2	1	0	0	0	655.823	0.181626	0.182084	-0.000896611	3	1.1512	13	-1.63258e-07
2	0	0	1	0	656.723	0.172623	0.173007	-0.000863553	3	1.1512	13	-1.494e-07
2	0	0	1	0	657.623	0.163621	0.163863	-0.000841703	3	1.1512	13	-1.37924e-07
2	0	0	0	0	658.523	0.154618	0.155056	-0.000819086	3	1.1512	13	-1.27004e-07
2	0	0	0	0	659.424	0.145615	0.145879	-0.000815853	3	1.1512	13	-1.19016e-07
2	0	0	1	0	660.324	0.136612	0.137062	-0.000785296	3	1.1512	13	-1.07634e-07
2	0	0	0	0	661.224	0.127609	0.128034	-0.000783759	3	1.1512	13	-1.00348e-07
2	0	0	0	0	662.125	0.118607	0.11914	-0.000809856	3	1.1512	13	-9.6486e-08
2	0	0	1	0	663.025	0.109604	0.110113	-0.000940349	3	1.1512	13	-1.03545e-07
2	0	0	1	0	663.925	0.100601	0.100818	-0.00102042	3	1.15119	13	-1.02876e-07
2	0	0	0	0	664.825	0.0915983	0.0918008	-0.00106783	3	1.15119	13	-9.80278e-08
2	0	0	1	0	665.726	0.0825955	0.0832689	-0.00109666	3	1.15119	13	-9.13175e-08
2	0	0	1	0	666.626	0.0735927	0.0739519	-0.00109562	3	1.15119	13	-8.1023e-08
2	0	0	0	0	667.526	0.0645899	0.0649776	-0.00109888	3	1.15119	13	-7.14025e-08
2	0	0	1	0	668.426	0.055588	0.0561527	-0.00107913	3	1.15119	13	-6.05958e-08
2	0	0	1	0	669.327	0.0465843	0.0471881	-0.00109236	3	1.15119	13	-5.15464e-08
2	0	0	0	0	670.227	0.0375815	0.0378552	-0.00110186	3	1.15119	13	-4.17113e-08
2	0	0	0	0	671.127	0.0285787	0.0292193	-0.00110024	3	1.15118	13	-3.21483e-08
2	0	0	1	0	672.028	0.019576	0.0203076	-0.00113342	3	1.15118	13	-2.30171e-08
2	0	0	1	0	672.928	0.0105738	0.0108753	-0.00114062	3	1.15118	13	-1.24045e-08
2	0	0	0	0	673.828	0.00157037	0.00202375	-0.00115482	3	1.15118	13	-2.33705e-09
2	1	0	0	1	674.639	0.00657192	0.00693262	-0.00105374	3	1.15118	13	-7.30517e-09
2	1	0	1	1	675.539	0.0155747	0.0158995	-0.000911846	3	1.15118	13	-1.44979e-08
2	1	0	1	1	676.44	0.0245775	0.0248346	-0.000812939	3	1.15118	13	-2.0189e-08
2	1	0	0	1	677.34	0.0335803	0.0337261	-0.000735034	3	1.15118	13	-2.47898e-08
2	1	0	1	1	678.24	0.042584	0.0427471	-0.000680736	3	1.15118	13	-2.90995e-08
2	1	0	1	1	679.14	0.0515859	0.0523877	-0.000620052	3	1.15118	13	-3.24831e-08
2	1	0	0	1	680.041	0.0605887	0.0610437	-0.000575321	3	1.15118	13	-3.51197e-08
2	1	0	1	1	680.192	0.0621392	0.0622256	0.00204377	3	1.15118	13	1.27175e-07