File: Lares Oxides/2024-6-26 Ni45Co45Fe10Ox on FTO_1_07mg_01_PEIS_C05.mpt
EC-Lab ASCII FILE
Nb header lines : 66

Potentio Electrochemical Impedance Spectroscopy

Run on channel : 5 (SN 39658)
User :
CE vs. WE compliance from -10 V to 10 V
Electrode connection : standard
Potential control : Ewe
Ewe ctrl range : min = -2.50 V, max = 2.50 V
Safety Limits :
	Do not start on E overload
Acquisition started on : 06/26/2024 16:18:27.404
Technique started on : 06/26/2024 16:18:29.198
Loaded Setting File :  NONE
Saved on :
	File : 2024-6-26 Ni45Co45Fe10Ox on FTO_1_07mg_01_PEIS_C05.mpr
	Directory : C:\Users\sfolkman\OneDrive - New Mexico State University\Folkman Group Folder\Scott\
	Host : 172.24.124.15
Device : VSP (SN 1910)
Address : USB
EC-Lab for windows v11.46 (software)
Internet server v11.40 (firmware)
Command interpretor v11.40 (firmware)
Electrode material :
Initial state :
Electrolyte :
Comments :
Current amplifier : VSPB-4A
Electrode surface area : 0.000 cm²
Characteristic mass : 0.001 g
Equivalent Weight : 0.000 g/eq.
Density : 0.000 g/cm3
Volume (V) : 0.001 cm³
Record Ece
Cycle Definition : Charge/Discharge alternance
Mode                Single sine
E (V)               0.0000
vs.                 Eoc
tE (h:m:s)          0:00:0.0000
record              0
dI                  0.000
unit dI             mA
dt (s)              0.000
fi                  200.000
unit fi             kHz
ff                  100.000
unit ff             mHz
Nd                  6
Points              per decade
spacing             Logarithmic
Va (mV)             10.0
pw                  0.10
Na                  2
corr                0
E range min (V)     -2.500
E range max (V)     2.500
I Range             Auto
Bandwidth           4
nc cycles           0
goto Ns'            0
nr cycles           0
inc. cycle          0

freq/Hz	Re(Z)/Ohm	-Im(Z)/Ohm	|Z|/Ohm	Phase(Z)/deg	time/s	<Ewe>/V	<I>/mA	Cs/µF	Cp/µF	cycle number	I Range	|Ewe|/V	|I|/A	Ns	(Q-Qo)/mA.h	<Ece>/V	|Ece|/V	Phase(Zce)/deg	|Zce|/Ohm	Re(Zce)/Ohm	-Im(Zce)/Ohm	Phase(Zwe-ce)/deg	|Zwe-ce|/Ohm	Re(Zwe-ce)/Ohm	-Im(Zwe-ce)/Ohm	Re(Y)/Ohm-1	Im(Y)/Ohm-1	|Y|/Ohm-1	Phase(Y)/deg	dq/mA.h
199998	6.59499	13.5691	15.0869	-64.0788	1.79353	0.237646	-0.0135644	0.0586468	0.0474402	1	10	0.00968004	0.000641621	0	-1.09438e-06	0.0177738	0.0111317	51.7146	17.3494	10.7493	-13.6181	0.162176	17.3444	17.3443	-0.0490932	0.0289746	0.0596145	0.0662829	64.0788	-1.09438e-06
135123	8.79863	12.2676	15.0967	-54.351	2.32854	0.237792	-0.0136202	0.0960131	0.0633997	1	10	0.0101323	0.000671161	0	-2.93063e-06	0.00597335	0.00960185	52.0317	14.3063	8.80163	-11.2784	-3.21694	17.628	17.6003	0.989227	0.0386056	0.0538265	0.0662396	54.351	-1.83626e-06
91291.2	11.2995	12.1506	16.5927	-47.0784	2.86354	0.23775	-0.0143647	0.143481	0.0769408	1	10	0.0101945	0.000614396	0	4.58252e-06	0.00729088	0.00778871	58.984	12.677	6.53217	-10.8645	-4.12524	17.878	17.8317	1.28609	0.041042	0.0441332	0.0602676	47.0784	7.51315e-06
61674.2	16.1829	11.0315	19.5852	-34.2813	3.39853	0.237803	-0.0143088	0.233929	0.0742157	1	10	0.0102554	0.000523631	0	-5.19849e-06	0.0127901	0.00503563	76.0491	9.61675	2.31851	-9.33308	-5.24491	18.5792	18.5014	1.69838	0.0421892	0.0287593	0.0510591	34.2813	-9.78101e-06
41669.8	18.481	7.50294	19.946	-22.0962	3.79956	0.237707	-0.0143237	0.509059	0.072031	1	10	0.010482	0.000525518	0	-1.16256e-05	0.00937219	0.00289125	87.6118	5.50172	0.229258	-5.49694	-6.1195	18.8175	18.7103	2.00599	0.0464531	0.0188591	0.0501354	22.0962	-6.42712e-06
28151	18.795	5.1698	19.493	-15.3796	4.20052	0.237877	-0.0135681	1.09359	0.0769205	1	10	0.0102527	0.000525967	0	-1.79593e-05	0.00895211	0.00164762	80.21	3.13256	0.532651	-3.08694	-6.15078	19.4395	19.3276	2.08285	0.0494634	0.0136055	0.0513004	15.3796	-6.33371e-06
19020.9	18.9849	4.10141	19.4228	-12.1906	4.60154	0.237847	-0.00838277	2.04012	0.0909696	1	10	0.0103623	0.000533509	0	-1.50069e-05	0.00730997	0.00112779	66.7308	2.11391	0.835106	-1.94197	-6.21802	19.9373	19.82	2.15945	0.0503248	0.010872	0.0514858	12.1906	2.95239e-06
12850.7	19.4413	3.50127	19.754	-10.2092	5.00256	0.237785	-0.0133931	3.53726	0.111124	1	10	0.0101925	0.000515971	0	-1.70997e-05	0.0101169	0.000737643	43.0298	1.42962	1.04505	-0.975544	-7.02844	20.6414	20.4863	2.52573	0.0498211	0.00897252	0.0506226	10.2092	-2.09274e-06
8684.68	19.6299	3.73781	19.9826	-10.7808	5.40352	0.237724	-0.0129129	4.90286	0.171545	1	10	0.0101242	0.000506651	0	-1.52608e-05	0.00952495	0.000580518	27.6655	1.14579	1.0148	-0.532002	-8.82665	20.8922	20.6447	3.20581	0.0491602	0.00936077	0.0500434	10.7808	1.83887e-06
5864.01	19.9266	3.89573	20.3039	-11.062	5.67054	0.237802	-0.016788	6.96685	0.256481	1	10	0.0108259	0.000533194	0	-1.58387e-05	0.00927672	0.000669058	8.36394	1.25481	1.24147	-0.182525	-9.94931	21.4913	21.1681	3.7132	0.0483366	0.00944996	0.0492516	11.062	-5.77858e-07
3960.08	20.3323	4.37663	20.798	-12.1478	6.13985	0.237698	-0.0156564	9.18285	0.406643	1	10	0.0100762	0.000484482	0	-1.60552e-05	0.00832199	0.000650263	-5.50532	1.34218	1.33599	0.128767	-11.7459	22.1317	21.6683	4.50539	0.0470049	0.010118	0.0480816	12.1478	-2.16514e-07
2678.72	20.7451	5.40419	21.4374	-14.6013	6.58113	0.237771	-0.0149863	10.9942	0.698681	1	10	0.0102406	0.0004777	0	-1.85783e-05	0.00963952	0.000648752	-9.74412	1.35808	1.33848	0.229852	-14.3122	22.7909	22.0835	5.63404	0.0451409	0.0117594	0.0466474	14.6013	-2.52316e-06
1808.26	21.5129	7.3716	22.7409	-18.9145	7.03903	0.237845	-0.0147928	11.9398	1.2546	1	10	0.0104154	0.000458003	0	-2.16654e-05	0.00622158	0.000610638	-27.8432	1.33326	1.17891	0.622704	-19.4073	24.0588	22.6918	7.99431	0.0415993	0.0142544	0.0439737	18.9145	-3.08703e-06
1221.96	22.0881	9.66948	24.1119	-23.6423	7.49461	0.237778	-0.0149044	13.4698	2.16624	1	10	0.0103186	0.000427947	0	-2.44274e-05	0.00813104	0.000660154	-37.6756	1.54261	1.22095	0.942827	-24.4792	25.6112	23.309	10.6123	0.0379923	0.0166319	0.0414733	23.6423	-2.76202e-06
825.264	23.2027	13.2908	26.7397	-29.8045	7.95279	0.237813	-0.013341	14.5103	3.5848	1	10	0.0103329	0.000386426	0	-2.45417e-05	0.00824561	0.000732685	-46.5542	1.89606	1.30386	1.37659	-30.9008	28.5605	24.5066	14.6673	0.0324509	0.0185882	0.0373976	29.8045	-1.14354e-07
558.036	24.7916	17.9485	30.6067	-35.9036	8.66854	0.23776	-0.00157986	15.8902	5.46453	1	11	0.0107591	0.000351528	0	-2.73084e-05	0.00774915	0.000854627	-52.5452	2.43117	1.47848	1.92995	-37.1146	32.9434	26.2701	19.8784	0.0264649	0.0191599	0.0326726	35.9036	-2.76661e-06
377.051	26.7597	24.6842	36.4059	-42.6896	9.12375	0.237775	-0.00183269	17.1002	7.86132	1	11	0.0106097	0.000291428	0	-2.6081e-05	0.00834108	0.000924198	-63.4858	3.17128	1.41572	2.83773	-44.3278	39.3866	28.1754	27.5219	0.0201901	0.0186241	0.0274681	42.6896	1.22738e-06
254.755	29.5182	34.0253	45.0449	-49.0572	9.58209	0.237821	-0.00186806	18.3609	10.4763	1	11	0.0104984	0.000233066	0	-2.53069e-05	0.007921	0.00104722	-67.5077	4.49326	1.71894	4.15146	-50.7092	49.3277	31.2371	38.1768	0.0145478	0.0167691	0.0222001	49.0572	7.74061e-07
172.037	32.9959	46.6297	57.1232	-54.7161	10.0345	0.237794	-0.00188706	19.8397	13.2201	1	11	0.0103806	0.000181722	0	-2.59381e-05	0.00900939	0.00113898	-71.3996	6.26767	1.99917	5.94028	-56.3488	63.1527	34.9951	52.57	0.010112	0.0142902	0.017506	54.7161	-6.31164e-07
116.227	38.9993	63.8289	74.8002	-58.5752	10.4868	0.237838	-0.00178168	21.4533	15.6215	1	11	0.0103657	0.000138579	0	-2.68173e-05	0.00807376	0.00120227	-74.4443	8.67572	2.32661	8.35793	-60.2095	83.1791	41.3259	72.1868	0.00697029	0.0114081	0.0133689	58.5752	-8.79225e-07
78.5176	45.2919	88.2368	99.1821	-62.8286	10.9526	0.237827	-0.0016145	22.9722	18.1818	1	11	0.0103278	0.00010413	0	-2.68028e-05	0.00900939	0.00135089	-75.5647	12.9732	3.23403	12.5636	-64.2936	111.873	48.5259	100.8	0.00460419	0.00896981	0.0100825	62.8286	1.44863e-08
53.0478	55.3603	120.602	132.702	-65.3434	11.4253	0.237729	-0.0018986	24.8769	20.5474	1	11	0.0102994	7.7613e-05	0	-2.66273e-05	0.00736725	0.00142761	-81.1515	18.394	2.82942	18.1751	-67.2516	150.483	58.1898	138.777	0.00314374	0.00684863	0.00753571	65.3434	1.75501e-07
35.8372	68.0117	165.674	179.09	-67.6811	12.1232	0.237815	-3.66908e-06	26.8061	22.9401	1	12	0.0103974	5.8057e-05	0	-2.61924e-05	0.00803557	0.00149287	-78.2059	25.7139	5.25582	25.171	-68.9976	204.426	73.2675	190.845	0.00212051	0.00516546	0.00558377	67.6811	4.3494e-07
24.2323	84.7209	228.767	243.951	-69.6786	12.5942	0.237758	-0.000271122	28.7099	25.2472	1	12	0.0103413	4.23908e-05	0	-2.59735e-05	0.00866569	0.00150941	-82.7926	35.607	4.46729	35.3257	-71.3394	278.747	89.1882	264.093	0.00142359	0.00384405	0.00409918	69.6786	2.18874e-07
16.367	113.777	318.135	337.868	-70.321	13.0161	0.237901	-0.000211258	30.5662	27.0999	1	12	0.0104291	3.08674e-05	0	-2.61399e-05	0.00988775	0.00150819	-85.08	48.8602	4.1905	48.6801	-72.1722	385.317	117.968	366.815	0.000996693	0.00278687	0.00295973	70.321	-1.66362e-07
11.0502	139.301	437.897	459.52	-72.3534	13.4338	0.237826	-0.000223209	32.891	29.8685	1	12	0.010343	2.25082e-05	0	-2.61711e-05	0.00706174	0.00164649	-80.9261	73.1506	11.5365	72.2351	-73.528	531.965	150.837	510.132	0.000659697	0.00207378	0.00217618	72.3534	-3.12644e-08
7.46893	184.017	603.222	630.665	-73.0353	13.7537	0.237817	-0.000176226	35.3252	32.3177	1	12	0.0103329	1.63841e-05	0	-2.62788e-05	0.0114153	0.00167529	-80.2687	102.25	17.2831	100.779	-74.0428	732.215	201.3	704.001	0.000462659	0.00151663	0.00158563	73.0353	-1.07685e-07
5.04683	234.284	834.415	866.682	-74.3165	14.461	0.237718	7.00288e-06	37.7937	35.0319	1	13	0.0103315	1.19207e-05	0	-2.61703e-05	0.00646981	0.00193065	-86.735	161.957	9.22407	161.695	-76.2629	1025.44	243.508	996.11	0.000311906	0.00111087	0.00115383	74.3165	1.08551e-07
3.4086	312.407	1143.18	1185.1	-74.7155	15.1144	0.237778	-0.00015485	40.8441	38.0058	1	13	0.0102847	8.67833e-06	0	-2.61134e-05	0.00467491	0.00188951	-82.2665	217.728	29.2988	215.748	-75.8855	1401.23	341.706	1358.93	0.000222439	0.000813963	0.00084381	74.7155	5.68661e-08
2.30321	437.21	1612.98	1671.18	-74.8339	16.0633	0.237824	-6.00482e-06	42.8408	39.9086	1	13	0.0102943	6.15989e-06	0	-2.62207e-05	0.00834108	0.00198689	-81.6494	322.553	46.8445	319.133	-75.9351	1991.82	484.055	1932.11	0.000156546	0.000577538	0.000598379	74.8339	-1.07329e-07
1.55627	668.828	2198.35	2297.84	-73.0781	17.4488	0.237824	-0.000101963	46.5196	42.5785	1	13	0.0102998	4.48238e-06	0	-2.62949e-05	0.00952495	0.00204754	-78.7954	456.798	88.762	448.091	-74.0253	2752.75	757.59	2646.44	0.00012667	0.000416348	0.000435191	73.0781	-7.41625e-08
1.05233	841.154	3101.3	3213.35	-74.825	20.4872	0.23782	-1.37653e-05	48.7668	45.4251	1	14	0.0103146	3.20992e-06	0	-2.62124e-05	0.00893302	0.00211691	-80.0113	659.49	114.391	649.494	-75.7075	3870.6	955.546	3750.8	8.14629e-05	0.00030035	0.000311202	74.825	8.25359e-08
0.710357	1196.97	4249.4	4414.77	-74.2685	23.4799	0.237806	2.82364e-06	52.7249	48.849	1	14	0.0102803	2.32863e-06	0	-2.61111e-05	0.00681351	0.00218352	-78.1813	937.685	192.052	917.807	-74.9537	5350.65	1389.02	5167.21	6.14141e-05	0.000218028	0.000226512	74.2685	1.01284e-07
0.480355	1751.68	5965.9	6217.74	-73.6369	27.8903	0.237808	-1.75265e-05	55.5369	51.1291	1	14	0.0102717	1.652e-06	0	-2.60475e-05	0.00780643	0.00224422	-77.0225	1358.49	305.074	1323.79	-74.2438	7574.29	2056.76	7289.69	4.53096e-05	0.000154316	0.00016083	73.6369	6.35757e-08
0.324439	2668.55	8213.51	8636.14	-72.0011	34.4028	0.237812	-1.50886e-05	59.7252	54.0227	1	14	0.0102768	1.18998e-06	0	-2.60536e-05	0.00645071	0.00227277	-73.9852	1909.93	526.921	1835.81	-72.3604	10545.1	3195.47	10049.3	3.57796e-05	0.000110126	0.000115792	72.0011	-6.07164e-09
0.218838	3980.54	11182.1	11869.5	-70.4056	44.0431	0.237808	-2.41143e-05	65.039	57.7243	1	14	0.0102749	8.65659e-07	0	-2.61586e-05	0.00813104	0.00230646	-71.0378	2664.39	865.779	2519.8	-70.5215	14533.7	4846.32	13701.9	2.82539e-05	7.93708e-05	8.42496e-05	70.4056	-1.05082e-07
0.147897	6181.66	15079.1	16297	-67.7088	58.293	0.237806	-2.75457e-05	71.3652	61.0973	1	14	0.0102808	6.30842e-07	0	-2.63883e-05	0.00872297	0.00235052	-66.3158	3726.01	1496.72	3412.18	-67.4496	20022.1	7678.38	18491.3	2.32751e-05	5.67755e-05	6.13611e-05	67.7088	-2.29637e-07
0.0999041	9290.91	19374.3	21486.8	-64.38	79.3703	0.237809	-4.27574e-05	82.2265	66.8525	1	14	0.0102805	4.78454e-07	0	-2.67634e-05	0.0113389	0.00241189	-60.7576	5041	2462.55	4398.58	-63.6919	26519.7	11753.5	23772.8	2.0124e-05	4.19644e-05	4.65402e-05	64.38	-3.75124e-07