File: Lares Oxides/2024-6-21 Co80Fe20Ox on FTO_1_00mg_CP1_C02.mpt
EC-Lab ASCII FILE
Nb header lines : 54

Chronopotentiometry

Run on channel : 2 (SN 39659)
User :
CE vs. WE compliance from -18 V to 2 V
Electrode connection : standard
Potential control : Ewe
Ewe ctrl range : min = 0.00 V, max = 5.00 V
Safety Limits :
	Do not start on E overload
Acquisition started on : 06/21/2024 10:05:46.800
Technique started on : 06/21/2024 10:05:47.800
Loaded Setting File :  NONE
Saved on :
	File : 2024-6-21 Co80Fe20Ox on FTO_1_00mg_CP1_C02.mpr
	Directory : C:\Users\sfolkman\OneDrive - New Mexico State University\Folkman Group Folder\Scott\
	Host : 172.24.124.15
Device : VSP (SN 1910)
Address : USB
EC-Lab for windows v11.46 (software)
Internet server v11.40 (firmware)
Command interpretor v11.40 (firmware)
Electrode material :
Initial state :
Electrolyte :
Comments :
Electrode surface area : 0.001 cm²
Characteristic mass : 0.001 g
Equivalent Weight : 0.000 g/eq.
Density : 0.000 g/cm3
Volume (V) : 0.001 cm³
Record Ece
Cycle Definition : Charge/Discharge alternance
Is                  10.000
unit Is             mA
vs.                 <None>
ts (h:m:s)          48:00:0.0000
EM (V)              5.000
dQM                 480.000
unit dQM            mA.h
record              <Ewe>
dEs (mV)            0.00
dts (s)             1.0000
E range min (V)     0.000
E range max (V)     5.000
I Range             10 mA
Bandwidth           5
goto Ns'            0
nc cycles           0

mode	ox/red	error	control changes	Ns changes	counter inc.	Ns	time/s	control/mA	<Ewe>/V	I/mA	dQ/C	(Q-Qo)/C	half cycle	Q charge/discharge/mA.h	I Range	<Ece>/V	Energy charge/W.h	Energy discharge/W.h	Capacitance charge/µF	Capacitance discharge/µF	Q discharge/mA.h	Q charge/mA.h	Capacity/mA.h	Efficiency/%	cycle number	P/W	Ewe-Ece/V
1	1	0	1	0	0	0	1	10	1.00716	10.0047	0.00950185	0.00950185	0	0.0026394	11	-0.988845	2.65831e-06	0.000000000000000E+000	0.000000000000000E+000	0.000000000000000E+000	0.000000000000000E+000	0.0026394	0.0026394	0.0000000E+000	0.000000000000000E+000	0.0100764	1.99601
1	1	0	1	0	0	0	29	10	1.03551	10.0031	0.289611	0.289611	0	0.0804476	11	-1.06631	8.2651e-05	0.000000000000000E+000	1.02163e+07	0.000000000000000E+000	0.000000000000000E+000	0.0804476	0.0804476	0.0000000E+000	0.000000000000000E+000	0.0103583	2.10182
1	1	0	1	0	0	0	57	10	1.04534	10.0038	0.569719	0.569719	0	0.158255	11	-1.06688	0.000163592	0.000000000000000E+000	1.49232e+07	0.000000000000000E+000	0.000000000000000E+000	0.158255	0.158255	0.0000000E+000	0.000000000000000E+000	0.0104573	2.11222
1	1	0	1	0	0	0	85	10	1.05545	10.0036	0.849827	0.849827	0	0.236063	11	-1.06665	0.000245383	0.000000000000000E+000	1.7598e+07	0.000000000000000E+000	0.000000000000000E+000	0.236063	0.236063	0.0000000E+000	0.000000000000000E+000	0.0105584	2.12211
1	1	0	1	0	0	0	113	10	1.0641	10.004	1.12993	1.12993	0	0.313871	11	-1.0658	0.000327882	0.000000000000000E+000	1.98442e+07	0.000000000000000E+000	0.000000000000000E+000	0.313871	0.313871	0.0000000E+000	0.000000000000000E+000	0.0106453	2.12991
1	1	0	1	0	0	0	141	10	1.07196	10.0036	1.41004	1.41004	0	0.391678	11	-1.06447	0.000411056	0.000000000000000E+000	2.17628e+07	0.000000000000000E+000	0.000000000000000E+000	0.391678	0.391678	0.0000000E+000	0.000000000000000E+000	0.0107235	2.13643
1	1	0	1	0	0	0	169	10	1.0803	10.003	1.69015	1.69015	0	0.469485	11	-1.0644	0.000494822	0.000000000000000E+000	2.31111e+07	0.000000000000000E+000	0.000000000000000E+000	0.469485	0.469485	0.0000000E+000	0.000000000000000E+000	0.0108062	2.14469
1	1	0	1	0	0	0	197	10	1.08578	10.0028	1.97025	1.97025	0	0.547293	11	-1.06419	0.000579119	0.000000000000000E+000	2.50625e+07	0.000000000000000E+000	0.000000000000000E+000	0.547293	0.547293	0.0000000E+000	0.000000000000000E+000	0.0108608	2.14997
1	1	0	1	0	0	0	225	10	1.09184	10.004	2.25036	2.25036	0	0.6251	11	-1.06454	0.000663863	0.000000000000000E+000	2.65771e+07	0.000000000000000E+000	0.000000000000000E+000	0.6251	0.6251	0.0000000E+000	0.000000000000000E+000	0.0109227	2.15637
1	1	0	1	0	0	0	253	10	1.09652	10.0041	2.53047	2.53047	0	0.702907	11	-1.0647	0.000749031	0.000000000000000E+000	2.83193e+07	0.000000000000000E+000	0.000000000000000E+000	0.702907	0.702907	0.0000000E+000	0.000000000000000E+000	0.0109697	2.16122
1	1	0	1	0	0	0	281	10	1.10164	10.0031	2.81057	2.81057	0	0.780714	11	-1.06495	0.000834569	0.000000000000000E+000	2.97498e+07	0.000000000000000E+000	0.000000000000000E+000	0.780714	0.780714	0.0000000E+000	0.000000000000000E+000	0.0110198	2.16658
1	1	0	1	0	0	0	309	10	1.10557	10.0039	3.09068	3.09068	0	0.858521	11	-1.06429	0.000920422	0.000000000000000E+000	3.14088e+07	0.000000000000000E+000	0.000000000000000E+000	0.858521	0.858521	0.0000000E+000	0.000000000000000E+000	0.01106	2.16986
1	1	0	1	0	0	0	337	10	1.10942	10.0036	3.37078	3.37078	0	0.936328	11	-1.06481	0.00100661	0.000000000000000E+000	3.29638e+07	0.000000000000000E+000	0.000000000000000E+000	0.936328	0.936328	0.0000000E+000	0.000000000000000E+000	0.0110982	2.17423
1	1	0	1	0	0	0	365	10	1.11295	10.0036	3.65089	3.65089	0	1.01413	11	-1.06529	0.00109307	0.000000000000000E+000	3.45119e+07	0.000000000000000E+000	0.000000000000000E+000	1.01413	1.01413	0.0000000E+000	0.000000000000000E+000	0.0111336	2.17824
1	1	0	1	0	0	0	393	10	1.11645	10.0038	3.93099	3.93099	0	1.09194	11	-1.06542	0.00117984	0.000000000000000E+000	3.59707e+07	0.000000000000000E+000	0.000000000000000E+000	1.09194	1.09194	0.0000000E+000	0.000000000000000E+000	0.0111687	2.18187
1	1	0	1	0	0	0	421	10	1.12016	10.0036	4.2111	4.2111	0	1.16975	11	-1.06593	0.00126685	0.000000000000000E+000	3.72683e+07	0.000000000000000E+000	0.000000000000000E+000	1.16975	1.16975	0.0000000E+000	0.000000000000000E+000	0.0112056	2.18609
1	1	0	1	0	0	0	449	10	1.12207	10.004	4.4912	4.4912	0	1.24756	11	-1.06547	0.00135407	0.000000000000000E+000	3.90858e+07	0.000000000000000E+000	0.000000000000000E+000	1.24756	1.24756	0.0000000E+000	0.000000000000000E+000	0.0112251	2.18754
1	1	0	1	0	0	0	477	10	1.12651	10.003	4.77131	4.77131	0	1.32536	11	-1.06633	0.00144156	0.000000000000000E+000	3.99794e+07	0.000000000000000E+000	0.000000000000000E+000	1.32536	1.32536	0.0000000E+000	0.000000000000000E+000	0.0112685	2.19283
1	1	0	1	0	0	0	505	10	1.13035	10.0036	5.05141	5.05141	0	1.40317	11	-1.06678	0.00152934	0.000000000000000E+000	4.10063e+07	0.000000000000000E+000	0.000000000000000E+000	1.40317	1.40317	0.0000000E+000	0.000000000000000E+000	0.0113075	2.19713
1	1	0	1	0	0	0	533	10	1.13324	10.0028	5.33152	5.33152	0	1.48098	11	-1.06755	0.00161739	0.000000000000000E+000	4.22896e+07	0.000000000000000E+000	0.000000000000000E+000	1.48098	1.48098	0.0000000E+000	0.000000000000000E+000	0.0113355	2.20078
1	1	0	1	0	0	0	561	10	1.13607	10.0037	5.61162	5.61162	0	1.55878	11	-1.06879	0.00170564	0.000000000000000E+000	4.35313e+07	0.000000000000000E+000	0.000000000000000E+000	1.55878	1.55878	0.0000000E+000	0.000000000000000E+000	0.0113649	2.20487
1	1	0	1	0	0	0	589	10	1.13821	10.0033	5.89173	5.89173	0	1.63659	11	-1.06965	0.00179418	0.000000000000000E+000	4.49576e+07	0.000000000000000E+000	0.000000000000000E+000	1.63659	1.63659	0.0000000E+000	0.000000000000000E+000	0.0113859	2.20787
1	1	0	1	0	0	0	617	10	1.14153	10.0041	6.17183	6.17183	0	1.7144	11	-1.07015	0.00188292	0.000000000000000E+000	4.59321e+07	0.000000000000000E+000	0.000000000000000E+000	1.7144	1.7144	0.0000000E+000	0.000000000000000E+000	0.0114201	2.21168
1	1	0	1	0	0	0	645	10	1.14455	10.0036	6.45193	6.45193	0	1.7922	11	-1.07106	0.00197191	0.000000000000000E+000	4.69607e+07	0.000000000000000E+000	0.000000000000000E+000	1.7922	1.7922	0.0000000E+000	0.000000000000000E+000	0.0114496	2.21561
1	1	0	1	0	0	0	673	10	1.14835	10.0032	6.73204	6.73204	0	1.87001	11	-1.07182	0.00206114	0.000000000000000E+000	4.76833e+07	0.000000000000000E+000	0.000000000000000E+000	1.87001	1.87001	0.0000000E+000	0.000000000000000E+000	0.0114871	2.22016
1	1	0	1	0	0	0	701	10	1.15035	10.0034	7.01214	7.01214	0	1.94782	11	-1.07265	0.00215059	0.000000000000000E+000	4.89722e+07	0.000000000000000E+000	0.000000000000000E+000	1.94782	1.94782	0.0000000E+000	0.000000000000000E+000	0.0115074	2.223
1	1	0	1	0	0	0	729	10	1.15294	10.0036	7.29225	7.29225	0	2.02562	11	-1.07182	0.00224021	0.000000000000000E+000	5.00236e+07	0.000000000000000E+000	0.000000000000000E+000	2.02562	2.02562	0.0000000E+000	0.000000000000000E+000	0.0115335	2.22476
1	1	0	1	0	0	0	757	10	1.15466	10.0028	7.57235	7.57235	0	2.10343	11	-1.07261	0.00232996	0.000000000000000E+000	5.13379e+07	0.000000000000000E+000	0.000000000000000E+000	2.10343	2.10343	0.0000000E+000	0.000000000000000E+000	0.0115499	2.22728
1	1	0	1	0	0	0	785	10	1.15675	10.0043	7.85245	7.85245	0	2.18124	11	-1.07359	0.0024199	0.000000000000000E+000	5.24954e+07	0.000000000000000E+000	0.000000000000000E+000	2.18124	2.18124	0.0000000E+000	0.000000000000000E+000	0.0115724	2.23033
1	1	0	1	0	0	0	813	10	1.1596	10.0031	8.13256	8.13256	0	2.25904	11	-1.07442	0.00251	0.000000000000000E+000	5.33502e+07	0.000000000000000E+000	0.000000000000000E+000	2.25904	2.25904	0.0000000E+000	0.000000000000000E+000	0.0115996	2.23402
1	1	0	1	0	0	0	841	10	1.1619	10.0037	8.41266	8.41266	0	2.33685	11	-1.07518	0.00260031	0.000000000000000E+000	5.43671e+07	0.000000000000000E+000	0.000000000000000E+000	2.33685	2.33685	0.0000000E+000	0.000000000000000E+000	0.0116233	2.23708
1	1	0	1	0	0	0	869	10	1.16426	10.0033	8.69277	8.69277	0	2.41466	11	-1.07613	0.0026908	0.000000000000000E+000	5.53341e+07	0.000000000000000E+000	0.000000000000000E+000	2.41466	2.41466	0.0000000E+000	0.000000000000000E+000	0.0116465	2.24039
1	1	0	1	0	0	0	897	10	1.16651	10.0035	8.97287	8.97287	0	2.49246	11	-1.0767	0.00278146	0.000000000000000E+000	5.63117e+07	0.000000000000000E+000	0.000000000000000E+000	2.49246	2.49246	0.0000000E+000	0.000000000000000E+000	0.0116692	2.2432
1	1	0	1	0	0	0	925	10	1.16956	10.004	9.25297	9.25297	0	2.57027	11	-1.07732	0.00287232	0.000000000000000E+000	5.69789e+07	0.000000000000000E+000	0.000000000000000E+000	2.57027	2.57027	0.0000000E+000	0.000000000000000E+000	0.0117002	2.24688
1	1	0	1	0	0	0	953	10	1.17067	10.0042	9.53308	9.53308	0	2.64808	11	-1.07792	0.00296331	0.000000000000000E+000	5.8303e+07	0.000000000000000E+000	0.000000000000000E+000	2.64808	2.64808	0.0000000E+000	0.000000000000000E+000	0.0117117	2.2486
1	1	0	1	0	0	0	981	10	1.17337	10.0031	9.81318	9.81318	0	2.72588	11	-1.07515	0.00305447	0.000000000000000E+000	5.9041e+07	0.000000000000000E+000	0.000000000000000E+000	2.72588	2.72588	0.0000000E+000	0.000000000000000E+000	0.0117374	2.24852
1	1	0	1	0	0	0	1009	10	1.17516	10.0034	10.0933	10.0933	0	2.80369	11	-1.07619	0.00314577	0.000000000000000E+000	6.0081e+07	0.000000000000000E+000	0.000000000000000E+000	2.80369	2.80369	0.0000000E+000	0.000000000000000E+000	0.0117556	2.25135
1	1	0	1	0	0	0	1037	10	1.17583	10.0038	10.3734	10.3734	0	2.8815	11	-1.07742	0.00323723	0.000000000000000E+000	6.15011e+07	0.000000000000000E+000	0.000000000000000E+000	2.8815	2.8815	0.0000000E+000	0.000000000000000E+000	0.0117628	2.25326
1	1	0	1	0	0	0	1065	10	1.1768	10.0041	10.6535	10.6535	0	2.9593	11	-1.07338	0.00332863	0.000000000000000E+000	6.28025e+07	0.000000000000000E+000	0.000000000000000E+000	2.9593	2.9593	0.0000000E+000	0.000000000000000E+000	0.0117729	2.25018
1	1	0	1	0	0	0	1093	10	1.17834	10.003	10.9336	10.9336	0	3.03711	11	-1.07393	0.00342021	0.000000000000000E+000	6.38729e+07	0.000000000000000E+000	0.000000000000000E+000	3.03711	3.03711	0.0000000E+000	0.000000000000000E+000	0.0117869	2.25227
1	1	0	1	0	0	0	1121	10	1.18049	10.0043	11.2137	11.2137	0	3.11492	11	-1.07406	0.00351192	0.000000000000000E+000	6.46977e+07	0.000000000000000E+000	0.000000000000000E+000	3.11492	3.11492	0.0000000E+000	0.000000000000000E+000	0.01181	2.25455
1	1	0	1	0	0	0	1149	10	1.18207	10.004	11.4938	11.4938	0	3.19272	11	-1.07503	0.00360381	0.000000000000000E+000	6.57137e+07	0.000000000000000E+000	0.000000000000000E+000	3.19272	3.19272	0.0000000E+000	0.000000000000000E+000	0.0118254	2.2571
1	1	0	1	0	0	0	1177	10	1.18305	10.0038	11.7739	11.7739	0	3.27053	11	-1.07685	0.00369582	0.000000000000000E+000	6.69402e+07	0.000000000000000E+000	0.000000000000000E+000	3.27053	3.27053	0.0000000E+000	0.000000000000000E+000	0.011835	2.2599
1	1	0	1	0	0	0	1205	10	1.18574	10.0036	12.054	12.054	0	3.34834	11	-1.07563	0.003788	0.000000000000000E+000	6.75007e+07	0.000000000000000E+000	0.000000000000000E+000	3.34834	3.34834	0.0000000E+000	0.000000000000000E+000	0.0118616	2.26137
1	1	0	1	0	0	0	1233	10	1.18665	10.0038	12.3341	12.3341	0	3.42614	11	-1.07615	0.00388029	0.000000000000000E+000	6.87196e+07	0.000000000000000E+000	0.000000000000000E+000	3.42614	3.42614	0.0000000E+000	0.000000000000000E+000	0.011871	2.26279
1	1	0	1	0	0	0	1261	10	1.18864	10.0036	12.6142	12.6142	0	3.50395	11	-1.07754	0.0039727	0.000000000000000E+000	6.95099e+07	0.000000000000000E+000	0.000000000000000E+000	3.50395	3.50395	0.0000000E+000	0.000000000000000E+000	0.0118907	2.26618
1	1	0	1	0	0	0	1289	10	1.19123	10.0035	12.8943	12.8943	0	3.58176	11	-1.07805	0.00406528	0.000000000000000E+000	7.00532e+07	0.000000000000000E+000	0.000000000000000E+000	3.58176	3.58176	0.0000000E+000	0.000000000000000E+000	0.0119165	2.26928
1	1	0	1	0	0	0	1317	10	1.19245	10.0044	13.1744	13.1744	0	3.65956	11	-1.07726	0.00415805	0.000000000000000E+000	7.11022e+07	0.000000000000000E+000	0.000000000000000E+000	3.65956	3.65956	0.0000000E+000	0.000000000000000E+000	0.0119298	2.26972
1	1	0	1	0	0	0	1345	10	1.18988	10.0044	13.4545	13.4545	0	3.73737	11	-1.07699	0.00425076	0.000000000000000E+000	7.36356e+07	0.000000000000000E+000	0.000000000000000E+000	3.73737	3.73737	0.0000000E+000	0.000000000000000E+000	0.0119041	2.26688
1	1	0	1	0	0	0	1373	10	1.19101	10.0041	13.7346	13.7346	0	3.81517	11	-1.07881	0.00434344	0.000000000000000E+000	7.47078e+07	0.000000000000000E+000	0.000000000000000E+000	3.81517	3.81517	0.0000000E+000	0.000000000000000E+000	0.0119149	2.26982
1	1	0	1	0	0	0	1401	10	1.1946	10.004	14.0147	14.0147	0	3.89298	11	-1.07846	0.00443629	0.000000000000000E+000	7.47718e+07	0.000000000000000E+000	0.000000000000000E+000	3.89298	3.89298	0.0000000E+000	0.000000000000000E+000	0.0119507	2.27305
1	1	0	1	0	0	0	1429	10	1.19572	10.0036	14.2948	14.2948	0	3.97079	11	-1.07904	0.00452932	0.000000000000000E+000	7.58126e+07	0.000000000000000E+000	0.000000000000000E+000	3.97079	3.97079	0.0000000E+000	0.000000000000000E+000	0.0119615	2.27476
1	1	0	1	0	0	0	1457	10	1.19913	10.0034	14.5749	14.5749	0	4.04859	11	-1.07946	0.00462253	0.000000000000000E+000	7.59232e+07	0.000000000000000E+000	0.000000000000000E+000	4.04859	4.04859	0.0000000E+000	0.000000000000000E+000	0.0119955	2.2786
1	1	0	1	0	0	0	1485	10	1.20169	10.0044	14.855	14.855	0	4.1264	11	-1.07973	0.0047159	0.000000000000000E+000	7.63654e+07	0.000000000000000E+000	0.000000000000000E+000	4.1264	4.1264	0.0000000E+000	0.000000000000000E+000	0.0120222	2.28142
1	1	0	1	0	0	0	1513	10	1.20411	10.0043	15.1351	15.1351	0	4.20421	11	-1.08079	0.00480945	0.000000000000000E+000	7.68484e+07	0.000000000000000E+000	0.000000000000000E+000	4.20421	4.20421	0.0000000E+000	0.000000000000000E+000	0.0120463	2.28491
1	1	0	1	0	0	0	1541	10	1.20604	10.0039	15.4153	15.4153	0	4.28201	11	-1.08083	0.00490316	0.000000000000000E+000	7.75112e+07	0.000000000000000E+000	0.000000000000000E+000	4.28201	4.28201	0.0000000E+000	0.000000000000000E+000	0.0120651	2.28687
1	1	0	1	0	0	0	1569	10	1.20937	10.0037	15.6954	15.6954	0	4.35982	11	-1.08194	0.00499713	0.000000000000000E+000	7.76212e+07	0.000000000000000E+000	0.000000000000000E+000	4.35982	4.35982	0.0000000E+000	0.000000000000000E+000	0.0120982	2.29131
1	1	0	1	0	0	0	1597	10	1.21164	10.0045	15.9755	15.9755	0	4.43763	11	-1.08128	0.0050913	0.000000000000000E+000	7.81287e+07	0.000000000000000E+000	0.000000000000000E+000	4.43763	4.43763	0.0000000E+000	0.000000000000000E+000	0.0121219	2.29292
1	1	0	1	0	0	0	1625	10	1.21403	10.004	16.2556	16.2556	0	4.51544	11	-1.08056	0.00518566	0.000000000000000E+000	7.85788e+07	0.000000000000000E+000	0.000000000000000E+000	4.51544	4.51544	0.0000000E+000	0.000000000000000E+000	0.0121452	2.29459
1	1	0	1	0	0	0	1653	10	1.21595	10.0041	16.5357	16.5357	0	4.59324	11	-1.07966	0.00528018	0.000000000000000E+000	7.91984e+07	0.000000000000000E+000	0.000000000000000E+000	4.59324	4.59324	0.0000000E+000	0.000000000000000E+000	0.0121645	2.29561
1	1	0	1	0	0	0	1681	10	1.21767	10.0038	16.8158	16.8158	0	4.67105	11	-1.08083	0.00537481	0.000000000000000E+000	7.98843e+07	0.000000000000000E+000	0.000000000000000E+000	4.67105	4.67105	0.0000000E+000	0.000000000000000E+000	0.0121812	2.29849
1	1	0	1	0	0	0	1709	10	1.21939	10.0039	17.0959	17.0959	0	4.74886	11	-1.08185	0.0054696	0.000000000000000E+000	8.0554e+07	0.000000000000000E+000	0.000000000000000E+000	4.74886	4.74886	0.0000000E+000	0.000000000000000E+000	0.0121987	2.30124
1	1	0	1	0	0	0	1737	10	1.22134	10.0039	17.376	17.376	0	4.82666	11	-1.08264	0.00556458	0.000000000000000E+000	8.11306e+07	0.000000000000000E+000	0.000000000000000E+000	4.82666	4.82666	0.0000000E+000	0.000000000000000E+000	0.0122181	2.30397
1	1	0	1	0	0	0	1765	10	1.22251	10.0035	17.6561	17.6561	0	4.90447	11	-1.0839	0.00565965	0.000000000000000E+000	8.1988e+07	0.000000000000000E+000	0.000000000000000E+000	4.90447	4.90447	0.0000000E+000	0.000000000000000E+000	0.0122294	2.30641
1	1	0	1	0	0	0	1793	10	1.22606	10.0036	17.9362	17.9362	0	4.98228	11	-1.08359	0.00575494	0.000000000000000E+000	8.19398e+07	0.000000000000000E+000	0.000000000000000E+000	4.98228	4.98228	0.0000000E+000	0.000000000000000E+000	0.012265	2.30965
1	1	0	1	0	0	0	1821	10	1.22723	10.0039	18.2163	18.2163	0	5.06009	11	-1.08449	0.0058504	0.000000000000000E+000	8.2776e+07	0.000000000000000E+000	0.000000000000000E+000	5.06009	5.06009	0.0000000E+000	0.000000000000000E+000	0.0122771	2.31172
1	1	0	1	0	0	0	1849	10	1.23052	10.003	18.4964	18.4964	0	5.13789	11	-1.08452	0.00594603	0.000000000000000E+000	8.28098e+07	0.000000000000000E+000	0.000000000000000E+000	5.13789	5.13789	0.0000000E+000	0.000000000000000E+000	0.0123089	2.31504
1	1	0	1	0	0	0	1877	10	1.23149	10.0034	18.7765	18.7765	0	5.2157	11	-1.08556	0.00604179	0.000000000000000E+000	8.37025e+07	0.000000000000000E+000	0.000000000000000E+000	5.2157	5.2157	0.0000000E+000	0.000000000000000E+000	0.0123191	2.31704
1	1	0	1	0	0	0	1905	10	1.23079	10.004	19.0566	19.0566	0	5.29351	11	-1.08607	0.00613767	0.000000000000000E+000	8.5216e+07	0.000000000000000E+000	0.000000000000000E+000	5.29351	5.29351	0.0000000E+000	0.000000000000000E+000	0.0123128	2.31686
1	1	0	1	0	0	0	1933	10	1.23567	10.0041	19.3367	19.3367	0	5.37131	11	-1.08652	0.00623368	0.000000000000000E+000	8.46208e+07	0.000000000000000E+000	0.000000000000000E+000	5.37131	5.37131	0.0000000E+000	0.000000000000000E+000	0.0123619	2.3222
1	1	0	1	0	0	0	1961	10	1.23734	10.0039	19.6168	19.6168	0	5.44912	11	-1.08689	0.00632982	0.000000000000000E+000	8.52235e+07	0.000000000000000E+000	0.000000000000000E+000	5.44912	5.44912	0.0000000E+000	0.000000000000000E+000	0.0123783	2.32424
1	1	0	1	0	0	0	1989	10	1.23872	10.0035	19.8969	19.8969	0	5.52693	11	-1.08595	0.00642616	0.000000000000000E+000	8.59256e+07	0.000000000000000E+000	0.000000000000000E+000	5.52693	5.52693	0.0000000E+000	0.000000000000000E+000	0.0123916	2.32467
1	1	0	1	0	0	0	2017	10	1.24249	10.0035	20.177	20.177	0	5.60473	11	-1.08613	0.0065227	0.000000000000000E+000	8.57404e+07	0.000000000000000E+000	0.000000000000000E+000	5.60473	5.60473	0.0000000E+000	0.000000000000000E+000	0.0124293	2.32862
1	1	0	1	0	0	0	2045	10	1.24479	10.0037	20.4571	20.4571	0	5.68254	11	-1.08679	0.00661942	0.000000000000000E+000	8.60895e+07	0.000000000000000E+000	0.000000000000000E+000	5.68254	5.68254	0.0000000E+000	0.000000000000000E+000	0.0124525	2.33158
1	1	0	1	0	0	0	2073	10	1.24748	10.0041	20.7373	20.7373	0	5.76035	11	-1.08753	0.00671635	0.000000000000000E+000	8.62905e+07	0.000000000000000E+000	0.000000000000000E+000	5.76035	5.76035	0.0000000E+000	0.000000000000000E+000	0.0124799	2.33501
1	1	0	1	0	0	0	2101	10	1.24824	10.004	21.0174	21.0174	0	5.83816	11	-1.08837	0.00681339	0.000000000000000E+000	8.71806e+07	0.000000000000000E+000	0.000000000000000E+000	5.83816	5.83816	0.0000000E+000	0.000000000000000E+000	0.0124874	2.33662
1	1	0	1	0	0	0	2129	10	1.25116	10.0036	21.2975	21.2975	0	5.91596	11	-1.08957	0.00691057	0.000000000000000E+000	8.72863e+07	0.000000000000000E+000	0.000000000000000E+000	5.91596	5.91596	0.0000000E+000	0.000000000000000E+000	0.0125161	2.34073
1	1	0	1	0	0	0	2157	10	1.25305	10.0038	21.5776	21.5776	0	5.99377	11	-1.08874	0.00700802	0.000000000000000E+000	8.77546e+07	0.000000000000000E+000	0.000000000000000E+000	5.99377	5.99377	0.0000000E+000	0.000000000000000E+000	0.0125352	2.34179
1	1	0	1	0	0	0	2185	10	1.25534	10.0038	21.8577	21.8577	0	6.07158	11	-1.09194	0.00710564	0.000000000000000E+000	8.8074e+07	0.000000000000000E+000	0.000000000000000E+000	6.07158	6.07158	0.0000000E+000	0.000000000000000E+000	0.0125581	2.34728
1	1	0	1	0	0	0	2213	10	1.25702	10.0038	22.1378	22.1378	0	6.14938	11	-1.09051	0.00720344	0.000000000000000E+000	8.86007e+07	0.000000000000000E+000	0.000000000000000E+000	6.14938	6.14938	0.0000000E+000	0.000000000000000E+000	0.012575	2.34753
1	1	0	1	0	0	0	2241	10	1.26195	10.0045	22.4179	22.4179	0	6.22719	11	-1.09109	0.00730146	0.000000000000000E+000	8.79879e+07	0.000000000000000E+000	0.000000000000000E+000	6.22719	6.22719	0.0000000E+000	0.000000000000000E+000	0.0126252	2.35304
1	1	0	1	0	0	0	2269	10	1.26412	10.0033	22.698	22.698	0	6.305	11	-1.09219	0.00739971	0.000000000000000E+000	8.83335e+07	0.000000000000000E+000	0.000000000000000E+000	6.305	6.305	0.0000000E+000	0.000000000000000E+000	0.0126454	2.35631
1	1	0	1	0	0	0	2297	10	1.26543	10.0038	22.9781	22.9781	0	6.3828	11	-1.09219	0.00749817	0.000000000000000E+000	8.89691e+07	0.000000000000000E+000	0.000000000000000E+000	6.3828	6.3828	0.0000000E+000	0.000000000000000E+000	0.0126592	2.35763
1	1	0	1	0	0	0	2325	10	1.26826	10.0036	23.2582	23.2582	0	6.46061	11	-1.09203	0.00759679	0.000000000000000E+000	8.9078e+07	0.000000000000000E+000	0.000000000000000E+000	6.46061	6.46061	0.0000000E+000	0.000000000000000E+000	0.0126872	2.3603
1	1	0	1	0	0	0	2353	10	1.27119	10.0038	23.5383	23.5383	0	6.53842	11	-1.09316	0.00769558	0.000000000000000E+000	8.91507e+07	0.000000000000000E+000	0.000000000000000E+000	6.53842	6.53842	0.0000000E+000	0.000000000000000E+000	0.0127167	2.36435
1	1	0	1	0	0	0	2381	10	1.27485	10.0036	23.8184	23.8184	0	6.61622	11	-1.09306	0.00779458	0.000000000000000E+000	8.89799e+07	0.000000000000000E+000	0.000000000000000E+000	6.61622	6.61622	0.0000000E+000	0.000000000000000E+000	0.0127531	2.36791
1	1	0	1	0	0	0	2409	10	1.27787	10.0036	24.0985	24.0985	0	6.69403	11	-1.09365	0.00789383	0.000000000000000E+000	8.90195e+07	0.000000000000000E+000	0.000000000000000E+000	6.69403	6.69403	0.0000000E+000	0.000000000000000E+000	0.0127833	2.37152
1	1	0	1	0	0	0	2437	10	1.28047	10.0039	24.3786	24.3786	0	6.77184	11	-1.09389	0.00799332	0.000000000000000E+000	8.91982e+07	0.000000000000000E+000	0.000000000000000E+000	6.77184	6.77184	0.0000000E+000	0.000000000000000E+000	0.0128097	2.37436
1	1	0	1	0	0	0	2465	10	1.2817	10.0034	24.6587	24.6587	0	6.84964	11	-1.09385	0.00809294	0.000000000000000E+000	8.98195e+07	0.000000000000000E+000	0.000000000000000E+000	6.84964	6.84964	0.0000000E+000	0.000000000000000E+000	0.0128214	2.37555
1	1	0	1	0	0	0	2493	10	1.28393	10.0026	24.9388	24.9388	0	6.92745	11	-1.09243	0.00819275	0.000000000000000E+000	9.01066e+07	0.000000000000000E+000	0.000000000000000E+000	6.92745	6.92745	0.0000000E+000	0.000000000000000E+000	0.0128426	2.37636
1	1	0	1	0	0	0	2521	10	1.28588	10.0036	25.2189	25.2189	0	7.00526	11	-1.095	0.00829274	0.000000000000000E+000	9.04835e+07	0.000000000000000E+000	0.000000000000000E+000	7.00526	7.00526	0.0000000E+000	0.000000000000000E+000	0.0128634	2.38087
1	1	0	1	0	0	0	2549	10	1.2881	10.0045	25.499	25.499	0	7.08306	11	-1.09412	0.00839287	0.000000000000000E+000	9.07656e+07	0.000000000000000E+000	0.000000000000000E+000	7.08306	7.08306	0.0000000E+000	0.000000000000000E+000	0.0128868	2.38222
1	1	0	1	0	0	0	2577	10	1.29015	10.0036	25.7791	25.7791	0	7.16087	11	-1.095	0.00849317	0.000000000000000E+000	9.10959e+07	0.000000000000000E+000	0.000000000000000E+000	7.16087	7.16087	0.0000000E+000	0.000000000000000E+000	0.0129062	2.38515
1	1	0	1	0	0	0	2605	10	1.29412	10.0036	26.0592	26.0592	0	7.23868	11	-1.09548	0.00859366	0.000000000000000E+000	9.0812e+07	0.000000000000000E+000	0.000000000000000E+000	7.23868	7.23868	0.0000000E+000	0.000000000000000E+000	0.0129459	2.3896
1	1	0	1	0	0	0	2633	10	1.29597	10.0042	26.3393	26.3393	0	7.31648	11	-1.09612	0.0086944	0.000000000000000E+000	9.11992e+07	0.000000000000000E+000	0.000000000000000E+000	7.31648	7.31648	0.0000000E+000	0.000000000000000E+000	0.0129652	2.39209
1	1	0	1	0	0	0	2661	10	1.29935	10.0037	26.6194	26.6194	0	7.39429	11	-1.09536	0.00879532	0.000000000000000E+000	9.11057e+07	0.000000000000000E+000	0.000000000000000E+000	7.39429	7.39429	0.0000000E+000	0.000000000000000E+000	0.0129983	2.3947
1	1	0	1	0	0	0	2689	10	1.29968	10.0037	26.8996	26.8996	0	7.4721	11	-1.09553	0.00889633	0.000000000000000E+000	9.19597e+07	0.000000000000000E+000	0.000000000000000E+000	7.4721	7.4721	0.0000000E+000	0.000000000000000E+000	0.0130016	2.39521
1	1	0	1	0	0	0	2717	10	1.30338	10.0036	27.1797	27.1797	0	7.5499	11	-1.09633	0.00899757	0.000000000000000E+000	9.17561e+07	0.000000000000000E+000	0.000000000000000E+000	7.5499	7.5499	0.0000000E+000	0.000000000000000E+000	0.0130385	2.39971
1	1	0	1	0	0	0	2745	10	1.30466	10.0039	27.4598	27.4598	0	7.62771	11	-1.09743	0.00909905	0.000000000000000E+000	9.23041e+07	0.000000000000000E+000	0.000000000000000E+000	7.62771	7.62771	0.0000000E+000	0.000000000000000E+000	0.0130516	2.40209
1	1	0	1	0	0	0	2773	10	1.30699	10.0045	27.7399	27.7399	0	7.70552	11	-1.09759	0.00920067	0.000000000000000E+000	9.25204e+07	0.000000000000000E+000	0.000000000000000E+000	7.70552	7.70552	0.0000000E+000	0.000000000000000E+000	0.0130758	2.40458
1	1	0	1	0	0	0	2801	10	1.30914	10.004	28.02	28.02	0	7.78332	11	-1.09897	0.00930243	0.000000000000000E+000	9.27881e+07	0.000000000000000E+000	0.000000000000000E+000	7.78332	7.78332	0.0000000E+000	0.000000000000000E+000	0.0130966	2.40812
1	1	0	1	0	0	0	2829	10	1.31367	10.0036	28.3001	28.3001	0	7.86113	11	-1.09908	0.00940452	0.000000000000000E+000	9.23296e+07	0.000000000000000E+000	0.000000000000000E+000	7.86113	7.86113	0.0000000E+000	0.000000000000000E+000	0.0131414	2.41276
1	1	0	1	0	0	0	2857	10	1.31718	10.0034	28.5802	28.5802	0	7.93894	11	-1.09939	0.00950682	0.000000000000000E+000	9.21879e+07	0.000000000000000E+000	0.000000000000000E+000	7.93894	7.93894	0.0000000E+000	0.000000000000000E+000	0.0131764	2.41657
1	1	0	1	0	0	0	2885	10	1.31293	10.0033	28.8603	28.8603	0	8.01674	11	-1.09982	0.00960916	0.000000000000000E+000	9.4388e+07	0.000000000000000E+000	0.000000000000000E+000	8.01674	8.01674	0.0000000E+000	0.000000000000000E+000	0.0131336	2.41275
1	1	0	1	0	0	0	2913	10	1.31756	10.0048	29.1404	29.1404	0	8.09455	11	-1.10022	0.00971166	0.000000000000000E+000	9.38826e+07	0.000000000000000E+000	0.000000000000000E+000	8.09455	8.09455	0.0000000E+000	0.000000000000000E+000	0.0131819	2.41778
1	1	0	1	0	0	0	2941	10	1.32258	10.0039	29.4205	29.4205	0	8.17236	11	-1.10123	0.00981441	0.000000000000000E+000	9.32764e+07	0.000000000000000E+000	0.000000000000000E+000	8.17236	8.17236	0.0000000E+000	0.000000000000000E+000	0.0132309	2.42381
1	1	0	1	0	0	0	2969	10	1.3249	10.0044	29.7006	29.7006	0	8.25016	11	-1.10098	0.00991727	0.000000000000000E+000	9.34749e+07	0.000000000000000E+000	0.000000000000000E+000	8.25016	8.25016	0.0000000E+000	0.000000000000000E+000	0.0132549	2.42588
1	1	0	1	0	0	0	2997	10	1.32676	10.0034	29.9807	29.9807	0	8.32797	11	-1.09997	0.0100203	0.000000000000000E+000	9.38069e+07	0.000000000000000E+000	0.000000000000000E+000	8.32797	8.32797	0.0000000E+000	0.000000000000000E+000	0.0132722	2.42674
1	1	0	1	0	0	0	3025	10	1.33687	10.0034	30.2608	30.2608	0	8.40578	11	-1.10095	0.010124	0.000000000000000E+000	9.17812e+07	0.000000000000000E+000	0.000000000000000E+000	8.40578	8.40578	0.0000000E+000	0.000000000000000E+000	0.0133733	2.43782
1	1	0	1	0	0	0	3053	10	1.34001	10.0038	30.5409	30.5409	0	8.48358	11	-1.10119	0.0102279	0.000000000000000E+000	9.1757e+07	0.000000000000000E+000	0.000000000000000E+000	8.48358	8.48358	0.0000000E+000	0.000000000000000E+000	0.0134051	2.4412
1	1	0	1	0	0	0	3081	10	1.3371	10.0034	30.821	30.821	0	8.56139	11	-1.10369	0.0103318	0.000000000000000E+000	9.34145e+07	0.000000000000000E+000	0.000000000000000E+000	8.56139	8.56139	0.0000000E+000	0.000000000000000E+000	0.0133756	2.4408
1	1	0	1	0	0	0	3109	10	1.34129	10.0035	31.1011	31.1011	0	8.6392	11	-1.10105	0.0104359	0.000000000000000E+000	9.30828e+07	0.000000000000000E+000	0.000000000000000E+000	8.6392	8.6392	0.0000000E+000	0.000000000000000E+000	0.0134176	2.44234
1	1	0	1	0	0	0	3137	10	1.34327	10.0038	31.3812	31.3812	0	8.717	11	-1.10277	0.0105404	0.000000000000000E+000	9.33676e+07	0.000000000000000E+000	0.000000000000000E+000	8.717	8.717	0.0000000E+000	0.000000000000000E+000	0.0134378	2.44603
1	1	0	1	0	0	0	3165	10	1.33724	10.004	31.6613	31.6613	0	8.79481	11	-1.10227	0.010645	0.000000000000000E+000	9.59226e+07	0.000000000000000E+000	0.000000000000000E+000	8.79481	8.79481	0.0000000E+000	0.000000000000000E+000	0.0133777	2.43951
1	1	0	1	0	0	0	3193	10	1.34588	10.0032	31.9414	31.9414	0	8.87262	11	-1.10285	0.0107495	0.000000000000000E+000	9.43005e+07	0.000000000000000E+000	0.000000000000000E+000	8.87262	8.87262	0.0000000E+000	0.000000000000000E+000	0.0134631	2.44874
1	1	0	1	0	0	0	3221	10	1.34978	10.0038	32.2215	32.2215	0	8.95042	11	-1.10445	0.0108544	0.000000000000000E+000	9.4046e+07	0.000000000000000E+000	0.000000000000000E+000	8.95042	8.95042	0.0000000E+000	0.000000000000000E+000	0.013503	2.45422
1	1	0	1	0	0	0	3249	10	1.34801	10.0037	32.5016	32.5016	0	9.02823	11	-1.10475	0.0109596	0.000000000000000E+000	9.5355e+07	0.000000000000000E+000	0.000000000000000E+000	9.02823	9.02823	0.0000000E+000	0.000000000000000E+000	0.0134851	2.45276
1	1	0	1	0	0	0	3277	10	1.34166	10.0043	32.7817	32.7817	0	9.10604	11	-1.105	0.0110645	0.000000000000000E+000	9.80021e+07	0.000000000000000E+000	0.000000000000000E+000	9.10604	9.10604	0.0000000E+000	0.000000000000000E+000	0.0134224	2.44666
1	1	0	1	0	0	0	3305	10	1.35635	10.0034	33.0618	33.0618	0	9.18384	11	-1.10378	0.0111698	0.000000000000000E+000	9.46816e+07	0.000000000000000E+000	0.000000000000000E+000	9.18384	9.18384	0.0000000E+000	0.000000000000000E+000	0.0135682	2.46013
1	1	0	1	0	0	0	3333	10	1.35775	10.0034	33.3419	33.3419	0	9.26165	11	-1.10394	0.0112757	0.000000000000000E+000	9.51022e+07	0.000000000000000E+000	0.000000000000000E+000	9.26165	9.26165	0.0000000E+000	0.000000000000000E+000	0.0135822	2.4617
1	1	0	1	0	0	0	3361	10	1.35669	10.0043	33.622	33.622	0	9.33946	11	-1.1035	0.0113811	0.000000000000000E+000	9.61945e+07	0.000000000000000E+000	0.000000000000000E+000	9.33946	9.33946	0.0000000E+000	0.000000000000000E+000	0.0135727	2.46018
1	1	0	1	0	0	0	3389	10	1.36069	10.0036	33.9021	33.9021	0	9.41726	11	-1.10482	0.0114869	0.000000000000000E+000	9.58978e+07	0.000000000000000E+000	0.000000000000000E+000	9.41726	9.41726	0.0000000E+000	0.000000000000000E+000	0.0136118	2.46551
1	1	0	1	0	0	0	3417	10	1.36346	10.0047	34.1823	34.1823	0	9.49507	11	-1.10506	0.0115928	0.000000000000000E+000	9.59368e+07	0.000000000000000E+000	0.000000000000000E+000	9.49507	9.49507	0.0000000E+000	0.000000000000000E+000	0.013641	2.46852
1	1	0	1	0	0	0	3445	10	1.36289	10.0033	34.4624	34.4624	0	9.57288	11	-1.10705	0.0116988	0.000000000000000E+000	9.68782e+07	0.000000000000000E+000	0.000000000000000E+000	9.57288	9.57288	0.0000000E+000	0.000000000000000E+000	0.0136335	2.46994
1	1	0	1	0	0	0	3473	10	1.35758	10.0036	34.7425	34.7425	0	9.65068	11	-1.10654	0.0118047	0.000000000000000E+000	9.91472e+07	0.000000000000000E+000	0.000000000000000E+000	9.65068	9.65068	0.0000000E+000	0.000000000000000E+000	0.0135806	2.46412
1	1	0	1	0	0	0	3501	10	1.35919	10.0035	35.0226	35.0226	0	9.72849	11	-1.10654	0.0119102	0.000000000000000E+000	9.94891e+07	0.000000000000000E+000	0.000000000000000E+000	9.72849	9.72849	0.0000000E+000	0.000000000000000E+000	0.0135967	2.46572
1	1	0	1	0	0	0	3529	10	1.3549	10.0043	35.3027	35.3027	0	9.8063	11	-1.10755	0.0120157	0.000000000000000E+000	1.01523e+08	0.000000000000000E+000	0.000000000000000E+000	9.8063	9.8063	0.0000000E+000	0.000000000000000E+000	0.0135548	2.46245
1	1	0	1	0	0	0	3557	10	1.35982	10.0039	35.5828	35.5828	0	9.8841	11	-1.10832	0.0121213	0.000000000000000E+000	1.009e+08	0.000000000000000E+000	0.000000000000000E+000	9.8841	9.8841	0.0000000E+000	0.000000000000000E+000	0.0136035	2.46814
1	1	0	1	0	0	0	3585	10	1.35765	10.0045	35.8629	35.8629	0	9.96191	11	-1.10839	0.012227	0.000000000000000E+000	1.02323e+08	0.000000000000000E+000	0.000000000000000E+000	9.96191	9.96191	0.0000000E+000	0.000000000000000E+000	0.0135826	2.46604
1	1	0	1	0	0	0	3613	10	1.34319	10.0026	36.143	36.143	0	10.0397	11	-1.10949	0.0123327	0.000000000000000E+000	1.07559e+08	0.000000000000000E+000	0.000000000000000E+000	10.0397	10.0397	0.0000000E+000	0.000000000000000E+000	0.0134354	2.45268
1	1	0	1	0	0	0	3641	10	1.35102	10.0033	36.4231	36.4231	0	10.1175	11	-1.11015	0.0124381	0.000000000000000E+000	1.05925e+08	0.000000000000000E+000	0.000000000000000E+000	10.1175	10.1175	0.0000000E+000	0.000000000000000E+000	0.0135146	2.46117
1	1	0	1	0	0	0	3669	10	1.36837	10.0044	36.7032	36.7032	0	10.1953	11	-1.11004	0.0125435	0.000000000000000E+000	1.01613e+08	0.000000000000000E+000	0.000000000000000E+000	10.1953	10.1953	0.0000000E+000	0.000000000000000E+000	0.0136897	2.47841
1	1	0	1	0	0	0	3697	10	1.34926	10.0028	36.9833	36.9833	0	10.2731	11	-1.10993	0.0126494	0.000000000000000E+000	1.08107e+08	0.000000000000000E+000	0.000000000000000E+000	10.2731	10.2731	0.0000000E+000	0.000000000000000E+000	0.0134964	2.45919
1	1	0	1	0	0	0	3725	10	1.38065	10.0036	37.2634	37.2634	0	10.3509	11	-1.11073	0.0127556	0.000000000000000E+000	9.97708e+07	0.000000000000000E+000	0.000000000000000E+000	10.3509	10.3509	0.0000000E+000	0.000000000000000E+000	0.0138115	2.49138
1	1	0	1	0	0	0	3753	10	1.34916	10.0036	37.5435	37.5435	0	10.4288	11	-1.11043	0.0128606	0.000000000000000E+000	1.09778e+08	0.000000000000000E+000	0.000000000000000E+000	10.4288	10.4288	0.0000000E+000	0.000000000000000E+000	0.0134964	2.45959
1	1	0	1	0	0	0	3781	10	1.35778	10.0038	37.8236	37.8236	0	10.5066	11	-1.11161	0.012966	0.000000000000000E+000	1.07878e+08	0.000000000000000E+000	0.000000000000000E+000	10.5066	10.5066	0.0000000E+000	0.000000000000000E+000	0.0135829	2.46939
1	1	0	1	0	0	0	3809	10	1.35446	10.0038	38.1037	38.1037	0	10.5844	11	-1.11225	0.0130699	0.000000000000000E+000	1.09715e+08	0.000000000000000E+000	0.000000000000000E+000	10.5844	10.5844	0.0000000E+000	0.000000000000000E+000	0.0135498	2.46671
1	1	0	1	0	0	0	3837	10	1.3496	10.004	38.3838	38.3838	0	10.6622	11	-1.1126	0.0131755	0.000000000000000E+000	1.1209e+08	0.000000000000000E+000	0.000000000000000E+000	10.6622	10.6622	0.0000000E+000	0.000000000000000E+000	0.0135014	2.4622
1	1	0	1	0	0	0	3865	10	1.3553	10.0038	38.6639	38.6639	0	10.74	11	-1.11398	0.013279	0.000000000000000E+000	1.11058e+08	0.000000000000000E+000	0.000000000000000E+000	10.74	10.74	0.0000000E+000	0.000000000000000E+000	0.0135582	2.46928
1	1	0	1	0	0	0	3893	10	1.30867	10.0036	38.944	38.944	0	10.8178	11	-1.113	0.0133839	0.000000000000000E+000	1.29163e+08	0.000000000000000E+000	0.000000000000000E+000	10.8178	10.8178	0.0000000E+000	0.000000000000000E+000	0.0130914	2.42168
1	1	0	1	0	0	0	3921	10	1.34799	10.0038	39.2241	39.2241	0	10.8956	11	-1.11393	0.0134879	0.000000000000000E+000	1.15084e+08	0.000000000000000E+000	0.000000000000000E+000	10.8956	10.8956	0.0000000E+000	0.000000000000000E+000	0.013485	2.46192
1	1	0	1	0	0	0	3949	10	1.34082	10.0036	39.5042	39.5042	0	10.9734	11	-1.11397	0.013593	0.000000000000000E+000	1.18397e+08	0.000000000000000E+000	0.000000000000000E+000	10.9734	10.9734	0.0000000E+000	0.000000000000000E+000	0.013413	2.45479
1	1	0	1	0	0	0	3977	10	1.34579	10.0034	39.7843	39.7843	0	11.0512	11	-1.11463	0.0136974	0.000000000000000E+000	1.17489e+08	0.000000000000000E+000	0.000000000000000E+000	11.0512	11.0512	0.0000000E+000	0.000000000000000E+000	0.0134624	2.46041
1	1	0	1	0	0	0	4005	10	1.34015	10.0039	40.0644	40.0644	0	11.129	11	-1.11536	0.0138012	0.000000000000000E+000	1.20317e+08	0.000000000000000E+000	0.000000000000000E+000	11.129	11.129	0.0000000E+000	0.000000000000000E+000	0.0134068	2.45551
1	1	0	1	0	0	0	4033	10	1.33194	10.0045	40.3445	40.3445	0	11.2068	11	-1.11459	0.0139046	0.000000000000000E+000	1.24222e+08	0.000000000000000E+000	0.000000000000000E+000	11.2068	11.2068	0.0000000E+000	0.000000000000000E+000	0.0133254	2.44653
1	1	0	1	0	0	0	4061	10	1.33996	10.0038	40.6247	40.6247	0	11.2846	11	-1.1143	0.0140098	0.000000000000000E+000	1.22072e+08	0.000000000000000E+000	0.000000000000000E+000	11.2846	11.2846	0.0000000E+000	0.000000000000000E+000	0.0134047	2.45425
1	1	0	1	0	0	0	4089	10	1.33526	10.0043	40.9048	40.9048	0	11.3624	11	-1.11526	0.0141135	0.000000000000000E+000	1.24674e+08	0.000000000000000E+000	0.000000000000000E+000	11.3624	11.3624	0.0000000E+000	0.000000000000000E+000	0.0133584	2.45052
1	1	0	1	0	0	0	4117	10	1.32985	10.0029	41.1849	41.1849	0	11.4402	11	-1.11528	0.0142173	0.000000000000000E+000	1.27631e+08	0.000000000000000E+000	0.000000000000000E+000	11.4402	11.4402	0.0000000E+000	0.000000000000000E+000	0.0133023	2.44513
1	1	0	1	0	0	0	4145	10	1.3297	10.0035	41.465	41.465	0	11.518	11	-1.11649	0.0143208	0.000000000000000E+000	1.28561e+08	0.000000000000000E+000	0.000000000000000E+000	11.518	11.518	0.0000000E+000	0.000000000000000E+000	0.0133016	2.44618
1	1	0	1	0	0	0	4173	10	1.3552	10.0031	41.7451	41.7451	0	11.5959	11	-1.11724	0.014425	0.000000000000000E+000	1.19944e+08	0.000000000000000E+000	0.000000000000000E+000	11.5959	11.5959	0.0000000E+000	0.000000000000000E+000	0.0135563	2.47244
1	1	0	1	0	0	0	4201	10	1.36295	10.0041	42.0252	42.0252	0	11.6737	11	-1.118	0.0145299	0.000000000000000E+000	1.18119e+08	0.000000000000000E+000	0.000000000000000E+000	11.6737	11.6737	0.0000000E+000	0.000000000000000E+000	0.0136351	2.48095
1	1	0	1	0	0	0	4229	10	1.3434	10.003	42.3053	42.3053	0	11.7515	11	-1.11896	0.0146342	0.000000000000000E+000	1.25818e+08	0.000000000000000E+000	0.000000000000000E+000	11.7515	11.7515	0.0000000E+000	0.000000000000000E+000	0.0134381	2.46236
1	1	0	1	0	0	0	4257	10	1.3301	10.0038	42.5854	42.5854	0	11.8293	11	-1.11865	0.0147376	0.000000000000000E+000	1.31867e+08	0.000000000000000E+000	0.000000000000000E+000	11.8293	11.8293	0.0000000E+000	0.000000000000000E+000	0.0133061	2.44875
1	1	0	1	0	0	0	4285	10	1.339	10.0035	42.8655	42.8655	0	11.9071	11	-1.11909	0.0148424	0.000000000000000E+000	1.29175e+08	0.000000000000000E+000	0.000000000000000E+000	11.9071	11.9071	0.0000000E+000	0.000000000000000E+000	0.0133947	2.45809
1	1	0	1	0	0	0	4313	10	1.32221	10.0036	43.1456	43.1456	0	11.9849	11	-1.11862	0.0149461	0.000000000000000E+000	1.36951e+08	0.000000000000000E+000	0.000000000000000E+000	11.9849	11.9849	0.0000000E+000	0.000000000000000E+000	0.0132269	2.44082
1	1	0	1	0	0	0	4341	10	1.34615	10.004	43.4257	43.4257	0	12.0627	11	-1.12003	0.0150506	0.000000000000000E+000	1.28104e+08	0.000000000000000E+000	0.000000000000000E+000	12.0627	12.0627	0.0000000E+000	0.000000000000000E+000	0.0134669	2.46618
1	1	0	1	0	0	0	4369	10	1.33803	10.0035	43.7058	43.7058	0	12.1405	11	-1.12013	0.0151546	0.000000000000000E+000	1.32094e+08	0.000000000000000E+000	0.000000000000000E+000	12.1405	12.1405	0.0000000E+000	0.000000000000000E+000	0.013385	2.45816
1	1	0	1	0	0	0	4397	10	1.32827	10.0031	43.9859	43.9859	0	12.2183	11	-1.12084	0.0152589	0.000000000000000E+000	1.36982e+08	0.000000000000000E+000	0.000000000000000E+000	12.2183	12.2183	0.0000000E+000	0.000000000000000E+000	0.0132868	2.44911
1	1	0	1	0	0	0	4425	10	1.31808	10.0033	44.266	44.266	0	12.2961	11	-1.1198	0.015363	0.000000000000000E+000	1.42371e+08	0.000000000000000E+000	0.000000000000000E+000	12.2961	12.2961	0.0000000E+000	0.000000000000000E+000	0.0131852	2.43788
1	1	0	1	0	0	0	4453	10	1.35308	10.0044	44.5461	44.5461	0	12.3739	11	-1.12022	0.0154667	0.000000000000000E+000	1.28778e+08	0.000000000000000E+000	0.000000000000000E+000	12.3739	12.3739	0.0000000E+000	0.000000000000000E+000	0.0135367	2.4733
1	1	0	1	0	0	0	4481	10	1.31732	10.0029	44.8262	44.8262	0	12.4517	11	-1.1209	0.01557	0.000000000000000E+000	1.44526e+08	0.000000000000000E+000	0.000000000000000E+000	12.4517	12.4517	0.0000000E+000	0.000000000000000E+000	0.013177	2.43822
1	1	0	1	0	0	0	4509	10	1.32486	10.0041	45.1063	45.1063	0	12.5295	11	-1.12052	0.0156744	0.000000000000000E+000	1.41981e+08	0.000000000000000E+000	0.000000000000000E+000	12.5295	12.5295	0.0000000E+000	0.000000000000000E+000	0.013254	2.44538
1	1	0	1	0	0	0	4537	10	1.36608	10.0036	45.3864	45.3864	0	12.6073	11	-1.12151	0.0157782	0.000000000000000E+000	1.26455e+08	0.000000000000000E+000	0.000000000000000E+000	12.6073	12.6073	0.0000000E+000	0.000000000000000E+000	0.0136658	2.48759
1	1	0	1	0	0	0	4565	10	1.36389	10.0036	45.6665	45.6665	0	12.6851	11	-1.12209	0.0158834	0.000000000000000E+000	1.28015e+08	0.000000000000000E+000	0.000000000000000E+000	12.6851	12.6851	0.0000000E+000	0.000000000000000E+000	0.0136438	2.48599
1	1	0	1	0	0	0	4593	10	1.33179	10.0033	45.9466	45.9466	0	12.763	11	-1.12252	0.0159881	0.000000000000000E+000	1.41537e+08	0.000000000000000E+000	0.000000000000000E+000	12.763	12.763	0.0000000E+000	0.000000000000000E+000	0.0133223	2.45431
1	1	0	1	0	0	0	4621	10	1.35103	10.0034	46.2267	46.2267	0	12.8408	11	-1.1218	0.0160923	0.000000000000000E+000	1.3443e+08	0.000000000000000E+000	0.000000000000000E+000	12.8408	12.8408	0.0000000E+000	0.000000000000000E+000	0.0135149	2.47284
1	1	0	1	0	0	0	4649	10	1.32979	10.0033	46.5068	46.5068	0	12.9186	11	-1.12251	0.016197	0.000000000000000E+000	1.44149e+08	0.000000000000000E+000	0.000000000000000E+000	12.9186	12.9186	0.0000000E+000	0.000000000000000E+000	0.0133023	2.4523
1	1	0	1	0	0	0	4677	10	1.36815	10.0028	46.7869	46.7869	0	12.9964	11	-1.1234	0.0163018	0.000000000000000E+000	1.29607e+08	0.000000000000000E+000	0.000000000000000E+000	12.9964	12.9964	0.0000000E+000	0.000000000000000E+000	0.0136854	2.49156
1	1	0	1	0	0	0	4705	10	1.34913	10.0036	47.067	47.067	0	13.0742	11	-1.12414	0.0164061	0.000000000000000E+000	1.37638e+08	0.000000000000000E+000	0.000000000000000E+000	13.0742	13.0742	0.0000000E+000	0.000000000000000E+000	0.0134961	2.47327
1	1	0	1	0	0	0	4733	10	1.36392	10.0032	47.3471	47.3471	0	13.152	11	-1.12341	0.0165115	0.000000000000000E+000	1.32715e+08	0.000000000000000E+000	0.000000000000000E+000	13.152	13.152	0.0000000E+000	0.000000000000000E+000	0.0136436	2.48733
1	1	0	1	0	0	0	4761	10	1.33624	10.0037	47.6272	47.6272	0	13.2298	11	-1.12389	0.0166157	0.000000000000000E+000	1.44731e+08	0.000000000000000E+000	0.000000000000000E+000	13.2298	13.2298	0.0000000E+000	0.000000000000000E+000	0.0133673	2.46013
1	1	0	1	0	0	0	4789	10	1.35667	10.004	47.9073	47.9073	0	13.3076	11	-1.12258	0.0167201	0.000000000000000E+000	1.37072e+08	0.000000000000000E+000	0.000000000000000E+000	13.3076	13.3076	0.0000000E+000	0.000000000000000E+000	0.013572	2.47925
1	1	0	1	0	0	0	4817	10	1.33236	10.0032	48.1875	48.1875	0	13.3854	11	-1.12307	0.0168236	0.000000000000000E+000	1.48177e+08	0.000000000000000E+000	0.000000000000000E+000	13.3854	13.3854	0.0000000E+000	0.000000000000000E+000	0.0133279	2.45543
1	1	0	1	0	0	0	4845	10	1.32551	10.004	48.4676	48.4676	0	13.4632	11	-1.12449	0.0169275	0.000000000000000E+000	1.52249e+08	0.000000000000000E+000	0.000000000000000E+000	13.4632	13.4632	0.0000000E+000	0.000000000000000E+000	0.0132604	2.45
1	1	0	1	0	0	0	4873	10	1.36849	10.004	48.7477	48.7477	0	13.541	11	-1.12484	0.017032	0.000000000000000E+000	1.34914e+08	0.000000000000000E+000	0.000000000000000E+000	13.541	13.541	0.0000000E+000	0.000000000000000E+000	0.0136904	2.49333
1	1	0	1	0	0	0	4901	10	1.3443	10.0037	49.0278	49.0278	0	13.6188	11	-1.12476	0.0171358	0.000000000000000E+000	1.45426e+08	0.000000000000000E+000	0.000000000000000E+000	13.6188	13.6188	0.0000000E+000	0.000000000000000E+000	0.0134479	2.46905
1	1	0	1	0	0	0	4929	10	1.33308	10.0036	49.3079	49.3079	0	13.6966	11	-1.12511	0.0172399	0.000000000000000E+000	1.51288e+08	0.000000000000000E+000	0.000000000000000E+000	13.6966	13.6966	0.0000000E+000	0.000000000000000E+000	0.0133356	2.4582
1	1	0	1	0	0	0	4957	10	1.33209	10.0039	49.588	49.588	0	13.7744	11	-1.12529	0.0173443	0.000000000000000E+000	1.52612e+08	0.000000000000000E+000	0.000000000000000E+000	13.7744	13.7744	0.0000000E+000	0.000000000000000E+000	0.0133261	2.45738
1	1	0	1	0	0	0	4985	10	1.34753	10.0045	49.8681	49.8681	0	13.8522	11	-1.12527	0.0174492	0.000000000000000E+000	1.46512e+08	0.000000000000000E+000	0.000000000000000E+000	13.8522	13.8522	0.0000000E+000	0.000000000000000E+000	0.0134813	2.4728
1	1	0	1	0	0	0	5013	10	1.34883	10.0033	50.1482	50.1482	0	13.9301	11	-1.1259	0.0175538	0.000000000000000E+000	1.46776e+08	0.000000000000000E+000	0.000000000000000E+000	13.9301	13.9301	0.0000000E+000	0.000000000000000E+000	0.0134927	2.47473
1	1	0	1	0	0	0	5041	10	1.31368	10.0045	50.4283	50.4283	0	14.0079	11	-1.12624	0.0176589	0.000000000000000E+000	1.64521e+08	0.000000000000000E+000	0.000000000000000E+000	14.0079	14.0079	0.0000000E+000	0.000000000000000E+000	0.0131427	2.43992
1	1	0	1	0	0	0	5069	10	1.35541	10.004	50.7084	50.7084	0	14.0857	11	-1.12637	0.0177625	0.000000000000000E+000	1.45613e+08	0.000000000000000E+000	0.000000000000000E+000	14.0857	14.0857	0.0000000E+000	0.000000000000000E+000	0.0135595	2.48177
1	1	0	1	0	0	0	5097	10	1.33269	10.0039	50.9885	50.9885	0	14.1635	11	-1.12597	0.0178672	0.000000000000000E+000	1.56635e+08	0.000000000000000E+000	0.000000000000000E+000	14.1635	14.1635	0.0000000E+000	0.000000000000000E+000	0.0133321	2.45865
1	1	0	1	0	0	0	5125	10	1.33169	10.0033	51.2686	51.2686	0	14.2413	11	-1.12697	0.0179715	0.000000000000000E+000	1.5798e+08	0.000000000000000E+000	0.000000000000000E+000	14.2413	14.2413	0.0000000E+000	0.000000000000000E+000	0.0133212	2.45866
1	1	0	1	0	0	0	5153	10	1.33823	10.0036	51.5487	51.5487	0	14.3191	11	-1.12735	0.0180752	0.000000000000000E+000	1.55703e+08	0.000000000000000E+000	0.000000000000000E+000	14.3191	14.3191	0.0000000E+000	0.000000000000000E+000	0.0133871	2.46559
1	1	0	1	0	0	0	5181	10	1.34296	10.0033	51.8288	51.8288	0	14.3969	11	-1.12724	0.0181798	0.000000000000000E+000	1.54345e+08	0.000000000000000E+000	0.000000000000000E+000	14.3969	14.3969	0.0000000E+000	0.000000000000000E+000	0.0134341	2.4702
1	1	0	1	0	0	0	5209	10	1.33151	10.0036	52.1089	52.1089	0	14.4747	11	-1.12707	0.0182839	0.000000000000000E+000	1.60656e+08	0.000000000000000E+000	0.000000000000000E+000	14.4747	14.4747	0.0000000E+000	0.000000000000000E+000	0.01332	2.45859
1	1	0	1	0	0	0	5237	10	1.33725	10.0032	52.389	52.389	0	14.5525	11	-1.12683	0.0183876	0.000000000000000E+000	1.58711e+08	0.000000000000000E+000	0.000000000000000E+000	14.5525	14.5525	0.0000000E+000	0.000000000000000E+000	0.0133768	2.46408
1	1	0	1	0	0	0	5265	10	1.34304	10.0033	52.6691	52.6691	0	14.6303	11	-1.12704	0.0184919	0.000000000000000E+000	1.56813e+08	0.000000000000000E+000	0.000000000000000E+000	14.6303	14.6303	0.0000000E+000	0.000000000000000E+000	0.0134347	2.47008
1	1	0	1	0	0	0	5293	10	1.33738	10.0039	52.9492	52.9492	0	14.7081	11	-1.12782	0.0185958	0.000000000000000E+000	1.60347e+08	0.000000000000000E+000	0.000000000000000E+000	14.7081	14.7081	0.0000000E+000	0.000000000000000E+000	0.013379	2.4652
1	1	0	1	0	0	0	5321	10	1.34113	10.0036	53.2293	53.2293	0	14.7859	11	-1.12827	0.0187	0.000000000000000E+000	1.59385e+08	0.000000000000000E+000	0.000000000000000E+000	14.7859	14.7859	0.0000000E+000	0.000000000000000E+000	0.0134161	2.4694
1	1	0	1	0	0	0	5349	10	1.33699	10.0033	53.5094	53.5094	0	14.8637	11	-1.12861	0.0188034	0.000000000000000E+000	1.62237e+08	0.000000000000000E+000	0.000000000000000E+000	14.8637	14.8637	0.0000000E+000	0.000000000000000E+000	0.0133742	2.4656
1	1	0	1	0	0	0	5377	10	1.3292	10.0036	53.7895	53.7895	0	14.9415	11	-1.129	0.0189073	0.000000000000000E+000	1.67032e+08	0.000000000000000E+000	0.000000000000000E+000	14.9415	14.9415	0.0000000E+000	0.000000000000000E+000	0.0132968	2.45819
1	1	0	1	0	0	0	5405	10	1.35597	10.0031	54.0696	54.0696	0	15.0193	11	-1.1286	0.0190114	0.000000000000000E+000	1.55012e+08	0.000000000000000E+000	0.000000000000000E+000	15.0193	15.0193	0.0000000E+000	0.000000000000000E+000	0.0135639	2.48457
1	1	0	1	0	0	0	5433	10	1.34313	10.0031	54.3497	54.3497	0	15.0971	11	-1.12992	0.0191155	0.000000000000000E+000	1.61771e+08	0.000000000000000E+000	0.000000000000000E+000	15.0971	15.0971	0.0000000E+000	0.000000000000000E+000	0.0134355	2.47305
1	1	0	1	0	0	0	5461	10	1.34231	10.0038	54.6298	54.6298	0	15.175	11	-1.1298	0.0192194	0.000000000000000E+000	1.63001e+08	0.000000000000000E+000	0.000000000000000E+000	15.175	15.175	0.0000000E+000	0.000000000000000E+000	0.0134282	2.47212
1	1	0	1	0	0	0	5489	10	1.34025	10.004	54.9099	54.9099	0	15.2528	11	-1.13026	0.0193236	0.000000000000000E+000	1.64852e+08	0.000000000000000E+000	0.000000000000000E+000	15.2528	15.2528	0.0000000E+000	0.000000000000000E+000	0.0134078	2.47051
1	1	0	1	0	0	0	5517	10	1.33093	10.0031	55.19	55.19	0	15.3306	11	-1.12957	0.0194278	0.000000000000000E+000	1.70462e+08	0.000000000000000E+000	0.000000000000000E+000	15.3306	15.3306	0.0000000E+000	0.000000000000000E+000	0.0133134	2.4605
1	1	0	1	0	0	0	5545	10	1.33535	10.0031	55.4701	55.4701	0	15.4084	11	-1.1288	0.0195319	0.000000000000000E+000	1.69022e+08	0.000000000000000E+000	0.000000000000000E+000	15.4084	15.4084	0.0000000E+000	0.000000000000000E+000	0.0133576	2.46414
1	1	0	1	0	0	0	5573	10	1.33218	10.0032	55.7502	55.7502	0	15.4862	11	-1.12963	0.0196357	0.000000000000000E+000	1.71531e+08	0.000000000000000E+000	0.000000000000000E+000	15.4862	15.4862	0.0000000E+000	0.000000000000000E+000	0.013326	2.46181
1	1	0	1	0	0	0	5601	10	1.32172	10.0031	56.0304	56.0304	0	15.564	11	-1.12997	0.0197397	0.000000000000000E+000	1.78126e+08	0.000000000000000E+000	0.000000000000000E+000	15.564	15.564	0.0000000E+000	0.000000000000000E+000	0.0132212	2.45169
1	1	0	1	0	0	0	5629	10	1.33624	10.0041	56.3105	56.3105	0	15.6418	11	-1.13041	0.0198431	0.000000000000000E+000	1.71119e+08	0.000000000000000E+000	0.000000000000000E+000	15.6418	15.6418	0.0000000E+000	0.000000000000000E+000	0.0133679	2.46665
1	1	0	1	0	0	0	5657	10	1.33978	10.0033	56.5906	56.5906	0	15.7196	11	-1.13078	0.0199471	0.000000000000000E+000	1.70138e+08	0.000000000000000E+000	0.000000000000000E+000	15.7196	15.7196	0.0000000E+000	0.000000000000000E+000	0.0134023	2.47056
1	1	0	1	0	0	0	5685	10	1.33217	10.0042	56.8707	56.8707	0	15.7974	11	-1.13134	0.0200509	0.000000000000000E+000	1.74984e+08	0.000000000000000E+000	0.000000000000000E+000	15.7974	15.7974	0.0000000E+000	0.000000000000000E+000	0.0133273	2.46351
1	1	0	1	0	0	0	5713	10	1.33113	10.0042	57.1508	57.1508	0	15.8752	11	-1.13113	0.0201551	0.000000000000000E+000	1.76412e+08	0.000000000000000E+000	0.000000000000000E+000	15.8752	15.8752	0.0000000E+000	0.000000000000000E+000	0.0133169	2.46226
1	1	0	1	0	0	0	5738.8	10	1.33875	10.0039	57.4089	57.4089	0	15.9469	11	-1.13943	0.0202507	0.000000000000000E+000	1.73135e+08	0.000000000000000E+000	0.000000000000000E+000	15.9469	15.9469	0.0000000E+000	0.000000000000000E+000	0.0133927	2.47818