File: Lares Oxides/2024-6-18 FTO blank_KOH9999_CV1_C05.mpt
EC-Lab ASCII FILE
Nb header lines : 60

Cyclic Voltammetry

Run on channel : 5 (SN 39658)
User :
CE vs. WE compliance from -10 V to 10 V
Electrode connection : standard
Potential control : Ewe
Ewe ctrl range : min = -2.50 V, max = 2.50 V
Safety Limits :
	Do not start on E overload
Acquisition started on : 06/18/2024 16:24:45.142
Technique started on : 06/18/2024 16:24:45.142
Loaded Setting File :  C:\Users\sfolkman\OneDrive - New Mexico State University\Folkman Group Folder\Scott\2024-6-18 Titanium blank_KOH9999_CV.mps
Saved on :
	File : 2024-6-18 FTO blank_KOH9999_CV1_C05.mpr
	Directory : C:\Users\sfolkman\OneDrive - New Mexico State University\Folkman Group Folder\Scott\
	Host : 172.24.124.15
Device : VSP (SN 1910)
Address : USB
EC-Lab for windows v11.46 (software)
Internet server v11.40 (firmware)
Command interpretor v11.40 (firmware)
Electrode material : Au/Pd
Initial state :
Electrolyte : NaCl (0.2M)
Comments : Fe(CN)63-/Fe(CN)64- 5.10-3 M
Current amplifier : VSPB-4A
Reference electrode : SCE Saturated Calomel Electrode (0.241 V)
Electrode surface area : 0.001 cm²
Characteristic mass : 0.001 g
Equivalent Weight : 0.000 g/eq.
Density : 0.000 g/cm3
Volume (V) : 0.001 cm³
Cycle Definition : Charge/Discharge alternance
Ei (V)              0.000
vs.                 Eoc
dE/dt               10.000
dE/dt unit          mV/s
E1 (V)              1.000
vs.                 Ref
Step percent        50
N                   10
E range min (V)     -2.500
E range max (V)     2.500
I Range             Auto
I Range min         Unset
I Range max         Unset
I Range init        Unset
Bandwidth           4
E2 (V)              0.000
vs.                 Ref
nc cycles           2
Reverse Scan        1
Ef (V)              0.000
vs.                 Eoc

mode	ox/red	error	control changes	counter inc.	time/s	control/V	Ewe/V	<I>/mA	cycle number	(Q-Qo)/C	I Range	P/W
2	0	0	1	0	0.000000000000000E+000	-0.0818055	-0.0818387	-0.00315224	1	0.0000000E+000	13	2.57975e-07
2	1	0	1	0	0.555	-0.0762538	-0.0756546	3.2838e-05	1	4.52801e-08	13	-2.48435e-09
2	1	0	0	0	1.1552	-0.0702519	-0.0701962	3.14216e-05	1	1.02353e-07	13	-2.20568e-09
2	1	0	1	0	1.7554	-0.06425	-0.0637872	-2.64258e-05	1	1.61968e-07	13	1.68563e-09
2	1	0	0	0	2.3556	-0.0582482	-0.0581081	-6.22809e-05	1	2.22687e-07	13	3.61902e-09
2	1	0	1	0	2.9558	-0.0522463	-0.0520704	-8.56895e-05	1	2.8544e-07	13	4.46189e-09
2	1	0	0	0	3.556	-0.0462445	-0.0455288	-0.000118593	1	3.4977e-07	13	5.39938e-09
2	1	0	1	0	4.1562	-0.0402426	-0.040222	-0.000118781	1	4.15873e-07	13	4.77761e-09
2	1	0	0	0	4.7564	-0.0342407	-0.0338682	-0.000100503	1	4.83303e-07	13	3.40384e-09
2	1	0	1	0	5.3566	-0.0282389	-0.0280225	-6.23103e-05	1	5.52422e-07	13	1.74609e-09
2	1	0	0	0	5.9568	-0.022237	-0.0217886	4.13425e-06	1	6.23413e-07	13	-9.00795e-11
2	1	0	1	0	6.557	-0.0162351	-0.0153509	5.63232e-05	1	6.95955e-07	13	-8.64613e-10
2	1	0	0	0	7.1572	-0.0102333	-0.00968243	0.000101292	1	7.70186e-07	13	-9.8075e-10
2	1	0	1	0	7.7573	-0.00423209	-0.00344388	0.000133639	1	8.46255e-07	13	-4.60235e-10
2	1	0	1	0	8.3575	0.00177088	0.00215226	0.000145271	1	9.24726e-07	13	3.12661e-10
2	1	0	0	0	8.9576	0.00777229	0.00801051	0.000170943	1	1.00505e-06	13	1.36934e-09
2	1	0	1	0	9.5578	0.0137742	0.0141914	0.000200429	1	1.08684e-06	13	2.84437e-09
2	1	0	0	0	10.158	0.019776	0.0207574	0.000206404	1	1.16999e-06	13	4.28441e-09
2	1	0	1	0	10.7582	0.0257779	0.0259814	0.000202799	1	1.25551e-06	13	5.26899e-09
2	0	0	0	0	11.3584	0.0317797	0.0322292	0.000195749	1	1.34238e-06	13	6.30882e-09
2	0	0	1	0	11.9586	0.0377816	0.0381714	0.00014541	1	1.43163e-06	13	5.5505e-09
2	0	0	0	0	12.5588	0.0437835	0.0443353	0.00011769	1	1.52245e-06	13	5.21784e-09
2	1	0	1	0	13.159	0.0497853	0.0503868	8.2328e-05	1	1.61543e-06	13	4.14824e-09
2	0	0	0	0	13.7592	0.0557872	0.0561104	5.55275e-05	1	1.70984e-06	13	3.11567e-09
2	0	0	1	0	14.3594	0.061789	0.062373	9.95238e-05	1	1.8068e-06	13	6.2076e-09
2	0	0	0	0	14.9596	0.0677909	0.0676851	0.000153582	1	1.90581e-06	13	1.03952e-08
2	0	0	1	0	15.5598	0.0737927	0.0744261	0.000254902	1	2.00749e-06	13	1.89714e-08
2	0	0	0	0	16.16	0.0797946	0.080083	0.000317352	1	2.1108e-06	13	2.54145e-08
2	0	0	1	0	16.7601	0.0857965	0.0862739	0.000366715	1	2.21673e-06	13	3.16379e-08
2	0	0	1	0	17.3603	0.0917992	0.0922732	0.000408722	1	2.32465e-06	13	3.7714e-08
2	0	0	0	0	17.9604	0.0978002	0.0980623	0.000383264	1	2.43416e-06	13	3.75838e-08
2	0	0	1	0	18.5606	0.103802	0.104698	0.000359533	1	2.54627e-06	13	3.76425e-08
2	0	0	0	0	19.1608	0.109804	0.110043	0.000283853	1	2.66011e-06	13	3.12361e-08
2	0	0	1	0	19.761	0.115806	0.116364	0.000252558	1	2.77663e-06	13	2.93887e-08
2	0	0	0	0	20.3612	0.121808	0.122834	0.000202859	1	2.89517e-06	13	2.49179e-08
2	0	0	1	0	20.9614	0.127809	0.128024	0.000166554	1	3.01639e-06	13	2.13228e-08
2	0	0	0	0	21.5616	0.133811	0.13435	0.000166926	1	3.13919e-06	13	2.24265e-08
2	0	0	1	0	22.1618	0.139813	0.140225	0.00018561	1	3.26457e-06	13	2.60273e-08
2	0	0	0	0	22.762	0.145815	0.145865	0.000252756	1	3.39212e-06	13	3.68683e-08
2	0	0	1	0	23.3622	0.151817	0.152202	0.000302426	1	3.52229e-06	13	4.60298e-08
2	0	0	0	0	23.9624	0.157819	0.158435	0.000333068	1	3.65409e-06	13	5.27696e-08
2	0	0	1	0	24.5626	0.163821	0.164133	0.000380599	1	3.7883e-06	13	6.24689e-08
2	0	0	1	0	25.1627	0.169822	0.17017	0.00037497	1	3.92493e-06	13	6.38088e-08
2	0	0	1	0	25.7629	0.175825	0.176565	0.000373272	1	4.06347e-06	13	6.59068e-08
2	0	0	1	0	26.363	0.181826	0.18219	0.00035828	1	4.20378e-06	13	6.5275e-08
2	0	0	0	0	26.9632	0.187828	0.188305	0.000314768	1	4.3472e-06	13	5.92724e-08
2	0	0	1	0	27.5634	0.19383	0.194348	0.000235822	1	4.49262e-06	13	4.58316e-08
2	0	0	0	0	28.1636	0.199832	0.20017	0.000186353	1	4.64033e-06	13	3.73024e-08
2	0	0	1	0	28.7638	0.205834	0.206264	0.000148975	1	4.79031e-06	13	3.07283e-08
2	0	0	0	0	29.364	0.211835	0.212532	0.000115765	1	4.94238e-06	13	2.46038e-08
2	0	0	1	0	29.9642	0.217837	0.217975	0.00010958	1	5.09734e-06	13	2.38857e-08
2	1	0	0	0	30.5644	0.223839	0.22475	0.000114581	1	5.25433e-06	13	2.5752e-08
2	1	0	1	0	31.1646	0.229841	0.230008	0.000165801	1	5.414e-06	13	3.81354e-08
2	1	0	0	0	31.7648	0.235843	0.236324	0.000209975	1	5.57567e-06	13	4.96222e-08
2	1	0	1	0	32.365	0.241845	0.242455	0.000252923	1	5.73974e-06	13	6.13224e-08
2	1	0	0	0	32.9652	0.247847	0.248291	0.000284794	1	5.90585e-06	13	7.07118e-08
2	1	0	1	0	33.5654	0.253849	0.25458	0.000294207	1	6.07484e-06	13	7.4899e-08
2	1	0	1	0	34.1655	0.25985	0.260782	0.000293737	1	6.24542e-06	13	7.66013e-08
2	1	0	1	0	34.7657	0.265853	0.266352	0.000269295	1	6.41871e-06	13	7.17271e-08
2	1	0	1	0	35.3658	0.271854	0.272437	0.000256226	1	6.59404e-06	13	6.98055e-08
2	1	0	0	0	35.966	0.277856	0.27862	0.00020836	1	6.77184e-06	13	5.80533e-08
2	1	0	1	0	36.5662	0.283858	0.28437	0.000141659	1	6.95226e-06	13	4.02837e-08
2	1	0	0	0	37.1664	0.28986	0.29041	0.000120373	1	7.1351e-06	13	3.49576e-08
2	1	0	1	0	37.7666	0.295862	0.296501	9.75925e-05	1	7.32078e-06	13	2.89363e-08
2	1	0	0	0	38.3668	0.301863	0.302125	6.17919e-05	1	7.50902e-06	13	1.86689e-08
2	1	0	1	0	38.967	0.307865	0.308336	3.07685e-05	1	7.70013e-06	13	9.48706e-09
2	1	0	0	0	39.5672	0.313867	0.314374	3.18467e-05	1	7.89392e-06	13	1.00118e-08
2	1	0	1	0	40.1674	0.319869	0.320207	3.96128e-05	1	8.09105e-06	13	1.26843e-08
2	1	0	0	0	40.7676	0.325871	0.326512	4.8935e-05	1	8.29096e-06	13	1.59779e-08
2	1	0	1	0	41.3678	0.331873	0.332309	5.52289e-05	1	8.49399e-06	13	1.8353e-08
2	1	0	0	0	41.968	0.337875	0.338359	8.75128e-05	1	8.70006e-06	13	2.96108e-08
2	1	0	1	0	42.5681	0.343876	0.344269	0.000116153	1	8.90959e-06	13	3.99879e-08
2	1	0	1	0	43.1683	0.349879	0.349889	0.000138759	1	9.12243e-06	13	4.85502e-08
2	1	0	0	0	43.7684	0.35588	0.356116	0.000165842	1	9.33907e-06	13	5.90589e-08
2	1	0	1	0	44.3686	0.361882	0.362443	0.000215471	1	9.5589e-06	13	7.80962e-08
2	1	0	0	0	44.9688	0.367884	0.368237	0.000252161	1	9.78271e-06	13	9.28549e-08
2	1	0	1	0	45.569	0.373886	0.374113	0.000279024	1	1.00099e-05	13	1.04387e-07
2	1	0	0	0	46.1692	0.379888	0.380308	0.000331147	1	1.02415e-05	13	1.25938e-07
2	1	0	1	0	46.7694	0.385889	0.386518	0.000364069	1	1.0477e-05	13	1.40719e-07
2	1	0	0	0	47.3696	0.391891	0.392497	0.000365581	1	1.07165e-05	13	1.4349e-07
2	1	0	1	0	47.9698	0.397893	0.397962	0.000374324	1	1.09603e-05	13	1.48967e-07
2	1	0	0	0	48.57	0.403895	0.404482	0.000371462	1	1.12084e-05	13	1.5025e-07
2	1	0	1	0	49.1702	0.409897	0.410603	0.000330413	1	1.14613e-05	13	1.35669e-07
2	1	0	0	0	49.7704	0.415899	0.416093	0.000288864	1	1.17183e-05	13	1.20194e-07
2	1	0	1	0	50.3706	0.421901	0.42197	0.000260078	1	1.19806e-05	13	1.09745e-07
2	1	0	1	0	50.9707	0.427902	0.42823	0.000251402	1	1.22474e-05	13	1.07658e-07
2	1	0	1	0	51.5709	0.433904	0.434559	0.000258745	1	1.25198e-05	13	1.1244e-07
2	1	0	1	0	52.171	0.439906	0.440889	0.000254136	1	1.27976e-05	13	1.12046e-07
2	1	0	0	0	52.7712	0.445908	0.44665	0.000236975	1	1.3081e-05	13	1.05845e-07
2	1	0	1	0	53.3714	0.45191	0.452223	0.000242073	1	1.33704e-05	13	1.09471e-07
2	1	0	0	0	53.9716	0.457912	0.458325	0.000262327	1	1.36663e-05	13	1.20231e-07
2	1	0	1	0	54.5718	0.463914	0.464439	0.000289101	1	1.39686e-05	13	1.3427e-07
2	1	0	0	0	55.172	0.469915	0.470029	0.000345998	1	1.42781e-05	13	1.62629e-07
2	1	0	1	0	55.7722	0.475917	0.476333	0.000419462	1	1.45962e-05	13	1.99803e-07
2	1	0	0	0	56.3724	0.481919	0.482758	0.000486011	1	1.49232e-05	13	2.34625e-07
2	1	0	1	0	56.9726	0.487921	0.488275	0.000527482	1	1.52602e-05	13	2.57556e-07
2	1	0	0	0	57.5728	0.493923	0.494551	0.000569307	1	1.56078e-05	13	2.81551e-07
2	1	0	1	0	58.173	0.499925	0.500527	0.000612118	1	1.59676e-05	13	3.06381e-07
2	1	0	0	0	58.7732	0.505927	0.505642	0.000675604	1	1.63404e-05	13	3.41614e-07
2	1	0	1	0	59.3734	0.511928	0.512438	0.000716557	1	1.67272e-05	13	3.67191e-07
2	1	0	1	0	59.9735	0.51793	0.51863	0.000736837	1	1.7128e-05	13	3.82146e-07
2	1	0	1	0	60.5737	0.523933	0.524507	0.000771529	1	1.75445e-05	13	4.04672e-07
2	1	0	1	0	61.1738	0.529934	0.530801	0.000788719	1	1.79767e-05	13	4.18653e-07
2	1	0	0	0	61.774	0.535936	0.53674	0.000817826	1	1.8423e-05	13	4.3896e-07
2	1	0	1	0	62.3742	0.541938	0.54214	0.000838521	1	1.88832e-05	13	4.54595e-07
2	1	0	0	0	62.9744	0.54794	0.548212	0.000859851	1	1.93563e-05	13	4.71381e-07
2	1	0	1	0	63.5746	0.553941	0.554518	0.000858248	1	1.9841e-05	13	4.75914e-07
2	1	0	0	0	64.1748	0.559943	0.560852	0.000837312	1	2.03372e-05	13	4.69608e-07
2	1	0	1	0	64.775	0.565945	0.566508	0.000841841	1	2.08459e-05	13	4.76909e-07
2	1	0	0	0	65.3752	0.571947	0.572157	0.000842556	1	2.13697e-05	13	4.82074e-07
2	1	0	1	0	65.9754	0.577949	0.578406	0.000865414	1	2.19144e-05	13	5.00561e-07
2	1	0	0	0	66.5756	0.583951	0.583785	0.000902978	1	2.24884e-05	13	5.27145e-07
2	0	0	1	0	67.1758	0.589953	0.590264	0.000963751	1	2.31063e-05	13	5.68868e-07
2	0	0	0	0	67.776	0.595955	0.596378	0.00111437	1	2.379e-05	13	6.64588e-07
2	0	0	1	0	68.3761	0.601956	0.602475	0.00132186	1	2.45725e-05	13	7.96389e-07
2	1	0	1	0	68.9763	0.607959	0.6082	0.0016195	1	2.55009e-05	13	9.84978e-07
2	1	0	0	0	69.5764	0.61396	0.614438	0.00207639	1	2.66448e-05	13	1.27581e-06
2	1	0	1	0	70.1766	0.619962	0.619902	0.00274607	1	2.81048e-05	13	1.70229e-06
2	1	0	0	0	70.7768	0.625964	0.626585	0.00370789	1	3.00223e-05	13	2.32331e-06
2	1	0	1	0	71.377	0.631966	0.632377	0.00503145	1	3.25939e-05	13	3.18177e-06
2	1	0	0	0	71.9772	0.637967	0.638692	0.00686874	1	3.60846e-05	13	4.38701e-06
2	1	0	1	0	72.5774	0.643969	0.644233	0.00934307	1	4.08394e-05	13	6.01911e-06
2	1	0	0	0	73.1776	0.649971	0.650338	0.0126153	1	4.72913e-05	13	8.20419e-06
2	1	0	1	0	73.7778	0.655973	0.656548	0.0167994	1	5.59745e-05	13	1.10296e-05
2	1	0	0	0	74.378	0.661975	0.662791	0.0221378	1	6.75138e-05	13	1.46727e-05
2	1	0	1	0	74.9782	0.667977	0.66851	0.0287865	1	8.26558e-05	13	1.9244e-05
2	1	0	0	0	75.5784	0.673979	0.67426	0.0369566	1	0.000102241	13	2.49183e-05
2	1	0	1	0	76.1786	0.679981	0.680563	0.0468098	1	0.000127247	13	3.1857e-05
2	1	0	0	0	76.7788	0.685982	0.687031	0.0585339	1	0.000158724	13	4.02147e-05
2	1	0	1	0	77.3789	0.691984	0.692611	0.0722902	1	0.000197859	13	5.0069e-05
2	1	0	1	0	77.9791	0.697987	0.698511	0.0881282	1	0.000245878	13	6.15585e-05
2	1	0	0	0	78.6092	0.704288	0.70498	0.106549	1	0.000307512	12	7.51147e-05
2	1	0	1	0	79.2094	0.71029	0.71116	0.126423	1	0.000377581	12	8.99071e-05
2	1	0	0	0	79.8096	0.716292	0.717137	0.148427	1	0.00046028	12	0.000106442
2	1	0	1	0	80.4098	0.722294	0.722965	0.172434	1	0.000556808	12	0.000124663
2	1	0	0	0	81.01	0.728296	0.729099	0.197878	1	0.000668217	12	0.000144273
2	1	0	1	0	81.6102	0.734297	0.735038	0.222979	1	0.000795079	12	0.000163898
2	1	0	0	0	82.2104	0.740299	0.740989	0.247726	1	0.00093688	12	0.000183562
2	1	0	1	0	82.8106	0.746301	0.746585	0.275621	1	0.00109398	12	0.000205774
2	1	0	0	0	83.4108	0.752303	0.752992	0.302351	1	0.00126745	12	0.000227668
2	1	0	1	0	84.011	0.758305	0.758754	0.33023	1	0.00145748	12	0.000250563
2	1	0	0	0	84.6112	0.764307	0.764449	0.35556	1	0.00166351	12	0.000271808
2	1	0	1	0	85.2114	0.770309	0.770656	0.380855	1	0.00188476	12	0.000293508
2	1	0	1	0	85.8115	0.776309	0.776648	0.40951	1	0.00212238	12	0.000318045
2	1	0	1	0	86.4117	0.782312	0.782825	0.436285	1	0.00237673	12	0.000341535
2	1	0	1	0	87.0118	0.788314	0.788608	0.463389	1	0.00264748	12	0.000365432
2	1	0	0	0	87.612	0.794316	0.79455	0.48973	1	0.00293363	12	0.000389115
2	1	0	1	0	88.2122	0.800318	0.800703	0.515908	1	0.00323692	12	0.000413089
2	1	0	0	0	88.8124	0.80632	0.806387	0.544031	1	0.00355637	12	0.000438699
2	1	0	1	0	89.4126	0.812321	0.812658	0.57146	1	0.00389157	12	0.000464401
2	1	0	0	0	90.0128	0.818323	0.818571	0.600146	1	0.00424386	12	0.000491262
2	1	0	1	0	90.613	0.824325	0.824764	0.627195	1	0.00461249	12	0.000517288
2	1	0	0	0	91.2132	0.830327	0.830869	0.656272	1	0.00499839	12	0.000545276
2	1	0	1	0	91.8134	0.836329	0.836625	0.683411	1	0.00540098	12	0.000571759
2	1	0	0	0	92.4136	0.842331	0.843106	0.715981	1	0.00582203	12	0.000603648
2	1	0	1	0	93.0138	0.848333	0.84883	0.754044	1	0.00626423	12	0.000640055
2	1	0	0	0	93.614	0.854334	0.855022	0.790598	1	0.00672825	12	0.000675979
2	1	0	1	0	94.2142	0.860336	0.861213	0.829052	1	0.00721454	12	0.00071399
2	1	0	1	0	94.8143	0.866338	0.866944	0.869842	1	0.00772363	12	0.000754104
2	1	0	1	0	95.4145	0.87234	0.872415	0.916763	1	0.00825914	12	0.000799798
2	1	0	1	0	96.0146	0.878342	0.878846	0.960548	1	0.00882294	12	0.000844174
2	1	0	0	0	96.6148	0.884344	0.884862	1.0138	1	0.00941557	12	0.000897075
2	1	0	1	0	97.23	0.890496	0.890741	1.07177	1	0.0100569	12	0.000954667
2	1	0	0	0	97.8452	0.896648	0.896987	1.12592	1	0.0107329	11	0.00100994
2	1	0	1	0	98.4454	0.902649	0.903062	1.18969	1	0.0114289	11	0.00107436
2	1	0	0	0	99.0456	0.908651	0.909003	1.25552	1	0.0121618	11	0.00114127
2	1	0	1	0	99.6458	0.914653	0.915382	1.31547	1	0.0129329	11	0.00120415
2	1	0	0	0	100.246	0.920655	0.921329	1.3893	1	0.0137432	11	0.00128
2	1	0	1	0	100.846	0.926657	0.927433	1.46222	1	0.0145995	11	0.00135611
2	1	0	0	0	101.446	0.932659	0.933488	1.54314	1	0.0155011	11	0.0014405
2	1	0	1	0	102.047	0.938661	0.939227	1.6315	1	0.0164543	11	0.00153235
2	1	0	0	0	102.647	0.944663	0.94534	1.71613	1	0.0174601	11	0.00162233
2	1	0	1	0	103.247	0.950664	0.951199	1.8023	1	0.0185172	11	0.00171434
2	1	0	1	0	103.847	0.956665	0.957143	1.91339	1	0.0196424	11	0.00183138
2	1	0	1	0	104.447	0.962668	0.963248	2.00163	1	0.0208203	11	0.00192807
2	1	0	1	0	105.047	0.96867	0.969252	2.10941	1	0.0220529	11	0.00204455
2	1	0	0	0	105.648	0.974672	0.975108	2.19524	1	0.0233433	11	0.0021406
2	1	0	1	0	106.248	0.980674	0.981065	2.30742	1	0.0246922	11	0.00226373
2	1	0	0	0	106.848	0.986676	0.987111	2.39871	1	0.0261064	11	0.0023678
2	1	0	1	0	107.448	0.992677	0.993127	2.50855	1	0.0275758	11	0.0024913
2	1	0	0	0	108.048	0.998679	0.999444	2.62154	1	0.0291131	11	0.00262009
2	1	0	1	0	108.539	0.996479	0.99713	2.52073	1	0.0303855	11	0.0025135
2	1	0	0	0	109.139	0.990477	0.991245	2.35324	1	0.0318466	11	0.00233264
2	1	0	1	0	109.739	0.984475	0.98522	2.19248	1	0.0332078	11	0.00216007
2	1	0	0	0	110.34	0.978473	0.979166	2.03576	1	0.0344732	11	0.00199335
2	1	0	1	0	110.94	0.972471	0.972878	1.89638	1	0.0356519	11	0.00184495
2	1	0	0	0	111.54	0.966469	0.966943	1.76139	1	0.036748	11	0.00170316
2	1	0	1	0	112.14	0.960467	0.96087	1.63268	1	0.0377684	11	0.0015688
2	1	0	0	0	112.74	0.954466	0.954993	1.51656	1	0.0387142	11	0.00144831
2	1	0	1	0	113.341	0.948464	0.949206	1.40987	1	0.0395906	11	0.00133826
2	1	0	0	0	113.941	0.942462	0.942693	1.3041	1	0.0404027	11	0.00122936
2	1	0	1	0	114.541	0.93646	0.936931	1.20607	1	0.0411541	11	0.00113001
2	1	0	1	0	115.141	0.930458	0.931003	1.12351	1	0.0418552	11	0.00104599
2	1	0	1	0	115.741	0.924456	0.925137	1.044	1	0.0425034	11	0.00096584
2	1	0	1	0	116.341	0.918454	0.919204	0.963743	1	0.0431046	11	0.000885876
2	1	0	0	0	116.942	0.912453	0.912945	0.895443	1	0.0436609	11	0.000817491
2	1	0	1	0	117.542	0.906451	0.906715	0.837695	1	0.0441793	11	0.00075955
2	1	0	0	0	118.142	0.900449	0.900955	0.786787	1	0.0446677	11	0.000708859
2	1	0	1	0	118.742	0.894447	0.894808	0.723767	1	0.0451192	11	0.000647632
2	1	0	0	0	119.342	0.888445	0.889062	0.669749	1	0.045536	11	0.000595449
2	1	0	1	0	119.943	0.882443	0.883026	0.621105	1	0.0459237	11	0.000548452
2	1	0	0	0	120.543	0.876441	0.877171	0.582866	1	0.0462851	11	0.000511273
2	1	0	1	0	121.143	0.87044	0.871043	0.53642	1	0.0466204	11	0.000467245
2	1	0	0	0	121.743	0.864438	0.865145	0.500897	1	0.0469331	11	0.000433349
2	1	0	1	0	122.343	0.858436	0.859064	0.463509	1	0.0472223	11	0.000398184
2	1	0	0	0	122.974	0.852134	0.852418	0.434112	1	0.0475053	12	0.000370045
2	1	0	1	0	123.574	0.846132	0.846321	0.398847	1	0.0477551	12	0.000337552
2	1	0	1	0	124.174	0.84013	0.84033	0.372011	1	0.047986	12	0.000312612
2	1	0	1	0	124.774	0.834128	0.835011	0.344802	1	0.048202	12	0.000287913
2	1	0	1	0	125.374	0.828126	0.828752	0.320135	1	0.0484021	12	0.000265312
2	1	0	0	0	125.974	0.822125	0.822466	0.299762	1	0.0485873	12	0.000246544
2	1	0	1	0	126.575	0.816123	0.81684	0.277823	1	0.0487607	12	0.000226937
2	1	0	0	0	127.175	0.810121	0.81069	0.257414	1	0.0489217	12	0.000208683
2	1	0	1	0	127.775	0.804119	0.804637	0.238576	1	0.0490703	12	0.000191967
2	1	0	0	0	128.375	0.798117	0.798887	0.221006	1	0.0492083	12	0.000176559
2	1	0	1	0	128.975	0.792115	0.792982	0.205022	1	0.0493361	12	0.000162579
2	1	0	0	0	129.576	0.786113	0.786605	0.190092	1	0.0494546	12	0.000149527
2	1	0	1	0	130.176	0.780112	0.78062	0.177219	1	0.0495648	12	0.000138341
2	1	0	0	0	130.776	0.77411	0.774471	0.163	1	0.0496668	12	0.000126239
2	1	0	1	0	131.376	0.768108	0.768714	0.149787	1	0.0497605	12	0.000115143
2	1	0	0	0	131.976	0.762106	0.76252	0.137102	1	0.0498467	12	0.000104543
2	1	0	1	0	132.577	0.756104	0.756292	0.125039	1	0.0499254	12	9.45661e-05
2	1	0	1	0	133.177	0.750102	0.750847	0.113642	1	0.0499972	12	8.53275e-05
2	1	0	1	0	133.777	0.7441	0.74464	0.102628	1	0.0500622	12	7.64209e-05
2	1	0	1	0	134.377	0.738099	0.73848	0.0921112	1	0.0501208	12	6.80223e-05
2	1	0	0	0	134.977	0.732097	0.73229	0.0825271	1	0.0501733	12	6.04338e-05
2	1	0	1	0	135.577	0.726095	0.726575	0.0731265	1	0.0502201	12	5.31319e-05
2	1	0	0	0	136.178	0.720093	0.720028	0.0643037	1	0.0502614	12	4.63004e-05
2	1	0	1	0	136.778	0.714091	0.71426	0.0564565	1	0.0502977	12	4.03246e-05
2	1	0	0	0	137.378	0.708089	0.708462	0.0489874	1	0.0503294	12	3.47057e-05
2	1	0	1	0	138.008	0.701787	0.702166	0.0418928	1	0.050358	13	2.94157e-05
2	1	0	0	0	138.608	0.695785	0.696186	0.0355659	1	0.0503812	13	2.47604e-05
2	1	0	1	0	139.209	0.689784	0.690084	0.0298701	1	0.0504009	13	2.06129e-05
2	1	0	0	0	139.809	0.683782	0.684547	0.0248032	1	0.0504173	13	1.6979e-05
2	1	0	1	0	140.409	0.67778	0.678355	0.0203284	1	0.0504309	13	1.37898e-05
2	1	0	0	0	141.009	0.671778	0.672227	0.0164493	1	0.050442	13	1.10576e-05
2	1	0	1	0	141.609	0.665776	0.666078	0.0131578	1	0.050451	13	8.76412e-06
2	1	0	1	0	142.209	0.659774	0.660011	0.0103814	1	0.0504581	13	6.85183e-06
2	1	0	0	0	142.81	0.653772	0.654347	0.00810104	1	0.0504638	13	5.30089e-06
2	1	0	1	0	143.41	0.647771	0.648576	0.00621182	1	0.0504682	13	4.02884e-06
2	1	0	0	0	144.01	0.641769	0.642125	0.0047241	1	0.0504715	13	3.03346e-06
2	1	0	1	0	144.61	0.635767	0.635732	0.00354861	1	0.0504741	13	2.25596e-06
2	1	0	0	0	145.21	0.629765	0.630226	0.00265631	1	0.050476	13	1.67407e-06
2	1	0	1	0	145.811	0.623763	0.624043	0.00195402	1	0.0504774	13	1.2194e-06
2	1	0	0	0	146.411	0.617761	0.61839	0.00141729	1	0.0504784	13	8.76439e-07
2	1	0	1	0	147.011	0.611759	0.612291	0.00100526	1	0.0504792	13	6.15513e-07
2	1	0	0	0	147.611	0.605758	0.606559	0.000715943	1	0.0504797	13	4.34261e-07
2	1	0	1	0	148.211	0.599756	0.600298	0.000502424	1	0.0504801	13	3.01604e-07
2	1	0	0	0	148.812	0.593754	0.594109	0.000359285	1	0.0504803	13	2.13454e-07
2	1	0	1	0	149.412	0.587752	0.588267	0.000262498	1	0.0504805	13	1.54419e-07
2	1	0	0	0	150.012	0.58175	0.582206	0.000189939	1	0.0504806	13	1.10584e-07
2	1	0	1	0	150.612	0.575749	0.576387	0.000117391	1	0.0504807	13	6.76626e-08
2	1	0	1	0	151.212	0.569746	0.57011	8.53158e-05	1	0.0504807	13	4.86394e-08
2	1	0	0	0	151.812	0.563745	0.564475	5.20401e-05	1	0.0504808	13	2.93753e-08
2	1	0	1	0	152.413	0.557743	0.558392	3.15496e-05	1	0.0504808	13	1.7617e-08
2	1	0	0	0	153.013	0.551741	0.552544	1.12017e-05	1	0.0504808	13	6.18943e-09
2	1	0	1	0	153.613	0.545739	0.546333	-5.27925e-06	1	0.0504807	13	-2.88423e-09
2	1	0	0	0	154.213	0.539737	0.540344	-8.52102e-06	1	0.0504807	13	-4.60429e-09
2	1	0	1	0	154.813	0.533735	0.533991	-2.84688e-05	1	0.0504807	13	-1.52021e-08
2	1	0	0	0	155.414	0.527733	0.528228	-4.33377e-05	1	0.0504806	13	-2.28922e-08
2	1	0	1	0	156.014	0.521732	0.522402	-6.57301e-05	1	0.0504806	13	-3.43375e-08
2	1	0	0	0	156.614	0.51573	0.516483	-8.8015e-05	1	0.0504806	13	-4.54583e-08
2	1	0	1	0	157.214	0.509728	0.510331	-0.000114766	1	0.0504805	13	-5.85684e-08
2	1	0	0	0	157.814	0.503726	0.5044	-0.000137223	1	0.0504804	13	-6.92152e-08
2	1	0	1	0	158.415	0.497724	0.497968	-0.000156294	1	0.0504804	13	-7.78293e-08
2	1	0	1	0	159.015	0.491723	0.492185	-0.000173599	1	0.0504803	13	-8.54428e-08
2	1	0	1	0	159.615	0.48572	0.486451	-0.000182193	1	0.0504802	13	-8.86281e-08
2	1	0	1	0	160.215	0.479719	0.480169	-0.000181178	1	0.0504802	13	-8.69959e-08
2	1	0	0	0	160.815	0.473717	0.475049	-0.000199602	1	0.0504801	13	-9.48206e-08
2	1	0	1	0	161.415	0.467715	0.46774	-0.000222204	1	0.05048	13	-1.03934e-07
2	1	0	0	0	162.016	0.461713	0.461743	-0.000237098	1	0.0504799	13	-1.09479e-07
2	1	0	1	0	162.616	0.455711	0.456042	-0.000242299	1	0.0504798	13	-1.10499e-07
2	1	0	0	0	163.216	0.449709	0.450314	-0.000253201	1	0.0504797	13	-1.1402e-07
2	1	0	1	0	163.816	0.443707	0.443973	-0.000256993	1	0.0504796	13	-1.14098e-07
2	1	0	0	0	164.416	0.437705	0.437999	-0.000265695	1	0.0504795	13	-1.16374e-07
2	1	0	1	0	165.017	0.431704	0.432099	-0.000257846	1	0.0504794	13	-1.11415e-07
2	1	0	0	0	165.617	0.425702	0.426003	-0.000266073	1	0.0504793	13	-1.13348e-07
2	1	0	1	0	166.217	0.4197	0.419976	-0.000265831	1	0.0504792	13	-1.11643e-07
2	1	0	0	0	166.817	0.413698	0.413794	-0.000271074	1	0.0504791	13	-1.12169e-07
2	1	0	1	0	167.417	0.407696	0.40801	-0.000277937	1	0.050479	13	-1.13401e-07
2	1	0	1	0	168.017	0.401695	0.40192	-0.000267495	1	0.0504789	13	-1.07512e-07
2	1	0	1	0	168.618	0.395692	0.396256	-0.000247185	1	0.0504788	13	-9.79485e-08
2	1	0	1	0	169.218	0.389691	0.390259	-0.000248772	1	0.0504787	13	-9.70858e-08
2	1	0	0	0	169.818	0.383689	0.383672	-0.000246526	1	0.0504786	13	-9.45854e-08
2	1	0	1	0	170.418	0.377687	0.378163	-0.00024223	1	0.0504785	13	-9.16024e-08
2	1	0	0	0	171.018	0.371685	0.372071	-0.000236041	1	0.0504784	13	-8.78239e-08
2	1	0	1	0	171.619	0.365683	0.365969	-0.00024283	1	0.0504783	13	-8.88682e-08
2	1	0	0	0	172.219	0.359681	0.359892	-0.000240189	1	0.0504782	13	-8.64419e-08
2	1	0	1	0	172.819	0.353679	0.35405	-0.000232114	1	0.0504781	13	-8.21799e-08
2	1	0	0	0	173.419	0.347678	0.347947	-0.000236311	1	0.050478	13	-8.22238e-08
2	1	0	1	0	174.019	0.341676	0.341936	-0.000243566	1	0.0504779	13	-8.32838e-08
2	1	0	0	0	174.62	0.335674	0.335979	-0.00024482	1	0.0504778	13	-8.22544e-08
2	1	0	1	0	175.22	0.329672	0.329817	-0.000252766	1	0.0504777	13	-8.33664e-08
2	1	0	0	0	175.82	0.32367	0.324077	-0.000248761	1	0.0504776	13	-8.06177e-08
2	1	0	1	0	176.42	0.317669	0.318043	-0.000251842	1	0.0504775	13	-8.00968e-08
2	1	0	1	0	177.02	0.311666	0.311923	-0.000222349	1	0.0504774	13	-6.93558e-08
2	1	0	0	0	177.62	0.305665	0.30645	-0.000196614	1	0.0504773	13	-6.02525e-08
2	1	0	1	0	178.221	0.299663	0.300196	-0.000188675	1	0.0504772	13	-5.66394e-08
2	1	0	0	0	178.821	0.293661	0.294676	-0.000180075	1	0.0504771	13	-5.30637e-08
2	1	0	1	0	179.421	0.287659	0.288413	-0.000172038	1	0.050477	13	-4.9618e-08
2	1	0	0	0	180.021	0.281657	0.282307	-0.000164891	1	0.0504769	13	-4.65498e-08
2	1	0	1	0	180.621	0.275655	0.27639	-0.000155267	1	0.0504768	13	-4.29143e-08
2	1	0	0	0	181.222	0.269653	0.269998	-0.000149206	1	0.0504767	13	-4.02852e-08
2	1	0	1	0	181.822	0.263652	0.263965	-0.000149731	1	0.0504766	13	-3.95236e-08
2	1	0	0	0	182.422	0.25765	0.257785	-0.000141322	1	0.0504765	13	-3.64306e-08
2	1	0	1	0	183.022	0.251648	0.251702	-0.000140317	1	0.0504763	13	-3.53182e-08
2	1	0	0	0	183.622	0.245646	0.245943	-0.000144336	1	0.0504762	13	-3.54983e-08
2	1	0	1	0	184.223	0.239644	0.23975	-0.000140573	1	0.0504761	13	-3.37024e-08
2	1	0	0	0	184.823	0.233642	0.233682	-0.000152029	1	0.050476	13	-3.55264e-08
2	1	0	1	0	185.423	0.227641	0.228213	-0.000165921	1	0.0504759	13	-3.78654e-08
2	1	0	1	0	186.023	0.221638	0.222454	-0.000165928	1	0.0504758	13	-3.69113e-08
2	1	0	0	0	186.623	0.215637	0.216347	-0.000152725	1	0.0504756	13	-3.30417e-08
2	1	0	1	0	187.223	0.209635	0.210173	-0.000158512	1	0.0504755	13	-3.33149e-08
2	1	0	0	0	187.824	0.203633	0.204477	-0.000156295	1	0.0504754	13	-3.19587e-08
2	1	0	1	0	188.424	0.197631	0.198161	-0.000160671	1	0.0504753	13	-3.18387e-08
2	1	0	0	0	189.024	0.191629	0.1924	-0.000161968	1	0.0504751	13	-3.11627e-08
2	1	0	1	0	189.624	0.185627	0.186089	-0.000162433	1	0.050475	13	-3.0227e-08
2	1	0	0	0	190.224	0.179626	0.179966	-0.000168047	1	0.0504749	13	-3.02429e-08
2	1	0	1	0	190.825	0.173624	0.174021	-0.000178974	1	0.0504748	13	-3.11453e-08
2	1	0	0	0	191.425	0.167622	0.167967	-0.000179826	1	0.0504746	13	-3.02049e-08
2	1	0	1	0	192.025	0.16162	0.162144	-0.000195452	1	0.0504745	13	-3.16914e-08
2	1	0	0	0	192.625	0.155618	0.155929	-0.000198815	1	0.0504744	13	-3.1001e-08
2	1	0	1	0	193.225	0.149616	0.149799	-0.000211198	1	0.0504742	13	-3.16373e-08
2	1	0	1	0	193.825	0.143615	0.143819	-0.00024524	1	0.0504741	13	-3.52702e-08
2	1	0	1	0	194.426	0.137612	0.1379	-0.000260875	1	0.050474	13	-3.59746e-08
2	1	0	1	0	195.026	0.131611	0.131849	-0.00026966	1	0.0504739	13	-3.55545e-08
2	1	0	0	0	195.626	0.125609	0.126183	-0.000276154	1	0.0504737	13	-3.48459e-08
2	1	0	1	0	196.226	0.119607	0.120125	-0.00027973	1	0.0504736	13	-3.36026e-08
2	1	0	0	0	196.826	0.113605	0.114119	-0.000293514	1	0.0504735	13	-3.34957e-08
2	1	0	1	0	197.427	0.107603	0.108438	-0.000293138	1	0.0504733	13	-3.17873e-08
2	1	0	0	0	198.027	0.101601	0.102282	-0.0003037	1	0.0504732	13	-3.1063e-08
2	1	0	1	0	198.627	0.0955995	0.0961591	-0.000312072	1	0.0504731	13	-3.00086e-08
2	1	0	0	0	199.227	0.0895976	0.0898275	-0.000323296	1	0.050473	13	-2.90409e-08
2	1	0	1	0	199.827	0.0835958	0.0841643	-0.00030414	1	0.0504728	13	-2.55977e-08
2	1	0	0	0	200.428	0.0775939	0.0781415	-0.000306004	1	0.0504727	13	-2.39116e-08
2	1	0	1	0	201.028	0.0715921	0.0719744	-0.000314217	1	0.0504726	13	-2.26156e-08
2	1	0	0	0	201.628	0.0655902	0.066343	-0.000298436	1	0.0504724	13	-1.97991e-08
2	1	0	1	0	202.228	0.0595883	0.0600178	-0.000317896	1	0.0504723	13	-1.90794e-08
2	1	0	1	0	202.828	0.0535865	0.0539204	-0.000328606	1	0.0504721	13	-1.77186e-08
2	1	0	1	0	203.428	0.0475837	0.0478126	-0.000347515	1	0.050472	13	-1.66156e-08
2	1	0	1	0	204.029	0.0415828	0.041892	-0.0003356	1	0.0504719	13	-1.4059e-08
2	1	0	0	0	204.629	0.0355809	0.0362256	-0.000325036	1	0.0504717	13	-1.17747e-08
2	1	0	1	0	205.229	0.029579	0.0300479	-0.000321124	1	0.0504716	13	-9.6491e-09
2	1	0	0	0	205.829	0.0235772	0.0240166	-0.000316191	1	0.0504714	13	-7.59382e-09
2	1	0	1	0	206.429	0.0175753	0.018224	-0.00030319	1	0.0504713	13	-5.52532e-09
2	1	0	0	0	207.03	0.0115735	0.0118691	-0.000294894	1	0.0504711	13	-3.50012e-09
2	1	0	1	0	207.63	0.00557161	0.00599901	-0.000290339	1	0.050471	13	-1.74175e-09
2	1	0	0	1	208.185	1.98929e-05	0.000161835	0.00154097	1	0.0504709	13	2.49384e-10
2	0	0	1	1	208.741	0.00557161	0.00614117	0.000142382	2	0.0504708	13	8.7439e-10
2	0	0	0	1	209.341	0.0115735	0.0122584	0.000171334	2	0.0504708	13	2.10029e-09
2	0	0	1	1	209.941	0.0175753	0.0179015	0.000167142	2	0.0504708	13	2.99209e-09
2	0	0	0	1	210.541	0.0235772	0.0241046	0.000172568	2	0.0504709	13	4.15969e-09
2	0	0	1	1	211.141	0.029579	0.0301826	0.000184142	2	0.0504709	13	5.5579e-09
2	0	0	0	1	211.742	0.0355809	0.0366161	0.000180653	2	0.0504709	13	6.61482e-09
2	0	0	1	1	212.342	0.0415828	0.0425349	0.000186076	2	0.0504709	13	7.91475e-09
2	0	0	0	1	212.942	0.0475846	0.0484039	0.000192548	2	0.050471	13	9.3201e-09
2	0	0	1	1	213.542	0.0535863	0.0538909	0.00019811	2	0.050471	13	1.06763e-08
2	0	0	1	1	214.142	0.0595892	0.0601666	0.000224668	2	0.050471	13	1.35175e-08
2	0	0	0	1	214.742	0.0655902	0.0660353	0.000218435	2	0.0504711	13	1.44244e-08
2	0	0	1	1	215.343	0.0715921	0.0721208	0.000221205	2	0.0504711	13	1.59535e-08
2	0	0	0	1	215.943	0.0775939	0.0780598	0.000216882	2	0.0504712	13	1.69298e-08
2	0	0	1	1	216.543	0.0835958	0.0841049	0.000219109	2	0.0504712	13	1.84281e-08
2	0	0	0	1	217.143	0.0895976	0.0901787	0.000220224	2	0.0504713	13	1.98595e-08
2	0	0	1	1	217.743	0.0955995	0.0959946	0.000214415	2	0.0504713	13	2.05827e-08
2	0	0	0	1	218.344	0.101601	0.10194	0.00022724	2	0.0504714	13	2.31648e-08
2	0	0	1	1	218.944	0.107603	0.107913	0.000218847	2	0.0504714	13	2.36164e-08
2	0	0	0	1	219.544	0.113605	0.11418	0.000199548	2	0.0504715	13	2.27844e-08
2	0	0	1	1	220.144	0.119607	0.120034	0.000185498	2	0.0504716	13	2.22661e-08
2	0	0	0	1	220.744	0.125609	0.126248	0.000166239	2	0.0504716	13	2.09873e-08
2	0	0	1	1	221.345	0.131611	0.132226	0.000142324	2	0.0504717	13	1.8819e-08
2	0	0	1	1	221.945	0.137612	0.138103	0.000139688	2	0.0504718	13	1.92913e-08
2	0	0	1	1	222.545	0.143615	0.14436	0.000159553	2	0.0504718	13	2.30331e-08
2	0	0	1	1	223.145	0.149616	0.150513	0.000163038	2	0.0504719	13	2.45394e-08
2	0	0	0	1	223.745	0.155618	0.156247	0.00013597	2	0.050472	13	2.1245e-08
2	0	0	1	1	224.345	0.16162	0.161969	0.000130475	2	0.050472	13	2.11329e-08
2	0	0	0	1	224.946	0.167622	0.167893	0.000111592	2	0.0504721	13	1.87356e-08
2	0	0	1	1	225.546	0.173624	0.173894	9.83103e-05	2	0.0504722	13	1.70955e-08
2	0	0	0	1	226.146	0.179626	0.179981	0.000110532	2	0.0504722	13	1.98936e-08
2	0	0	1	1	226.746	0.185627	0.18601	9.22401e-05	2	0.0504723	13	1.71576e-08
2	0	0	0	1	227.346	0.191629	0.191922	9.35713e-05	2	0.0504724	13	1.79584e-08
2	0	0	1	1	227.947	0.197631	0.198159	8.7526e-05	2	0.0504725	13	1.73441e-08
2	0	0	0	1	228.547	0.203633	0.204163	8.14572e-05	2	0.0504726	13	1.66305e-08
2	0	0	1	1	229.147	0.209635	0.209537	7.26041e-05	2	0.0504726	13	1.52133e-08
2	0	0	0	1	229.747	0.215637	0.216086	5.0759e-05	2	0.0504727	13	1.09683e-08
2	0	0	1	1	230.347	0.221639	0.22192	6.23626e-05	2	0.0504728	13	1.38395e-08
2	0	0	1	1	230.947	0.22764	0.228127	6.68378e-05	2	0.0504729	13	1.52475e-08
2	0	0	1	1	231.548	0.233643	0.234055	7.15364e-05	2	0.050473	13	1.67434e-08
2	0	0	1	1	232.148	0.239644	0.240405	5.31138e-05	2	0.0504731	13	1.27688e-08
2	0	0	0	1	232.748	0.245646	0.246257	3.88024e-05	2	0.0504731	13	9.55534e-09
2	0	0	1	1	233.348	0.251648	0.252273	3.52341e-05	2	0.0504732	13	8.88861e-09
2	0	0	0	1	233.948	0.25765	0.258125	9.83525e-06	2	0.0504733	13	2.53873e-09
2	0	0	1	1	234.549	0.263652	0.264333	2.50157e-06	2	0.0504734	13	6.61247e-10
2	0	0	0	1	235.149	0.269653	0.270017	-3.73336e-06	2	0.0504735	13	-1.00807e-09
2	0	0	1	1	235.749	0.275655	0.275788	-4.47327e-06	2	0.0504736	13	-1.23368e-09
2	0	0	0	1	236.349	0.281657	0.282021	5.08144e-06	2	0.0504737	13	1.43307e-09
2	0	0	1	1	236.949	0.287659	0.287949	7.07005e-06	2	0.0504738	13	2.03581e-09
2	0	0	0	1	237.55	0.293661	0.294236	6.9112e-06	2	0.0504739	13	2.03352e-09
2	0	0	1	1	238.15	0.299663	0.300115	7.76134e-06	2	0.050474	13	2.3293e-09
2	1	0	0	1	238.75	0.305665	0.306099	1.74882e-05	2	0.0504741	13	5.35311e-09
2	0	0	1	1	239.35	0.311666	0.312033	1.66309e-05	2	0.0504742	13	5.18937e-09
2	0	0	1	1	239.95	0.317669	0.318414	2.87529e-05	2	0.0504743	13	9.15532e-09
2	1	0	0	1	240.55	0.32367	0.324075	2.66899e-05	2	0.0504744	13	8.64953e-09
2	1	0	1	1	241.151	0.329672	0.32981	3.98643e-05	2	0.0504745	13	1.31477e-08
2	1	0	0	1	241.751	0.335674	0.335918	5.51009e-05	2	0.0504746	13	1.85094e-08
2	1	0	1	1	242.351	0.341676	0.341806	6.3879e-05	2	0.0504747	13	2.18343e-08
2	1	0	0	1	242.951	0.347678	0.347895	8.25015e-05	2	0.0504748	13	2.87019e-08
2	1	0	1	1	243.551	0.353679	0.353833	8.99617e-05	2	0.0504749	13	3.18314e-08
2	1	0	0	1	244.152	0.359681	0.359881	0.00010173	2	0.050475	13	3.66107e-08
2	1	0	1	1	244.752	0.365683	0.366061	0.000111063	2	0.0504751	13	4.06557e-08
2	1	0	0	1	245.352	0.371685	0.371865	0.000114196	2	0.0504752	13	4.24654e-08
2	1	0	1	1	245.952	0.377687	0.378256	0.000132695	2	0.0504753	13	5.01926e-08
2	1	0	0	1	246.552	0.383689	0.383953	0.0001312	2	0.0504754	13	5.03747e-08
2	1	0	1	1	247.153	0.389691	0.390498	0.000137306	2	0.0504755	13	5.36176e-08
2	1	0	1	1	247.753	0.395692	0.396526	0.000128009	2	0.0504756	13	5.07587e-08
2	1	0	1	1	248.353	0.401695	0.401969	8.91798e-05	2	0.0504758	13	3.58475e-08
2	1	0	1	1	248.953	0.407697	0.407989	8.06666e-05	2	0.0504759	13	3.29111e-08
2	1	0	0	1	249.553	0.413698	0.413985	6.89461e-05	2	0.050476	13	2.85426e-08
2	1	0	1	1	250.153	0.4197	0.420007	7.47942e-05	2	0.0504761	13	3.14141e-08
2	1	0	0	1	250.754	0.425702	0.426253	6.78503e-05	2	0.0504762	13	2.89214e-08
2	0	0	1	1	251.354	0.431704	0.432477	6.9408e-05	2	0.0504764	13	3.00173e-08
2	0	0	0	1	251.954	0.437705	0.438338	6.46379e-05	2	0.0504765	13	2.83333e-08
2	0	0	1	1	252.554	0.443707	0.444193	7.51575e-05	2	0.0504766	13	3.33845e-08
2	0	0	0	1	253.154	0.449709	0.450226	8.16705e-05	2	0.0504768	13	3.67702e-08
2	0	0	1	1	253.755	0.455711	0.455856	8.44916e-05	2	0.0504769	13	3.8516e-08
2	0	0	0	1	254.355	0.461713	0.461969	9.43243e-05	2	0.0504771	13	4.35749e-08
2	0	0	1	1	254.955	0.467715	0.468118	0.000103008	2	0.0504772	13	4.822e-08
2	0	0	0	1	255.555	0.473717	0.473752	0.000125974	2	0.0504774	13	5.96805e-08
2	0	0	1	1	256.155	0.479718	0.479899	0.000133199	2	0.0504775	13	6.3922e-08
2	0	0	1	1	256.755	0.48572	0.486009	0.000159484	2	0.0504777	13	7.75108e-08
2	0	0	1	1	257.356	0.491723	0.492273	0.000179935	2	0.0504779	13	8.85772e-08
2	0	0	1	1	257.956	0.497724	0.498291	0.000200138	2	0.0504781	13	9.97268e-08
2	0	0	0	1	258.556	0.503726	0.504309	0.000243035	2	0.0504783	13	1.22565e-07
2	0	0	1	1	259.156	0.509728	0.510136	0.000255994	2	0.0504786	13	1.30592e-07
2	0	0	0	1	259.756	0.51573	0.515989	0.000285945	2	0.0504788	13	1.47544e-07
2	0	0	1	1	260.357	0.521732	0.52252	0.000318592	2	0.050479	13	1.66471e-07
2	0	0	0	1	260.957	0.527733	0.528518	0.000333799	2	0.0504793	13	1.76419e-07
2	0	0	1	1	261.557	0.533735	0.53422	0.000353323	2	0.0504796	13	1.88752e-07
2	0	0	0	1	262.157	0.539737	0.540069	0.00035903	2	0.0504798	13	1.93901e-07
2	0	0	1	1	262.757	0.545739	0.546131	0.000378876	2	0.0504801	13	2.06916e-07
2	0	0	0	1	263.358	0.551741	0.552329	0.000391268	2	0.0504804	13	2.16109e-07
2	0	0	1	1	263.958	0.557743	0.558139	0.000403656	2	0.0504807	13	2.25296e-07
2	0	0	0	1	264.558	0.563744	0.564058	0.000413651	2	0.0504809	13	2.33323e-07
2	0	0	1	1	265.158	0.569745	0.569963	0.000435116	2	0.0504812	13	2.48e-07
2	0	0	1	1	265.758	0.575748	0.576062	0.000512551	2	0.0504815	13	2.95261e-07
2	0	0	0	1	266.358	0.58175	0.581988	0.00059422	2	0.0504819	13	3.45829e-07
2	0	0	1	1	266.959	0.587752	0.587938	0.00070165	2	0.0504823	13	4.12527e-07
2	0	0	0	1	267.559	0.593754	0.594735	0.000866575	2	0.0504827	13	5.15382e-07
2	0	0	1	1	268.159	0.599756	0.600399	0.00107555	2	0.0504833	13	6.45759e-07
2	0	0	0	1	268.759	0.605758	0.606251	0.00139113	2	0.050484	13	8.43371e-07
2	0	0	1	1	269.359	0.611759	0.612484	0.00184612	2	0.050485	13	1.13072e-06
2	0	0	0	1	269.96	0.617761	0.618423	0.00246596	2	0.0504862	13	1.52501e-06
2	0	0	1	1	270.56	0.623763	0.624503	0.00332271	2	0.0504879	13	2.07504e-06
2	1	0	0	1	271.16	0.629765	0.630521	0.00450378	2	0.0504902	13	2.83973e-06
2	1	0	1	1	271.76	0.635767	0.636419	0.00608956	2	0.0504934	13	3.87551e-06
2	1	0	0	1	272.36	0.641769	0.642029	0.00820312	2	0.0504976	13	5.26664e-06
2	1	0	1	1	272.961	0.647771	0.648586	0.0109435	2	0.0505032	13	7.09781e-06
2	1	0	0	1	273.561	0.653772	0.654426	0.0144738	2	0.0505108	13	9.47202e-06
2	1	0	1	1	274.161	0.659774	0.660052	0.0189279	2	0.0505207	13	1.24934e-05
2	1	0	1	1	274.761	0.665777	0.666699	0.0244848	2	0.0505336	13	1.6324e-05
2	1	0	0	1	275.361	0.671778	0.672854	0.0312031	2	0.0505502	13	2.09952e-05
2	1	0	1	1	275.961	0.67778	0.678475	0.0393614	2	0.0505712	13	2.67057e-05
2	1	0	0	1	276.562	0.683782	0.684547	0.0489667	2	0.0505976	13	3.352e-05
2	1	0	1	1	277.162	0.689784	0.690872	0.0602378	2	0.0506302	13	4.16166e-05
2	1	0	0	1	277.762	0.695785	0.696623	0.0731352	2	0.0506701	13	5.09477e-05
2	1	0	1	1	278.362	0.701787	0.702495	0.0878628	2	0.0507182	13	6.17232e-05
2	1	0	0	1	278.992	0.708089	0.708863	0.104574	2	0.0507791	12	7.41285e-05
2	1	0	1	1	279.593	0.714091	0.714869	0.122489	2	0.0508473	12	8.75635e-05
2	1	0	0	1	280.193	0.720093	0.720857	0.142276	2	0.0509269	12	0.00010256
2	1	0	1	1	280.793	0.726095	0.72687	0.163784	2	0.0510187	12	0.00011905
2	1	0	0	1	281.393	0.732097	0.732631	0.186346	2	0.051124	12	0.000136523
2	1	0	1	1	281.993	0.738099	0.738889	0.208882	2	0.0512428	12	0.000154341
2	1	0	0	1	282.594	0.7441	0.745018	0.232705	2	0.0513753	12	0.000173369
2	1	0	1	1	283.194	0.750102	0.75089	0.258419	2	0.0515225	12	0.000194044
2	1	0	1	1	283.794	0.756104	0.75637	0.283033	2	0.051685	12	0.000214078
2	1	0	0	1	284.394	0.762106	0.762586	0.308719	2	0.0518626	12	0.000235425
2	1	0	1	1	284.994	0.768108	0.768431	0.33609	2	0.0520567	12	0.000258262
2	1	0	0	1	285.594	0.77411	0.77465	0.364876	2	0.0522672	12	0.000282651
2	1	0	1	1	286.195	0.780111	0.780406	0.388317	2	0.0524933	12	0.000303045
2	1	0	0	1	286.795	0.786113	0.786187	0.419497	2	0.0527361	12	0.000329803
2	1	0	1	1	287.395	0.792115	0.792407	0.441852	2	0.0529947	12	0.000350127
2	1	0	0	1	287.995	0.798117	0.798622	0.470047	2	0.0532685	12	0.000375389
2	1	0	1	1	288.595	0.804119	0.804157	0.49541	2	0.0535581	12	0.000398387
2	1	0	0	1	289.196	0.810121	0.810306	0.524441	2	0.0538648	12	0.000424958
2	1	0	1	1	289.796	0.816123	0.816882	0.547224	2	0.0541863	12	0.000447017
2	1	0	0	1	290.396	0.822125	0.822343	0.572393	2	0.0545227	12	0.000470703
2	1	0	1	1	290.996	0.828126	0.828656	0.605597	2	0.0548782	12	0.000501832
2	1	0	1	1	291.596	0.834127	0.834503	0.632325	2	0.0552486	12	0.000527678
2	1	0	1	1	292.196	0.84013	0.840661	0.662565	2	0.0556367	12	0.000556993
2	1	0	1	1	292.797	0.846132	0.846568	0.696221	2	0.0560452	12	0.000589398
2	1	0	0	1	293.397	0.852134	0.85288	0.719309	2	0.0564683	12	0.000613485
2	1	0	1	1	293.997	0.858136	0.858602	0.754071	2	0.056912	12	0.000647447
2	1	0	0	1	294.597	0.864138	0.864961	0.786583	2	0.0573752	12	0.000680364
2	1	0	1	1	295.197	0.870139	0.870679	0.826112	2	0.057859	12	0.000719279
2	1	0	0	1	295.798	0.876141	0.876974	0.86975	2	0.0583692	12	0.000762748
2	1	0	1	1	296.398	0.882143	0.88296	0.908711	2	0.0589022	12	0.000802355
2	1	0	0	1	296.998	0.888145	0.888888	0.955623	2	0.0594614	12	0.000849442
2	1	0	1	1	297.598	0.894147	0.894778	1.00148	2	0.06005	12	0.000896102
2	1	0	0	1	298.198	0.900149	0.900763	1.05511	2	0.0606659	12	0.000950408
2	1	0	1	1	298.829	0.906451	0.90697	1.10682	2	0.0613486	11	0.00100385
2	1	0	0	1	299.429	0.912453	0.912822	1.16854	2	0.0620328	11	0.00106667
2	1	0	1	1	300.029	0.918454	0.918702	1.23254	2	0.062756	11	0.00113233
2	1	0	1	1	300.629	0.924455	0.924556	1.29366	2	0.063511	11	0.00119606
2	1	0	1	1	301.229	0.930458	0.931058	1.35892	2	0.0643095	11	0.00126523
2	1	0	1	1	301.829	0.936461	0.936814	1.42353	2	0.0651411	11	0.00133359
2	1	0	0	1	302.43	0.942462	0.942994	1.50157	2	0.0660193	11	0.00141597
2	1	0	1	1	303.03	0.948464	0.947842	1.57037	2	0.0669426	11	0.00148846
2	1	0	0	1	303.63	0.954466	0.954978	1.64444	2	0.0679099	11	0.0015704
2	1	0	1	1	304.23	0.960467	0.961055	1.7325	2	0.068928	11	0.00166503
2	1	0	0	1	304.83	0.966469	0.967076	1.82004	2	0.0699944	11	0.00176012
2	1	0	1	1	305.431	0.972471	0.972974	1.91786	2	0.0711178	11	0.00186603
2	1	0	0	1	306.031	0.978473	0.979187	2.02195	2	0.0723035	11	0.00197987
2	1	0	1	1	306.631	0.984475	0.985221	2.12622	2	0.0735478	11	0.00209479
2	1	0	0	1	307.231	0.990477	0.99103	2.2122	2	0.0748458	11	0.00219236
2	1	0	1	1	307.831	0.996479	0.997218	2.31372	2	0.0762075	11	0.00230729
2	1	0	0	1	308.342	0.998479	0.998991	2.32809	2	0.0774032	11	0.00232574
2	1	0	1	1	308.942	0.992477	0.993602	2.18595	2	0.0787578	11	0.00217196
2	1	0	0	1	309.542	0.986476	0.987115	2.04321	2	0.0800223	11	0.00201689
2	1	0	1	1	310.143	0.980474	0.980809	1.92136	2	0.0812141	11	0.00188449
2	1	0	0	1	310.743	0.974472	0.975029	1.7927	2	0.0823281	11	0.00174794
2	1	0	1	1	311.343	0.96847	0.968838	1.68364	2	0.0833764	11	0.00163117
2	1	0	1	1	311.943	0.962469	0.963113	1.56602	2	0.0843507	11	0.00150825
2	1	0	1	1	312.543	0.956466	0.957182	1.47875	2	0.0852644	11	0.00141543
2	1	0	1	1	313.143	0.950464	0.951151	1.37557	2	0.0861206	11	0.00130838
2	1	0	0	1	313.744	0.944463	0.944884	1.28223	2	0.0869215	11	0.00121156
2	1	0	1	1	314.344	0.93846	0.938872	1.21787	2	0.0876705	11	0.00114342
2	1	0	0	1	314.944	0.932459	0.933114	1.13224	2	0.0883748	11	0.00105651
2	1	0	1	1	315.544	0.926457	0.92712	1.05669	2	0.0890284	11	0.000979683
2	1	0	0	1	316.144	0.920455	0.921188	0.983844	2	0.0896392	11	0.000906305
2	1	0	1	1	316.745	0.914453	0.915004	0.926389	2	0.0902142	11	0.000847649
2	1	0	0	1	317.345	0.908451	0.909086	0.85991	2	0.0907496	11	0.000781732
2	1	0	1	1	317.945	0.902449	0.902964	0.802696	2	0.0912516	11	0.000724806
2	1	0	0	1	318.545	0.896448	0.896931	0.749502	2	0.0917165	11	0.000672252
2	1	0	1	1	319.145	0.890446	0.890703	0.694231	2	0.0921523	11	0.000618354
2	1	0	0	1	319.746	0.884444	0.885105	0.653816	2	0.0925577	11	0.000578696
2	1	0	1	1	320.346	0.878442	0.879225	0.603124	2	0.0929342	11	0.000530282
2	1	0	1	1	320.946	0.87244	0.873135	0.564244	2	0.0932859	11	0.000492661
2	1	0	1	1	321.546	0.866438	0.866978	0.527739	2	0.0936136	11	0.000457538
2	1	0	1	1	322.146	0.860436	0.861073	0.496904	2	0.0939208	11	0.000427871
2	1	0	0	1	322.746	0.854434	0.854809	0.458679	2	0.0942079	11	0.000392083
2	1	0	1	1	323.377	0.848133	0.848407	0.430547	2	0.094488	12	0.000365279
2	1	0	0	1	323.977	0.842131	0.842307	0.398519	2	0.0947363	12	0.000335676
2	1	0	1	1	324.577	0.836129	0.836653	0.370876	2	0.0949667	12	0.000310294
2	1	0	0	1	325.177	0.830127	0.830563	0.344468	2	0.0951821	12	0.000286102
2	1	0	1	1	325.777	0.824125	0.824921	0.324513	2	0.0953839	12	0.000267698
2	1	0	0	1	326.378	0.818123	0.818545	0.300066	2	0.0955706	12	0.000245618
2	1	0	1	1	326.978	0.812121	0.812692	0.280468	2	0.0957453	12	0.000227934
2	1	0	0	1	327.578	0.80612	0.806581	0.260758	2	0.0959079	12	0.000210322
2	1	0	1	1	328.178	0.800118	0.800574	0.243605	2	0.0960583	12	0.000195024
2	1	0	0	1	328.778	0.794116	0.794701	0.226703	2	0.0961991	12	0.000180161
2	1	0	1	1	329.379	0.788114	0.788308	0.209995	2	0.0963306	12	0.00016554
2	1	0	1	1	329.979	0.782113	0.782398	0.193806	2	0.0964515	12	0.000151634
2	1	0	1	1	330.579	0.77611	0.77642	0.180165	2	0.0965635	12	0.000139884
2	1	0	1	1	331.179	0.770108	0.770708	0.165646	2	0.0966671	12	0.000127665
2	1	0	0	1	331.779	0.764107	0.764116	0.151878	2	0.0967621	12	0.000116053
2	1	0	1	1	332.379	0.758105	0.758198	0.139033	2	0.0968492	12	0.000105414
2	1	0	0	1	332.98	0.752103	0.752392	0.127979	2	0.0969289	12	9.62905e-05
2	1	0	1	1	333.58	0.746101	0.74667	0.116231	2	0.097002	12	8.67862e-05
2	1	0	0	1	334.18	0.740099	0.740917	0.104642	2	0.097068	12	7.75313e-05
2	1	0	1	1	334.78	0.734097	0.734705	0.0939572	2	0.0971274	12	6.90308e-05
2	1	0	0	1	335.38	0.728095	0.728351	0.0836554	2	0.0971804	12	6.09305e-05
2	1	0	1	1	335.981	0.722094	0.722276	0.0740282	2	0.0972275	12	5.34688e-05
2	1	0	0	1	336.581	0.716092	0.716273	0.0650316	2	0.0972689	12	4.65804e-05
2	1	0	1	1	337.181	0.71009	0.709763	0.0566735	2	0.0973051	12	4.02247e-05
2	1	0	0	1	337.781	0.704088	0.704233	0.0488097	2	0.0973365	12	3.43734e-05
2	1	0	1	1	338.411	0.697786	0.697722	0.0411175	2	0.0973645	13	2.86886e-05
2	1	0	1	1	339.011	0.691785	0.692142	0.0346655	2	0.0973871	13	2.39935e-05
2	1	0	1	1	339.612	0.685782	0.686014	0.0288528	2	0.0974061	13	1.97934e-05
2	1	0	1	1	340.212	0.67978	0.680117	0.0237583	2	0.0974218	13	1.61585e-05
2	1	0	0	1	340.812	0.673779	0.67417	0.0193307	2	0.0974346	13	1.30322e-05
2	1	0	1	1	341.412	0.667777	0.668288	0.0155508	2	0.097445	13	1.03924e-05
2	1	0	0	1	342.012	0.661775	0.662418	0.0123579	2	0.0974533	13	8.18611e-06
2	1	0	1	1	342.613	0.655773	0.656533	0.0097147	2	0.0974599	13	6.37802e-06
2	1	0	0	1	343.213	0.649771	0.650422	0.0075368	2	0.097465	13	4.9021e-06
2	1	0	1	1	343.813	0.643769	0.644315	0.00577176	2	0.097469	13	3.71883e-06
2	1	0	1	1	344.059	0.641219	0.640698	0.00433623	2	0.0974703	13	2.77822e-06