File: Lares Oxides/2024-6-20 Ni65Co32Fe3Ox on FTO_1_00mg_CP2_C02.mpt
EC-Lab ASCII FILE
Nb header lines : 54

Chronopotentiometry

Run on channel : 2 (SN 39659)
User :
CE vs. WE compliance from -18 V to 2 V
Electrode connection : standard
Potential control : Ewe
Ewe ctrl range : min = 0.00 V, max = 5.00 V
Safety Limits :
	Do not start on E overload
Acquisition started on : 06/20/2024 09:22:15.527
Technique started on : 06/20/2024 09:22:16.527
Loaded Setting File :  NONE
Saved on :
	File : 2024-6-20 Ni65Co32Fe3Ox on FTO_1_00mg_CP2_C02.mpr
	Directory : C:\Users\sfolkman\OneDrive - New Mexico State University\Folkman Group Folder\Scott\
	Host : 172.24.124.15
Device : VSP (SN 1910)
Address : USB
EC-Lab for windows v11.46 (software)
Internet server v11.40 (firmware)
Command interpretor v11.40 (firmware)
Electrode material :
Initial state :
Electrolyte :
Comments :
Electrode surface area : 0.001 cm²
Characteristic mass : 0.001 g
Equivalent Weight : 0.000 g/eq.
Density : 0.000 g/cm3
Volume (V) : 0.001 cm³
Record Ece
Cycle Definition : Charge/Discharge alternance
Is                  10.000
unit Is             mA
vs.                 <None>
ts (h:m:s)          48:00:0.0000
EM (V)              5.000
dQM                 480.000
unit dQM            mA.h
record              <Ewe>
dEs (mV)            0.00
dts (s)             1.0000
E range min (V)     0.000
E range max (V)     5.000
I Range             10 mA
Bandwidth           5
goto Ns'            0
nc cycles           0

mode	ox/red	error	control changes	Ns changes	counter inc.	Ns	time/s	control/mA	<Ewe>/V	I/mA	dQ/C	(Q-Qo)/C	half cycle	Q charge/discharge/mA.h	I Range	<Ece>/V	Energy charge/W.h	Energy discharge/W.h	Capacitance charge/µF	Capacitance discharge/µF	Q discharge/mA.h	Q charge/mA.h	Capacity/mA.h	Efficiency/%	cycle number	P/W	Ewe-Ece/V
1	1	0	0	0	0	0	1	10	-3.93219	10.0045	0.00950168	0.00950168	0	0.00263936	11	-6.04127	1.03784e-05	0.000000000000000E+000	0.000000000000000E+000	0.000000000000000E+000	0.000000000000000E+000	0.00263936	0.00263936	0.0000000E+000	0.000000000000000E+000	-0.0393394	2.10909
1	1	0	0	0	0	0	36	10	1.12043	10.0037	0.359631	0.359631	0	0.0998976	11	-1.08059	0.000222959	0.000000000000000E+000	71177.3	0.000000000000000E+000	0.000000000000000E+000	0.0998976	0.0998976	0.0000000E+000	0.000000000000000E+000	0.0112085	2.20102
1	1	0	0	0	0	0	71	10	1.13165	10.0041	0.709759	0.709759	0	0.197155	11	-1.08637	0.00033255	0.000000000000000E+000	140162	0.000000000000000E+000	0.000000000000000E+000	0.197155	0.197155	0.0000000E+000	0.000000000000000E+000	0.0113212	2.21802
1	1	0	0	0	0	0	106	10	1.13874	10.0036	1.05989	1.05989	0	0.294413	11	-1.09023	0.000443005	0.000000000000000E+000	209012	0.000000000000000E+000	0.000000000000000E+000	0.294413	0.294413	0.0000000E+000	0.000000000000000E+000	0.0113916	2.22897
1	1	0	0	0	0	0	141	10	1.14339	10.0041	1.41001	1.41001	0	0.39167	11	-1.09357	0.000553988	0.000000000000000E+000	277804	0.000000000000000E+000	0.000000000000000E+000	0.39167	0.39167	0.0000000E+000	0.000000000000000E+000	0.0114385	2.23696
1	1	0	0	0	0	0	176	10	1.14722	10.0041	1.76014	1.76014	0	0.488928	11	-1.09448	0.000665358	0.000000000000000E+000	346525	0.000000000000000E+000	0.000000000000000E+000	0.488928	0.488928	0.0000000E+000	0.000000000000000E+000	0.0114769	2.24169
1	1	0	0	0	0	0	211	10	1.14953	10.0033	2.11027	2.11027	0	0.586185	11	-1.09697	0.000777039	0.000000000000000E+000	415266	0.000000000000000E+000	0.000000000000000E+000	0.586185	0.586185	0.0000000E+000	0.000000000000000E+000	0.0114991	2.2465
1	1	0	0	0	0	0	246	10	1.15143	10.0034	2.46039	2.46039	0	0.683442	11	-1.0991	0.000888952	0.000000000000000E+000	483984	0.000000000000000E+000	0.000000000000000E+000	0.683442	0.683442	0.0000000E+000	0.000000000000000E+000	0.0115183	2.25054
1	1	0	0	0	0	0	281	10	1.15252	10.0029	2.81052	2.81052	0	0.780699	11	-1.0992	0.00100098	0.000000000000000E+000	552740	0.000000000000000E+000	0.000000000000000E+000	0.780699	0.780699	0.0000000E+000	0.000000000000000E+000	0.0115286	2.25172
1	1	0	0	0	0	0	316	10	1.15473	10.0031	3.16064	3.16064	0	0.877956	11	-1.1011	0.00111316	0.000000000000000E+000	621328	0.000000000000000E+000	0.000000000000000E+000	0.877956	0.877956	0.0000000E+000	0.000000000000000E+000	0.0115508	2.25583
1	1	0	0	0	0	0	351	10	1.15708	10.0036	3.51077	3.51077	0	0.975213	11	-1.10295	0.00122557	0.000000000000000E+000	689838	0.000000000000000E+000	0.000000000000000E+000	0.975213	0.975213	0.0000000E+000	0.000000000000000E+000	0.011575	2.26003
1	1	0	0	0	0	0	386	10	1.15871	10.0033	3.86089	3.86089	0	1.07247	11	-1.10448	0.00133819	0.000000000000000E+000	758392	0.000000000000000E+000	0.000000000000000E+000	1.07247	1.07247	0.0000000E+000	0.000000000000000E+000	0.0115909	2.26319
1	1	0	0	0	0	0	421	10	1.16054	10.0032	4.21102	4.21102	0	1.16973	11	-1.10622	0.00145099	0.000000000000000E+000	826870	0.000000000000000E+000	0.000000000000000E+000	1.16973	1.16973	0.0000000E+000	0.000000000000000E+000	0.0116091	2.26676
1	1	0	0	0	0	0	456	10	1.16132	10.0041	4.56115	4.56115	0	1.26699	11	-1.10786	0.00156391	0.000000000000000E+000	895483	0.000000000000000E+000	0.000000000000000E+000	1.26699	1.26699	0.0000000E+000	0.000000000000000E+000	0.011618	2.26918
1	1	0	0	0	0	0	491	10	1.16242	10.0038	4.91127	4.91127	0	1.36424	11	-1.10931	0.00167692	0.000000000000000E+000	964015	0.000000000000000E+000	0.000000000000000E+000	1.36424	1.36424	0.0000000E+000	0.000000000000000E+000	0.0116286	2.27172
1	1	0	0	0	0	0	526	10	1.16366	10.003	5.2614	5.2614	0	1.4615	11	-1.11041	0.00179004	0.000000000000000E+000	1.03249e+06	0.000000000000000E+000	0.000000000000000E+000	1.4615	1.4615	0.0000000E+000	0.000000000000000E+000	0.0116401	2.27407
1	1	0	0	0	0	0	561	10	1.16504	10.0033	5.61153	5.61153	0	1.55876	11	-1.11163	0.00190329	0.000000000000000E+000	1.1009e+06	0.000000000000000E+000	0.000000000000000E+000	1.55876	1.55876	0.0000000E+000	0.000000000000000E+000	0.0116543	2.27667
1	1	0	0	0	0	0	596	10	1.1659	10.004	5.96165	5.96165	0	1.65602	11	-1.11263	0.00201662	0.000000000000000E+000	1.16939e+06	0.000000000000000E+000	0.000000000000000E+000	1.65602	1.65602	0.0000000E+000	0.000000000000000E+000	0.0116637	2.27853
1	1	0	0	0	0	0	631	10	1.16559	10.0033	6.31178	6.31178	0	1.75327	11	-1.11218	0.00213001	0.000000000000000E+000	1.23814e+06	0.000000000000000E+000	0.000000000000000E+000	1.75327	1.75327	0.0000000E+000	0.000000000000000E+000	0.0116597	2.27777
1	1	0	0	0	0	0	666	10	1.16717	10.0036	6.66191	6.66191	0	1.85053	11	-1.11351	0.00224344	0.000000000000000E+000	1.30642e+06	0.000000000000000E+000	0.000000000000000E+000	1.85053	1.85053	0.0000000E+000	0.000000000000000E+000	0.011676	2.28068
1	1	0	0	0	0	0	701	10	1.1678	10.0036	7.01203	7.01203	0	1.94779	11	-1.11459	0.00235698	0.000000000000000E+000	1.37491e+06	0.000000000000000E+000	0.000000000000000E+000	1.94779	1.94779	0.0000000E+000	0.000000000000000E+000	0.0116823	2.28239
1	1	0	0	0	0	0	736	10	1.16955	10.0034	7.36216	7.36216	0	2.04504	11	-1.11468	0.00247064	0.000000000000000E+000	1.44307e+06	0.000000000000000E+000	0.000000000000000E+000	2.04504	2.04504	0.0000000E+000	0.000000000000000E+000	0.0116994	2.28422
1	1	0	0	0	0	0	771	10	1.17049	10.0034	7.71228	7.71228	0	2.1423	11	-1.11594	0.00258444	0.000000000000000E+000	1.51142e+06	0.000000000000000E+000	0.000000000000000E+000	2.1423	2.1423	0.0000000E+000	0.000000000000000E+000	0.0117089	2.28644
1	1	0	0	0	0	0	806	10	1.17092	10.0035	8.06241	8.06241	0	2.23956	11	-1.1168	0.0026983	0.000000000000000E+000	1.5799e+06	0.000000000000000E+000	0.000000000000000E+000	2.23956	2.23956	0.0000000E+000	0.000000000000000E+000	0.0117134	2.28773
1	1	0	0	0	0	0	841	10	1.17248	10.004	8.41253	8.41253	0	2.33681	11	-1.11795	0.00281225	0.000000000000000E+000	1.64801e+06	0.000000000000000E+000	0.000000000000000E+000	2.33681	2.33681	0.0000000E+000	0.000000000000000E+000	0.0117294	2.29043
1	1	0	0	0	0	0	876	10	1.17321	10.0031	8.76266	8.76266	0	2.43407	11	-1.11924	0.00292631	0.000000000000000E+000	1.71635e+06	0.000000000000000E+000	0.000000000000000E+000	2.43407	2.43407	0.0000000E+000	0.000000000000000E+000	0.0117357	2.29245
1	1	0	0	0	0	0	911	10	1.17388	10.0029	9.11278	9.11278	0	2.53133	11	-1.11985	0.00304046	0.000000000000000E+000	1.7847e+06	0.000000000000000E+000	0.000000000000000E+000	2.53133	2.53133	0.0000000E+000	0.000000000000000E+000	0.0117422	2.29373
1	1	0	0	0	0	0	946	10	1.17391	10.0033	9.46291	9.46291	0	2.62859	11	-1.11867	0.00315465	0.000000000000000E+000	1.85326e+06	0.000000000000000E+000	0.000000000000000E+000	2.62859	2.62859	0.0000000E+000	0.000000000000000E+000	0.011743	2.29258
1	1	0	0	0	0	0	981	10	1.17458	10.0032	9.81304	9.81304	0	2.72584	11	-1.11983	0.00326885	0.000000000000000E+000	1.92157e+06	0.000000000000000E+000	0.000000000000000E+000	2.72584	2.72584	0.0000000E+000	0.000000000000000E+000	0.0117496	2.29441
1	1	0	0	0	0	0	1016	10	1.17641	10.0042	10.1632	10.1632	0	2.8231	11	-1.12019	0.00338313	0.000000000000000E+000	1.98942e+06	0.000000000000000E+000	0.000000000000000E+000	2.8231	2.8231	0.0000000E+000	0.000000000000000E+000	0.0117691	2.2966
1	1	0	0	0	0	0	1051	10	1.17656	10.0042	10.5133	10.5133	0	2.92036	11	-1.12082	0.00349757	0.000000000000000E+000	2.0579e+06	0.000000000000000E+000	0.000000000000000E+000	2.92036	2.92036	0.0000000E+000	0.000000000000000E+000	0.0117705	2.29738
1	1	0	0	0	0	0	1086	10	1.17679	10.0038	10.8634	10.8634	0	3.01761	11	-1.12176	0.00361205	0.000000000000000E+000	2.12634e+06	0.000000000000000E+000	0.000000000000000E+000	3.01761	3.01761	0.0000000E+000	0.000000000000000E+000	0.0117724	2.29855
1	1	0	0	0	0	0	1121	10	1.17813	10.0036	11.2135	11.2135	0	3.11487	11	-1.12267	0.0037266	0.000000000000000E+000	2.19429e+06	0.000000000000000E+000	0.000000000000000E+000	3.11487	3.11487	0.0000000E+000	0.000000000000000E+000	0.0117856	2.30081
1	1	0	0	0	0	0	1156	10	1.18042	10.0029	11.5637	11.5637	0	3.21213	11	-1.12333	0.00384129	0.000000000000000E+000	2.26179e+06	0.000000000000000E+000	0.000000000000000E+000	3.21213	3.21213	0.0000000E+000	0.000000000000000E+000	0.0118077	2.30375
1	1	0	0	0	0	0	1191	10	1.18017	10.0038	11.9138	11.9138	0	3.30939	11	-1.12374	0.00395609	0.000000000000000E+000	2.33039e+06	0.000000000000000E+000	0.000000000000000E+000	3.30939	3.30939	0.0000000E+000	0.000000000000000E+000	0.0118062	2.30391
1	1	0	0	0	0	0	1226	10	-3.29073	10.0033	12.2639	12.2639	0	3.40664	11	-5.5982	0.00413116	0.000000000000000E+000	1.91188e+07	0.000000000000000E+000	0.000000000000000E+000	3.40664	3.40664	0.0000000E+000	0.000000000000000E+000	-0.032918	2.30748
1	1	0	0	0	0	0	1261	10	-3.70177	10.0037	12.614	12.614	0	3.5039	11	-6.01112	0.00447576	0.000000000000000E+000	5.47454e+07	0.000000000000000E+000	0.000000000000000E+000	3.5039	3.5039	0.0000000E+000	0.000000000000000E+000	-0.0370314	2.30934
1	1	0	0	0	0	0	1296	10	-3.87714	10.0036	12.9642	12.9642	0	3.60116	11	-6.18596	0.00484575	0.000000000000000E+000	2.3552e+08	0.000000000000000E+000	0.000000000000000E+000	3.60116	3.60116	0.0000000E+000	0.000000000000000E+000	-0.0387853	2.30882
1	1	0	0	0	0	0	1331	10	-4.00021	10.004	13.3143	13.3143	0	3.69842	11	-6.31203	0.00522959	0.000000000000000E+000	1.95743e+08	0.000000000000000E+000	0.000000000000000E+000	3.69842	3.69842	0.0000000E+000	0.000000000000000E+000	-0.0400181	2.31183
1	1	0	0	0	0	0	1366	10	-4.09476	10.0044	13.6644	13.6644	0	3.79567	11	-6.40485	0.00562448	0.000000000000000E+000	8.40516e+07	0.000000000000000E+000	0.000000000000000E+000	3.79567	3.79567	0.0000000E+000	0.000000000000000E+000	-0.0409656	2.31009
1	1	0	0	0	0	0	1401	10	-4.16404	10.0041	14.0145	14.0145	0	3.89293	11	-6.47366	0.00602629	0.000000000000000E+000	6.04462e+07	0.000000000000000E+000	0.000000000000000E+000	3.89293	3.89293	0.0000000E+000	0.000000000000000E+000	-0.0416574	2.30962
1	1	0	0	0	0	0	1436	10	-4.21158	10.004	14.3647	14.3647	0	3.99019	11	-6.5235	0.00643406	0.000000000000000E+000	5.14145e+07	0.000000000000000E+000	0.000000000000000E+000	3.99019	3.99019	0.0000000E+000	0.000000000000000E+000	-0.0421327	2.31193
1	1	0	0	0	0	0	1471	10	-4.25675	10.0034	14.7148	14.7148	0	4.08745	11	-6.57079	0.00684641	0.000000000000000E+000	4.53365e+07	0.000000000000000E+000	0.000000000000000E+000	4.08745	4.08745	0.0000000E+000	0.000000000000000E+000	-0.0425822	2.31404
1	1	0	0	0	0	0	1506	10	-4.31088	10.0043	15.0649	15.0649	0	4.1847	11	-6.62371	0.00726344	0.000000000000000E+000	3.97813e+07	0.000000000000000E+000	0.000000000000000E+000	4.1847	4.1847	0.0000000E+000	0.000000000000000E+000	-0.0431275	2.31283
1	1	0	0	0	0	0	1541	10	-4.33253	10.0036	15.4151	15.4151	0	4.28196	11	-6.6467	0.00768379	0.000000000000000E+000	3.85048e+07	0.000000000000000E+000	0.000000000000000E+000	4.28196	4.28196	0.0000000E+000	0.000000000000000E+000	-0.0433408	2.31418
1	1	0	0	0	0	0	1576	10	-4.36618	10.0041	15.7652	15.7652	0	4.37922	11	-6.67928	0.00810728	0.000000000000000E+000	3.63262e+07	0.000000000000000E+000	0.000000000000000E+000	4.37922	4.37922	0.0000000E+000	0.000000000000000E+000	-0.0436799	2.31311
1	1	0	0	0	0	0	1611	10	-4.40686	10.003	16.1153	16.1153	0	4.47648	11	-6.72159	0.00853456	0.000000000000000E+000	3.39505e+07	0.000000000000000E+000	0.000000000000000E+000	4.47648	4.47648	0.0000000E+000	0.000000000000000E+000	-0.0440818	2.31473
1	1	0	0	0	0	0	1646	10	-4.4482	10.004	16.4654	16.4654	0	4.57373	11	-6.76376	0.00896515	0.000000000000000E+000	3.19086e+07	0.000000000000000E+000	0.000000000000000E+000	4.57373	4.57373	0.0000000E+000	0.000000000000000E+000	-0.0444997	2.31556
1	1	0	0	0	0	0	1681	10	-4.48597	10.0023	16.8156	16.8156	0	4.67099	11	-6.80316	0.00939915	0.000000000000000E+000	3.03649e+07	0.000000000000000E+000	0.000000000000000E+000	4.67099	4.67099	0.0000000E+000	0.000000000000000E+000	-0.04487	2.31719
1	1	0	0	0	0	0	1716	10	-4.54542	10.0029	17.1657	17.1657	0	4.76825	11	-6.86427	0.00983611	0.000000000000000E+000	2.79921e+07	0.000000000000000E+000	0.000000000000000E+000	4.76825	4.76825	0.0000000E+000	0.000000000000000E+000	-0.0454676	2.31885
1	1	0	0	0	0	0	1751	10	-4.53391	10.0029	17.5158	17.5158	0	4.86551	11	-6.85194	0.0102773	0.000000000000000E+000	2.91093e+07	0.000000000000000E+000	0.000000000000000E+000	4.86551	4.86551	0.0000000E+000	0.000000000000000E+000	-0.0453525	2.31802
1	1	0	0	0	0	0	1786	10	-4.55505	10.0029	17.866	17.866	0	4.96277	11	-6.87555	0.0107194	0.000000000000000E+000	2.86834e+07	0.000000000000000E+000	0.000000000000000E+000	4.96277	4.96277	0.0000000E+000	0.000000000000000E+000	-0.0455639	2.3205
1	1	0	0	0	0	0	1821	10	-4.57907	10.0034	18.2161	18.2161	0	5.06002	11	-6.90112	0.0111637	0.000000000000000E+000	2.81598e+07	0.000000000000000E+000	0.000000000000000E+000	5.06002	5.06002	0.0000000E+000	0.000000000000000E+000	-0.0458065	2.32205
1	1	0	0	0	0	0	1856	10	-4.58414	10.0041	18.5662	18.5662	0	5.15728	11	-6.90629	0.0116092	0.000000000000000E+000	2.84779e+07	0.000000000000000E+000	0.000000000000000E+000	5.15728	5.15728	0.0000000E+000	0.000000000000000E+000	-0.0458604	2.32216
1	1	0	0	0	0	0	1891	10	-4.62492	10.0033	18.9163	18.9163	0	5.25454	11	-6.94525	0.012057	0.000000000000000E+000	2.73068e+07	0.000000000000000E+000	0.000000000000000E+000	5.25454	5.25454	0.0000000E+000	0.000000000000000E+000	-0.0462643	2.32034
1	1	0	0	0	0	0	1926	10	-4.63881	10.0029	19.2665	19.2665	0	5.3518	11	-6.96085	0.0125056	0.000000000000000E+000	2.72656e+07	0.000000000000000E+000	0.000000000000000E+000	5.3518	5.3518	0.0000000E+000	0.000000000000000E+000	-0.0464014	2.32205
1	1	0	0	0	0	0	1961	10	-4.64332	10.0037	19.6166	19.6166	0	5.44905	11	-6.96682	0.0129568	0.000000000000000E+000	2.75848e+07	0.000000000000000E+000	0.000000000000000E+000	5.44905	5.44905	0.0000000E+000	0.000000000000000E+000	-0.0464504	2.32349
1	1	0	0	0	0	0	1996	10	-4.66191	10.0038	19.9667	19.9667	0	5.54631	11	-6.98631	0.0134096	0.000000000000000E+000	2.73622e+07	0.000000000000000E+000	0.000000000000000E+000	5.54631	5.54631	0.0000000E+000	0.000000000000000E+000	-0.0466366	2.32441
1	1	0	0	0	0	0	2031	10	-4.6747	10.0029	20.3168	20.3168	0	5.64357	11	-7.00106	0.0138635	0.000000000000000E+000	2.73624e+07	0.000000000000000E+000	0.000000000000000E+000	5.64357	5.64357	0.0000000E+000	0.000000000000000E+000	-0.0467607	2.32636
1	1	0	0	0	0	0	2066	10	-4.70288	10.004	20.667	20.667	0	5.74083	11	-7.03061	0.0143195	0.000000000000000E+000	2.68162e+07	0.000000000000000E+000	0.000000000000000E+000	5.74083	5.74083	0.0000000E+000	0.000000000000000E+000	-0.0470477	2.32774
1	1	0	0	0	0	0	2101	10	-4.69866	10.003	21.0171	21.0171	0	5.83808	11	-7.02764	0.0147765	0.000000000000000E+000	2.74207e+07	0.000000000000000E+000	0.000000000000000E+000	5.83808	5.83808	0.0000000E+000	0.000000000000000E+000	-0.0470007	2.32898
1	1	0	0	0	0	0	2136	10	-4.71769	10.0032	21.3672	21.3672	0	5.93534	11	-7.04738	0.0152352	0.000000000000000E+000	2.7202e+07	0.000000000000000E+000	0.000000000000000E+000	5.93534	5.93534	0.0000000E+000	0.000000000000000E+000	-0.047192	2.32969
1	1	0	0	0	0	0	2171	10	-4.729	10.0038	21.7174	21.7174	0	6.0326	11	-7.05648	0.0156945	0.000000000000000E+000	2.72553e+07	0.000000000000000E+000	0.000000000000000E+000	6.0326	6.0326	0.0000000E+000	0.000000000000000E+000	-0.0473081	2.32748
1	1	0	0	0	0	0	2206	10	-4.7298	10.0036	22.0675	22.0675	0	6.12986	11	-7.0588	0.016155	0.000000000000000E+000	2.7667e+07	0.000000000000000E+000	0.000000000000000E+000	6.12986	6.12986	0.0000000E+000	0.000000000000000E+000	-0.0473149	2.329
1	1	0	0	0	0	0	2241	10	-4.74336	10.0029	22.4176	22.4176	0	6.22711	11	-7.07267	0.0166161	0.000000000000000E+000	2.76358e+07	0.000000000000000E+000	0.000000000000000E+000	6.22711	6.22711	0.0000000E+000	0.000000000000000E+000	-0.0474476	2.3293
1	1	0	0	0	0	0	2276	10	-4.7377	10.0036	22.7677	22.7677	0	6.32437	11	-7.06834	0.0170777	0.000000000000000E+000	2.8265e+07	0.000000000000000E+000	0.000000000000000E+000	6.32437	6.32437	0.0000000E+000	0.000000000000000E+000	-0.0473942	2.33064
1	1	0	0	0	0	0	2311	10	1.16098	10.0036	23.1179	23.1179	0	6.42163	11	-1.13767	0.0174898	0.000000000000000E+000	4.539e+06	0.000000000000000E+000	0.000000000000000E+000	6.42163	6.42163	0.0000000E+000	0.000000000000000E+000	0.011614	2.29865
1	1	0	0	0	0	0	2346	10	1.16262	10.0035	23.468	23.468	0	6.51889	11	-1.13759	0.0176027	0.000000000000000E+000	4.60625e+06	0.000000000000000E+000	0.000000000000000E+000	6.51889	6.51889	0.0000000E+000	0.000000000000000E+000	0.0116303	2.30021
1	1	0	0	0	0	0	2381	10	1.16388	10.0037	23.8181	23.8181	0	6.61614	11	-1.13834	0.0177159	0.000000000000000E+000	4.67383e+06	0.000000000000000E+000	0.000000000000000E+000	6.61614	6.61614	0.0000000E+000	0.000000000000000E+000	0.0116431	2.30222
1	1	0	0	0	0	0	2416	10	1.16541	10.0036	24.1682	24.1682	0	6.7134	11	-1.13886	0.0178292	0.000000000000000E+000	4.74111e+06	0.000000000000000E+000	0.000000000000000E+000	6.7134	6.7134	0.0000000E+000	0.000000000000000E+000	0.0116584	2.30428
1	1	0	0	0	0	0	2451	10	1.16535	10.0031	24.5184	24.5184	0	6.81066	11	-1.13729	0.0179426	0.000000000000000E+000	4.80985e+06	0.000000000000000E+000	0.000000000000000E+000	6.81066	6.81066	0.0000000E+000	0.000000000000000E+000	0.0116571	2.30264
1	1	0	0	0	0	0	2486	10	1.16633	10.0031	24.8685	24.8685	0	6.90792	11	-1.13804	0.0180559	0.000000000000000E+000	4.8776e+06	0.000000000000000E+000	0.000000000000000E+000	6.90792	6.90792	0.0000000E+000	0.000000000000000E+000	0.011667	2.30437
1	1	0	0	0	0	0	2521	10	1.16674	10.0035	25.2186	25.2186	0	7.00517	11	-1.13854	0.0181693	0.000000000000000E+000	4.94587e+06	0.000000000000000E+000	0.000000000000000E+000	7.00517	7.00517	0.0000000E+000	0.000000000000000E+000	0.0116715	2.30528
1	1	0	0	0	0	0	2556	10	1.16672	10.0043	25.5688	25.5688	0	7.10243	11	-1.13924	0.0182828	0.000000000000000E+000	5.01456e+06	0.000000000000000E+000	0.000000000000000E+000	7.10243	7.10243	0.0000000E+000	0.000000000000000E+000	0.0116722	2.30596
1	1	0	0	0	0	0	2591	10	1.16859	10.0032	25.9189	25.9189	0	7.19969	11	-1.13951	0.0183964	0.000000000000000E+000	5.08136e+06	0.000000000000000E+000	0.000000000000000E+000	7.19969	7.19969	0.0000000E+000	0.000000000000000E+000	0.0116896	2.3081
1	1	0	0	0	0	0	2626	10	1.16784	10.0044	26.269	26.269	0	7.29695	11	-1.14025	0.01851	0.000000000000000E+000	5.15076e+06	0.000000000000000E+000	0.000000000000000E+000	7.29695	7.29695	0.0000000E+000	0.000000000000000E+000	0.0116835	2.30808
1	1	0	0	0	0	0	2661	10	1.16926	10.0034	26.6191	26.6191	0	7.3942	11	-1.14075	0.0186237	0.000000000000000E+000	5.21796e+06	0.000000000000000E+000	0.000000000000000E+000	7.3942	7.3942	0.0000000E+000	0.000000000000000E+000	0.0116965	2.31
1	1	0	0	0	0	0	2696	10	1.17065	10.0026	26.9693	26.9693	0	7.49146	11	-1.13975	0.0187375	0.000000000000000E+000	5.28515e+06	0.000000000000000E+000	0.000000000000000E+000	7.49146	7.49146	0.0000000E+000	0.000000000000000E+000	0.0117095	2.31039
1	1	0	0	0	0	0	2731	10	1.17134	10.0036	27.3194	27.3194	0	7.58872	11	-1.13946	0.0188513	0.000000000000000E+000	5.35304e+06	0.000000000000000E+000	0.000000000000000E+000	7.58872	7.58872	0.0000000E+000	0.000000000000000E+000	0.0117177	2.3108
1	1	0	0	0	0	0	2766	10	1.17206	10.0045	27.6695	27.6695	0	7.68597	11	-1.13815	0.0189653	0.000000000000000E+000	5.42088e+06	0.000000000000000E+000	0.000000000000000E+000	7.68597	7.68597	0.0000000E+000	0.000000000000000E+000	0.0117259	2.31021
1	1	0	0	0	0	0	2801	10	1.17112	10.0036	28.0196	28.0196	0	7.78323	11	-1.13858	0.0190792	0.000000000000000E+000	5.49048e+06	0.000000000000000E+000	0.000000000000000E+000	7.78323	7.78323	0.0000000E+000	0.000000000000000E+000	0.0117154	2.30971
1	1	0	0	0	0	0	2836	10	1.17266	10.0033	28.3698	28.3698	0	7.88049	11	-1.13896	0.0191931	0.000000000000000E+000	5.55742e+06	0.000000000000000E+000	0.000000000000000E+000	7.88049	7.88049	0.0000000E+000	0.000000000000000E+000	0.0117304	2.31162
1	1	0	0	0	0	0	2871	10	1.17165	10.004	28.7199	28.7199	0	7.97775	11	-1.13958	0.0193071	0.000000000000000E+000	5.62711e+06	0.000000000000000E+000	0.000000000000000E+000	7.97775	7.97775	0.0000000E+000	0.000000000000000E+000	0.0117213	2.31124
1	1	0	0	0	0	0	2906	10	1.1719	10.004	29.07	29.07	0	8.075	11	-1.13991	0.0194211	0.000000000000000E+000	5.69544e+06	0.000000000000000E+000	0.000000000000000E+000	8.075	8.075	0.0000000E+000	0.000000000000000E+000	0.0117236	2.3118
1	1	0	0	0	0	0	2941	10	1.17271	10.0033	29.4201	29.4201	0	8.17226	11	-1.14012	0.0195351	0.000000000000000E+000	5.76312e+06	0.000000000000000E+000	0.000000000000000E+000	8.17226	8.17226	0.0000000E+000	0.000000000000000E+000	0.011731	2.31283
1	1	0	0	0	0	0	2976	10	1.17388	10.0032	29.7703	29.7703	0	8.26952	11	-1.14106	0.0196492	0.000000000000000E+000	5.83037e+06	0.000000000000000E+000	0.000000000000000E+000	8.26952	8.26952	0.0000000E+000	0.000000000000000E+000	0.0117426	2.31494
1	1	0	0	0	0	0	3011	10	1.17474	10.0031	30.1204	30.1204	0	8.36677	11	-1.14177	0.0197634	0.000000000000000E+000	5.89794e+06	0.000000000000000E+000	0.000000000000000E+000	8.36677	8.36677	0.0000000E+000	0.000000000000000E+000	0.011751	2.31651
1	1	0	0	0	0	0	3046	10	1.17636	10.0036	30.4705	30.4705	0	8.46403	11	-1.14239	0.0198777	0.000000000000000E+000	5.96461e+06	0.000000000000000E+000	0.000000000000000E+000	8.46403	8.46403	0.0000000E+000	0.000000000000000E+000	0.0117679	2.31875
1	1	0	0	0	0	0	3081	10	1.17584	10.0029	30.8206	30.8206	0	8.56129	11	-1.14009	0.0199921	0.000000000000000E+000	6.03376e+06	0.000000000000000E+000	0.000000000000000E+000	8.56129	8.56129	0.0000000E+000	0.000000000000000E+000	0.0117619	2.31593
1	1	0	0	0	0	0	3116	10	1.17734	10.0031	31.1708	31.1708	0	8.65855	11	-1.14058	0.0201065	0.000000000000000E+000	6.10052e+06	0.000000000000000E+000	0.000000000000000E+000	8.65855	8.65855	0.0000000E+000	0.000000000000000E+000	0.0117771	2.31792
1	1	0	0	0	0	0	3151	10	1.1775	10.0036	31.5209	31.5209	0	8.7558	11	-1.14122	0.020221	0.000000000000000E+000	6.16885e+06	0.000000000000000E+000	0.000000000000000E+000	8.7558	8.7558	0.0000000E+000	0.000000000000000E+000	0.0117793	2.31872
1	1	0	0	0	0	0	3186	10	1.179	10.0034	31.871	31.871	0	8.85306	11	-1.14222	0.0203356	0.000000000000000E+000	6.23554e+06	0.000000000000000E+000	0.000000000000000E+000	8.85306	8.85306	0.0000000E+000	0.000000000000000E+000	0.0117941	2.32122
1	1	0	0	0	0	0	3221	10	1.17929	10.0033	32.2211	32.2211	0	8.95032	11	-1.14173	0.0204503	0.000000000000000E+000	6.30368e+06	0.000000000000000E+000	0.000000000000000E+000	8.95032	8.95032	0.0000000E+000	0.000000000000000E+000	0.0117969	2.32102
1	1	0	0	0	0	0	3256	10	1.17962	10.0035	32.5713	32.5713	0	9.04757	11	-1.14118	0.020565	0.000000000000000E+000	6.37178e+06	0.000000000000000E+000	0.000000000000000E+000	9.04757	9.04757	0.0000000E+000	0.000000000000000E+000	0.0118003	2.3208
1	1	0	0	0	0	0	3291	10	1.18097	10.0037	32.9214	32.9214	0	9.14483	11	-1.14171	0.0206798	0.000000000000000E+000	6.43857e+06	0.000000000000000E+000	0.000000000000000E+000	9.14483	9.14483	0.0000000E+000	0.000000000000000E+000	0.0118141	2.32268
1	1	0	0	0	0	0	3326	10	1.18152	10.004	33.2715	33.2715	0	9.24209	11	-1.1427	0.0207947	0.000000000000000E+000	6.50634e+06	0.000000000000000E+000	0.000000000000000E+000	9.24209	9.24209	0.0000000E+000	0.000000000000000E+000	0.0118199	2.32422
1	1	0	0	0	0	0	3361	10	1.18085	10.0036	33.6217	33.6217	0	9.33935	11	-1.14091	0.0209096	0.000000000000000E+000	6.57568e+06	0.000000000000000E+000	0.000000000000000E+000	9.33935	9.33935	0.0000000E+000	0.000000000000000E+000	0.0118128	2.32175
1	1	0	0	0	0	0	3396	10	1.18118	10.0032	33.9718	33.9718	0	9.4366	11	-1.14168	0.0210245	0.000000000000000E+000	6.64373e+06	0.000000000000000E+000	0.000000000000000E+000	9.4366	9.4366	0.0000000E+000	0.000000000000000E+000	0.0118155	2.32286
1	1	0	0	0	0	0	3431	10	1.18054	10.0029	34.3219	34.3219	0	9.53386	11	-1.1423	0.0211394	0.000000000000000E+000	6.71303e+06	0.000000000000000E+000	0.000000000000000E+000	9.53386	9.53386	0.0000000E+000	0.000000000000000E+000	0.0118089	2.32284
1	1	0	0	0	0	0	3466	10	1.18133	10.0031	34.672	34.672	0	9.63112	11	-1.14261	0.0212542	0.000000000000000E+000	6.78047e+06	0.000000000000000E+000	0.000000000000000E+000	9.63112	9.63112	0.0000000E+000	0.000000000000000E+000	0.011817	2.32394
1	1	0	0	0	0	0	3501	10	1.18148	10.0038	35.0222	35.0222	0	9.72838	11	-1.14373	0.0213691	0.000000000000000E+000	6.84874e+06	0.000000000000000E+000	0.000000000000000E+000	9.72838	9.72838	0.0000000E+000	0.000000000000000E+000	0.0118193	2.32521
1	1	0	0	0	0	0	3536	10	1.18215	10.0041	35.3723	35.3723	0	9.82563	11	-1.14366	0.021484	0.000000000000000E+000	6.9163e+06	0.000000000000000E+000	0.000000000000000E+000	9.82563	9.82563	0.0000000E+000	0.000000000000000E+000	0.0118263	2.32582
1	1	0	0	0	0	0	3571	10	1.18247	10.0038	35.7224	35.7224	0	9.92289	11	-1.14409	0.0215989	0.000000000000000E+000	6.98432e+06	0.000000000000000E+000	0.000000000000000E+000	9.92289	9.92289	0.0000000E+000	0.000000000000000E+000	0.0118292	2.32656
1	1	0	0	0	0	0	3606	10	1.1837	10.004	36.0725	36.0725	0	10.0201	11	-1.14476	0.021714	0.000000000000000E+000	7.05109e+06	0.000000000000000E+000	0.000000000000000E+000	10.0201	10.0201	0.0000000E+000	0.000000000000000E+000	0.0118417	2.32845
1	1	0	0	0	0	0	3641	10	1.18322	10.0031	36.4227	36.4227	0	10.1174	11	-1.14213	0.021829	0.000000000000000E+000	7.12019e+06	0.000000000000000E+000	0.000000000000000E+000	10.1174	10.1174	0.0000000E+000	0.000000000000000E+000	0.0118359	2.32535
1	1	0	0	0	0	0	3676	10	-3.47512	10.0041	36.7728	36.7728	0	10.2147	11	-5.80601	0.0220435	0.000000000000000E+000	8.04538e+07	0.000000000000000E+000	0.000000000000000E+000	10.2147	10.2147	0.0000000E+000	0.000000000000000E+000	-0.0347654	2.33089
1	1	0	0	0	0	0	3711	10	-3.83659	10.0031	37.1229	37.1229	0	10.3119	11	-6.16699	0.0224054	0.000000000000000E+000	3.88337e+08	0.000000000000000E+000	0.000000000000000E+000	10.3119	10.3119	0.0000000E+000	0.000000000000000E+000	-0.0383777	2.3304
1	1	0	0	0	0	0	3746	10	-3.99744	10.004	37.473	37.473	0	10.4092	11	-6.33081	0.0227872	0.000000000000000E+000	5.74252e+08	0.000000000000000E+000	0.000000000000000E+000	10.4092	10.4092	0.0000000E+000	0.000000000000000E+000	-0.0399905	2.33337
1	1	0	0	0	0	0	3781	10	-4.08637	10.0041	37.8232	37.8232	0	10.5064	11	-6.41828	0.0231802	0.000000000000000E+000	2.45308e+08	0.000000000000000E+000	0.000000000000000E+000	10.5064	10.5064	0.0000000E+000	0.000000000000000E+000	-0.0408804	2.33191
1	1	0	0	0	0	0	3816	10	-4.16521	10.0036	38.1733	38.1733	0	10.6037	11	-6.4973	0.0235823	0.000000000000000E+000	1.63817e+08	0.000000000000000E+000	0.000000000000000E+000	10.6037	10.6037	0.0000000E+000	0.000000000000000E+000	-0.041667	2.33209
1	1	0	0	0	0	0	3851	10	-4.2277	10.0038	38.5234	38.5234	0	10.701	11	-6.56187	0.0239909	0.000000000000000E+000	1.30361e+08	0.000000000000000E+000	0.000000000000000E+000	10.701	10.701	0.0000000E+000	0.000000000000000E+000	-0.0422932	2.33417
1	1	0	0	0	0	0	3886	10	-4.30684	10.0031	38.8736	38.8736	0	10.7982	11	-6.63926	0.0244055	0.000000000000000E+000	1.03759e+08	0.000000000000000E+000	0.000000000000000E+000	10.7982	10.7982	0.0000000E+000	0.000000000000000E+000	-0.0430819	2.33243
1	1	0	0	0	0	0	3921	10	-4.33556	10.0032	39.2237	39.2237	0	10.8955	11	-6.66587	0.0248255	0.000000000000000E+000	9.72386e+07	0.000000000000000E+000	0.000000000000000E+000	10.8955	10.8955	0.0000000E+000	0.000000000000000E+000	-0.0433695	2.3303
1	1	0	0	0	0	0	3956	10	-4.37922	10.0039	39.5738	39.5738	0	10.9927	11	-6.71175	0.0252497	0.000000000000000E+000	8.85254e+07	0.000000000000000E+000	0.000000000000000E+000	10.9927	10.9927	0.0000000E+000	0.000000000000000E+000	-0.0438092	2.33253
1	1	0	0	0	0	0	3991	10	-4.41572	10.0034	39.9239	39.9239	0	11.09	11	-6.74783	0.025678	0.000000000000000E+000	8.25667e+07	0.000000000000000E+000	0.000000000000000E+000	11.09	11.09	0.0000000E+000	0.000000000000000E+000	-0.0441722	2.33211
1	1	0	0	0	0	0	4026	10	-4.46866	10.0038	40.2741	40.2741	0	11.1872	11	-6.80273	0.0261101	0.000000000000000E+000	7.50716e+07	0.000000000000000E+000	0.000000000000000E+000	11.1872	11.1872	0.0000000E+000	0.000000000000000E+000	-0.0447034	2.33407
1	1	0	0	0	0	0	4061	10	-4.4871	10.0037	40.6242	40.6242	0	11.2845	11	-6.82254	0.0265455	0.000000000000000E+000	7.32074e+07	0.000000000000000E+000	0.000000000000000E+000	11.2845	11.2845	0.0000000E+000	0.000000000000000E+000	-0.0448877	2.33543
1	1	0	0	0	0	0	4096	10	-4.51585	10.0043	40.9743	40.9743	0	11.3818	11	-6.85078	0.0269841	0.000000000000000E+000	7.0202e+07	0.000000000000000E+000	0.000000000000000E+000	11.3818	11.3818	0.0000000E+000	0.000000000000000E+000	-0.0451778	2.33493
1	1	0	0	0	0	0	4131	10	-4.54379	10.0036	41.3245	41.3245	0	11.479	11	-6.87834	0.027425	0.000000000000000E+000	6.75677e+07	0.000000000000000E+000	0.000000000000000E+000	11.479	11.479	0.0000000E+000	0.000000000000000E+000	-0.0454544	2.33456
1	1	0	0	0	0	0	4166	10	-4.56453	10.0044	41.6746	41.6746	0	11.5763	11	-6.90074	0.0278679	0.000000000000000E+000	6.59044e+07	0.000000000000000E+000	0.000000000000000E+000	11.5763	11.5763	0.0000000E+000	0.000000000000000E+000	-0.0456654	2.33621
1	1	0	0	0	0	0	4201	10	-4.59287	10.004	42.0247	42.0247	0	11.6735	11	-6.9277	0.0283136	0.000000000000000E+000	6.36076e+07	0.000000000000000E+000	0.000000000000000E+000	11.6735	11.6735	0.0000000E+000	0.000000000000000E+000	-0.0459469	2.33483
1	1	0	0	0	0	0	4236	10	-4.64055	10.0032	42.3748	42.3748	0	11.7708	11	-6.97748	0.0287621	0.000000000000000E+000	5.98204e+07	0.000000000000000E+000	0.000000000000000E+000	11.7708	11.7708	0.0000000E+000	0.000000000000000E+000	-0.0464204	2.33692
1	1	0	0	0	0	0	4271	10	-4.63302	10.0029	42.725	42.725	0	11.868	11	-6.97094	0.0292126	0.000000000000000E+000	6.09629e+07	0.000000000000000E+000	0.000000000000000E+000	11.868	11.868	0.0000000E+000	0.000000000000000E+000	-0.0463435	2.33792
1	1	0	0	0	0	0	4306	10	-4.65685	10.004	43.0751	43.0751	0	11.9653	11	-6.99578	0.0296644	0.000000000000000E+000	5.94414e+07	0.000000000000000E+000	0.000000000000000E+000	11.9653	11.9653	0.0000000E+000	0.000000000000000E+000	-0.0465869	2.33893
1	1	0	0	0	0	0	4341	10	-4.68361	10.0043	43.4252	43.4252	0	12.0626	11	-7.02347	0.0301187	0.000000000000000E+000	5.77906e+07	0.000000000000000E+000	0.000000000000000E+000	12.0626	12.0626	0.0000000E+000	0.000000000000000E+000	-0.0468561	2.33986
1	1	0	0	0	0	0	4376	10	-4.67028	10.0045	43.7753	43.7753	0	12.1598	11	-7.0104	0.0305735	0.000000000000000E+000	5.93085e+07	0.000000000000000E+000	0.000000000000000E+000	12.1598	12.1598	0.0000000E+000	0.000000000000000E+000	-0.046724	2.34012
1	1	0	0	0	0	0	4411	10	-4.68848	10.003	44.1255	44.1255	0	12.2571	11	-7.02952	0.0310291	0.000000000000000E+000	5.83441e+07	0.000000000000000E+000	0.000000000000000E+000	12.2571	12.2571	0.0000000E+000	0.000000000000000E+000	-0.0468989	2.34104
1	1	0	0	0	0	0	4446	10	-4.70484	10.0029	44.4756	44.4756	0	12.3543	11	-7.04746	0.0314862	0.000000000000000E+000	5.75623e+07	0.000000000000000E+000	0.000000000000000E+000	12.3543	12.3543	0.0000000E+000	0.000000000000000E+000	-0.0470619	2.34262
1	1	0	0	0	0	0	4481	10	-4.7293	10.0033	44.8257	44.8257	0	12.4516	11	-7.07002	0.0319449	0.000000000000000E+000	5.62352e+07	0.000000000000000E+000	0.000000000000000E+000	12.4516	12.4516	0.0000000E+000	0.000000000000000E+000	-0.0473087	2.34072
1	1	0	0	0	0	0	4516	10	-4.72966	10.0039	45.1759	45.1759	0	12.5489	11	-7.07141	0.0324047	0.000000000000000E+000	5.66484e+07	0.000000000000000E+000	0.000000000000000E+000	12.5489	12.5489	0.0000000E+000	0.000000000000000E+000	-0.0473151	2.34175
1	1	0	0	0	0	0	4551	10	-4.74092	10.0029	45.526	45.526	0	12.6461	11	-7.0846	0.0328655	0.000000000000000E+000	5.62929e+07	0.000000000000000E+000	0.000000000000000E+000	12.6461	12.6461	0.0000000E+000	0.000000000000000E+000	-0.0474228	2.34368
1	1	0	0	0	0	0	4586	10	-4.75581	10.0034	45.8761	45.8761	0	12.7434	11	-7.09966	0.0333276	0.000000000000000E+000	5.57005e+07	0.000000000000000E+000	0.000000000000000E+000	12.7434	12.7434	0.0000000E+000	0.000000000000000E+000	-0.0475745	2.34385
1	1	0	0	0	0	0	4621	10	-4.76189	10.0036	46.2263	46.2263	0	12.8406	11	-7.10757	0.0337901	0.000000000000000E+000	5.57138e+07	0.000000000000000E+000	0.000000000000000E+000	12.8406	12.8406	0.0000000E+000	0.000000000000000E+000	-0.0476363	2.34567
1	1	0	0	0	0	0	4656	10	-4.75547	10.0039	46.5764	46.5764	0	12.9379	11	-7.10056	0.0342527	0.000000000000000E+000	5.65737e+07	0.000000000000000E+000	0.000000000000000E+000	12.9379	12.9379	0.0000000E+000	0.000000000000000E+000	-0.0475732	2.34509
1	1	0	0	0	0	0	4691	10	-4.79239	10.0038	46.9265	46.9265	0	13.0351	11	-7.1387	0.0347165	0.000000000000000E+000	5.45525e+07	0.000000000000000E+000	0.000000000000000E+000	13.0351	13.0351	0.0000000E+000	0.000000000000000E+000	-0.0479423	2.34631
1	1	0	0	0	0	0	4726	10	-4.788	10.0038	47.2766	47.2766	0	13.1324	11	-7.13352	0.0351814	0.000000000000000E+000	5.52419e+07	0.000000000000000E+000	0.000000000000000E+000	13.1324	13.1324	0.0000000E+000	0.000000000000000E+000	-0.0478983	2.34553
1	1	0	0	0	0	0	4761	10	-4.78756	10.0035	47.6268	47.6268	0	13.2297	11	-7.13311	0.0356467	0.000000000000000E+000	5.56796e+07	0.000000000000000E+000	0.000000000000000E+000	13.2297	13.2297	0.0000000E+000	0.000000000000000E+000	-0.0478924	2.34556
1	1	0	0	0	0	0	4796	10	-4.81064	10.0038	47.9769	47.9769	0	13.3269	11	-7.15867	0.0361134	0.000000000000000E+000	5.4615e+07	0.000000000000000E+000	0.000000000000000E+000	13.3269	13.3269	0.0000000E+000	0.000000000000000E+000	-0.0481249	2.34803
1	1	0	0	0	0	0	4831	10	-4.82184	10.0045	48.327	48.327	0	13.4242	11	-7.1648	0.0365817	0.000000000000000E+000	5.43209e+07	0.000000000000000E+000	0.000000000000000E+000	13.4242	13.4242	0.0000000E+000	0.000000000000000E+000	-0.04824	2.34295
1	1	0	0	0	0	0	4866	10	-4.82003	10.0036	48.6772	48.6772	0	13.5214	11	-7.1662	0.0370516	0.000000000000000E+000	5.48264e+07	0.000000000000000E+000	0.000000000000000E+000	13.5214	13.5214	0.0000000E+000	0.000000000000000E+000	-0.0482175	2.34617
1	1	0	0	0	0	0	4901	10	-4.83098	10.0033	49.0273	49.0273	0	13.6187	11	-7.17539	0.037521	0.000000000000000E+000	5.4548e+07	0.000000000000000E+000	0.000000000000000E+000	13.6187	13.6187	0.0000000E+000	0.000000000000000E+000	-0.0483258	2.34441
1	1	0	0	0	0	0	4936	10	-4.83786	10.004	49.3774	49.3774	0	13.7159	11	-7.18353	0.0379913	0.000000000000000E+000	5.45201e+07	0.000000000000000E+000	0.000000000000000E+000	13.7159	13.7159	0.0000000E+000	0.000000000000000E+000	-0.048398	2.34567
1	1	0	0	0	0	0	4971	10	-4.84997	10.0029	49.7275	49.7275	0	13.8132	11	-7.19742	0.0384625	0.000000000000000E+000	5.41822e+07	0.000000000000000E+000	0.000000000000000E+000	13.8132	13.8132	0.0000000E+000	0.000000000000000E+000	-0.0485136	2.34745
1	1	0	0	0	0	0	5006	10	-4.86021	10.0031	50.0777	50.0777	0	13.9105	11	-7.20542	0.0389344	0.000000000000000E+000	5.39618e+07	0.000000000000000E+000	0.000000000000000E+000	13.9105	13.9105	0.0000000E+000	0.000000000000000E+000	-0.048617	2.34522
1	1	0	0	0	0	0	5041	10	1.2118	10.0035	50.4278	50.4278	0	14.0077	11	-1.14844	0.0391755	0.000000000000000E+000	9.80325e+06	0.000000000000000E+000	0.000000000000000E+000	14.0077	14.0077	0.0000000E+000	0.000000000000000E+000	0.0121223	2.36024
1	1	0	0	0	0	0	5076	10	1.21183	10.0034	50.7779	50.7779	0	14.105	11	-1.14927	0.0392935	0.000000000000000E+000	9.87125e+06	0.000000000000000E+000	0.000000000000000E+000	14.105	14.105	0.0000000E+000	0.000000000000000E+000	0.0121225	2.36111
1	1	0	0	0	0	0	5111	10	1.2121	10.0041	51.128	51.128	0	14.2022	11	-1.14711	0.0394114	0.000000000000000E+000	9.9388e+06	0.000000000000000E+000	0.000000000000000E+000	14.2022	14.2022	0.0000000E+000	0.000000000000000E+000	0.012126	2.35921
1	1	0	0	0	0	0	5146	10	1.21363	10.0031	51.4782	51.4782	0	14.2995	11	-1.15758	0.0395292	0.000000000000000E+000	1.00039e+07	0.000000000000000E+000	0.000000000000000E+000	14.2995	14.2995	0.0000000E+000	0.000000000000000E+000	0.0121401	2.37121
1	1	0	0	0	0	0	5181	10	1.20938	10.0028	51.8283	51.8283	0	14.3968	11	-1.1515	0.0396471	0.000000000000000E+000	1.00803e+07	0.000000000000000E+000	0.000000000000000E+000	14.3968	14.3968	0.0000000E+000	0.000000000000000E+000	0.0120972	2.36088
1	1	0	0	0	0	0	5216	10	1.21226	10.0036	52.1784	52.1784	0	14.494	11	-1.15251	0.0397649	0.000000000000000E+000	1.01427e+07	0.000000000000000E+000	0.000000000000000E+000	14.494	14.494	0.0000000E+000	0.000000000000000E+000	0.0121269	2.36477
1	1	0	0	0	0	0	5251	10	1.21726	10.0033	52.5286	52.5286	0	14.5913	11	-1.15293	0.039883	0.000000000000000E+000	1.02008e+07	0.000000000000000E+000	0.000000000000000E+000	14.5913	14.5913	0.0000000E+000	0.000000000000000E+000	0.0121767	2.37019
1	1	0	0	0	0	0	5286	10	1.20927	10.0035	52.8787	52.8787	0	14.6885	11	-1.15036	0.0400007	0.000000000000000E+000	1.02848e+07	0.000000000000000E+000	0.000000000000000E+000	14.6885	14.6885	0.0000000E+000	0.000000000000000E+000	0.012097	2.35964
1	1	0	0	0	0	0	5321	10	1.21088	10.0034	53.2288	53.2288	0	14.7858	11	-1.15114	0.0401184	0.000000000000000E+000	1.03496e+07	0.000000000000000E+000	0.000000000000000E+000	14.7858	14.7858	0.0000000E+000	0.000000000000000E+000	0.0121129	2.36202
1	1	0	0	0	0	0	5356	10	1.21241	10.0028	53.5789	53.5789	0	14.883	11	-1.15203	0.0402363	0.000000000000000E+000	1.04146e+07	0.000000000000000E+000	0.000000000000000E+000	14.883	14.883	0.0000000E+000	0.000000000000000E+000	0.0121275	2.36444
1	1	0	0	0	0	0	5391	10	1.2104	10.0031	53.9291	53.9291	0	14.9803	11	-1.15145	0.0403541	0.000000000000000E+000	1.04868e+07	0.000000000000000E+000	0.000000000000000E+000	14.9803	14.9803	0.0000000E+000	0.000000000000000E+000	0.0121077	2.36185
1	1	0	0	0	0	0	5426	10	1.21342	10.0039	54.2792	54.2792	0	15.0776	11	-1.15289	0.040472	0.000000000000000E+000	1.05486e+07	0.000000000000000E+000	0.000000000000000E+000	15.0776	15.0776	0.0000000E+000	0.000000000000000E+000	0.0121389	2.36631
1	1	0	0	0	0	0	5461	10	1.21602	10.0034	54.6293	54.6293	0	15.1748	11	-1.15145	0.0405901	0.000000000000000E+000	1.06113e+07	0.000000000000000E+000	0.000000000000000E+000	15.1748	15.1748	0.0000000E+000	0.000000000000000E+000	0.0121644	2.36748
1	1	0	0	0	0	0	5496	10	1.21453	10.0043	54.9795	54.9795	0	15.2721	11	-1.1536	0.0407084	0.000000000000000E+000	1.06824e+07	0.000000000000000E+000	0.000000000000000E+000	15.2721	15.2721	0.0000000E+000	0.000000000000000E+000	0.0121505	2.36812
1	1	0	0	0	0	0	5531	10	1.21663	10.0038	55.3296	55.3296	0	15.3693	11	-1.15372	0.0408266	0.000000000000000E+000	1.07461e+07	0.000000000000000E+000	0.000000000000000E+000	15.3693	15.3693	0.0000000E+000	0.000000000000000E+000	0.012171	2.37035
1	1	0	0	0	0	0	5566	10	1.21521	10.0037	55.6797	55.6797	0	15.4666	11	-1.15219	0.0409448	0.000000000000000E+000	1.08171e+07	0.000000000000000E+000	0.000000000000000E+000	15.4666	15.4666	0.0000000E+000	0.000000000000000E+000	0.0121566	2.3674
1	1	0	0	0	0	0	5601	10	1.21543	10.0031	56.0298	56.0298	0	15.5638	11	-1.15298	0.041063	0.000000000000000E+000	1.08846e+07	0.000000000000000E+000	0.000000000000000E+000	15.5638	15.5638	0.0000000E+000	0.000000000000000E+000	0.012158	2.3684
1	1	0	0	0	0	0	5636	10	1.215	10.004	56.38	56.38	0	15.6611	11	-1.15357	0.0411813	0.000000000000000E+000	1.09535e+07	0.000000000000000E+000	0.000000000000000E+000	15.6611	15.6611	0.0000000E+000	0.000000000000000E+000	0.0121549	2.36858
1	1	0	0	0	0	0	5671	10	1.216	10.0031	56.7301	56.7301	0	15.7584	11	-1.15388	0.0412996	0.000000000000000E+000	1.10194e+07	0.000000000000000E+000	0.000000000000000E+000	15.7584	15.7584	0.0000000E+000	0.000000000000000E+000	0.0121638	2.36988
1	1	0	0	0	0	0	5706	10	1.21889	10.0039	57.0802	57.0802	0	15.8556	11	-1.15489	0.041418	0.000000000000000E+000	1.10812e+07	0.000000000000000E+000	0.000000000000000E+000	15.8556	15.8556	0.0000000E+000	0.000000000000000E+000	0.0121936	2.37378
1	1	0	0	0	0	0	5741	10	1.21811	10.0035	57.4304	57.4304	0	15.9529	11	-1.15469	0.0415364	0.000000000000000E+000	1.11509e+07	0.000000000000000E+000	0.000000000000000E+000	15.9529	15.9529	0.0000000E+000	0.000000000000000E+000	0.0121853	2.37279
1	1	0	0	0	0	0	5776	10	1.21758	10.0033	57.7805	57.7805	0	16.0501	11	-1.15513	0.0416549	0.000000000000000E+000	1.122e+07	0.000000000000000E+000	0.000000000000000E+000	16.0501	16.0501	0.0000000E+000	0.000000000000000E+000	0.0121799	2.37271
1	1	0	0	0	0	0	5811	10	1.21821	10.0037	58.1306	58.1306	0	16.1474	11	-1.15539	0.0417734	0.000000000000000E+000	1.12866e+07	0.000000000000000E+000	0.000000000000000E+000	16.1474	16.1474	0.0000000E+000	0.000000000000000E+000	0.0121866	2.37361
1	1	0	0	0	0	0	5846	10	1.21794	10.0047	58.4808	58.4808	0	16.2447	11	-1.15192	0.0418918	0.000000000000000E+000	1.13552e+07	0.000000000000000E+000	0.000000000000000E+000	16.2447	16.2447	0.0000000E+000	0.000000000000000E+000	0.0121851	2.36986
1	1	0	0	0	0	0	5881	10	1.21755	10.0036	58.8309	58.8309	0	16.3419	11	-1.15268	0.0420103	0.000000000000000E+000	1.14241e+07	0.000000000000000E+000	0.000000000000000E+000	16.3419	16.3419	0.0000000E+000	0.000000000000000E+000	0.0121799	2.37023
1	1	0	0	0	0	0	5916	10	1.21872	10.0036	59.181	59.181	0	16.4392	11	-1.15305	0.0421288	0.000000000000000E+000	1.14894e+07	0.000000000000000E+000	0.000000000000000E+000	16.4392	16.4392	0.0000000E+000	0.000000000000000E+000	0.0121916	2.37176
1	1	0	0	0	0	0	5951	10	1.22007	10.0034	59.5311	59.5311	0	16.5364	11	-1.15359	0.0422474	0.000000000000000E+000	1.15544e+07	0.000000000000000E+000	0.000000000000000E+000	16.5364	16.5364	0.0000000E+000	0.000000000000000E+000	0.0122048	2.37366
1	1	0	0	0	0	0	5986	10	1.21832	10.0037	59.8813	59.8813	0	16.6337	11	-1.15437	0.042366	0.000000000000000E+000	1.16263e+07	0.000000000000000E+000	0.000000000000000E+000	16.6337	16.6337	0.0000000E+000	0.000000000000000E+000	0.0121877	2.37268
1	1	0	0	0	0	0	6021	10	1.22136	10.0038	60.2314	60.2314	0	16.7309	11	-1.15487	0.0424846	0.000000000000000E+000	1.16874e+07	0.000000000000000E+000	0.000000000000000E+000	16.7309	16.7309	0.0000000E+000	0.000000000000000E+000	0.0122182	2.37623
1	1	0	0	0	0	0	6056	10	1.22344	10.0035	60.5815	60.5815	0	16.8282	11	-1.15487	0.0426035	0.000000000000000E+000	1.17506e+07	0.000000000000000E+000	0.000000000000000E+000	16.8282	16.8282	0.0000000E+000	0.000000000000000E+000	0.0122387	2.37831
1	1	0	0	0	0	0	6091	10	1.21902	10.0033	60.9316	60.9316	0	16.9255	11	-1.15606	0.0427222	0.000000000000000E+000	1.18286e+07	0.000000000000000E+000	0.000000000000000E+000	16.9255	16.9255	0.0000000E+000	0.000000000000000E+000	0.0121941	2.37507
1	1	0	0	0	0	0	6126	10	1.21969	10.0044	61.2818	61.2818	0	17.0227	11	-1.15301	0.0428408	0.000000000000000E+000	1.1895e+07	0.000000000000000E+000	0.000000000000000E+000	17.0227	17.0227	0.0000000E+000	0.000000000000000E+000	0.0122022	2.37269
1	1	0	0	0	0	0	6161	10	1.22245	10.0034	61.6319	61.6319	0	17.12	11	-1.15368	0.0429596	0.000000000000000E+000	1.19566e+07	0.000000000000000E+000	0.000000000000000E+000	17.12	17.12	0.0000000E+000	0.000000000000000E+000	0.0122287	2.37612
1	1	0	0	0	0	0	6196	10	1.21882	10.003	61.982	61.982	0	17.2172	11	-1.154	0.0430784	0.000000000000000E+000	1.2033e+07	0.000000000000000E+000	0.000000000000000E+000	17.2172	17.2172	0.0000000E+000	0.000000000000000E+000	0.0121918	2.37282
1	1	0	0	0	0	0	6231	10	1.22191	10.0038	62.3322	62.3322	0	17.3145	11	-1.15403	0.0431972	0.000000000000000E+000	1.20937e+07	0.000000000000000E+000	0.000000000000000E+000	17.3145	17.3145	0.0000000E+000	0.000000000000000E+000	0.0122238	2.37594
1	1	0	0	0	0	0	6266	10	1.22448	10.004	62.6823	62.6823	0	17.4117	11	-1.1535	0.0433162	0.000000000000000E+000	1.21556e+07	0.000000000000000E+000	0.000000000000000E+000	17.4117	17.4117	0.0000000E+000	0.000000000000000E+000	0.0122497	2.37799
1	1	0	0	0	0	0	6301	10	1.22086	10.003	63.0324	63.0324	0	17.509	11	-1.1543	0.0434352	0.000000000000000E+000	1.22321e+07	0.000000000000000E+000	0.000000000000000E+000	17.509	17.509	0.0000000E+000	0.000000000000000E+000	0.0122122	2.37516
1	1	0	0	0	0	0	6336	10	1.22359	10.0041	63.3825	63.3825	0	17.6063	11	-1.15446	0.0435541	0.000000000000000E+000	1.22935e+07	0.000000000000000E+000	0.000000000000000E+000	17.6063	17.6063	0.0000000E+000	0.000000000000000E+000	0.0122409	2.37805
1	1	0	0	0	0	0	6371	10	1.22667	10.0031	63.7327	63.7327	0	17.7035	11	-1.15522	0.0436732	0.000000000000000E+000	1.2354e+07	0.000000000000000E+000	0.000000000000000E+000	17.7035	17.7035	0.0000000E+000	0.000000000000000E+000	0.0122705	2.38189
1	1	0	0	0	0	0	6406	10	1.27925	10.0036	64.0828	64.0828	0	17.8008	11	-1.15342	0.0437925	0.000000000000000E+000	1.22966e+07	0.000000000000000E+000	0.000000000000000E+000	17.8008	17.8008	0.0000000E+000	0.000000000000000E+000	0.0127971	2.43267
1	1	0	0	0	0	0	6441	10	1.28835	10.0036	64.4329	64.4329	0	17.898	11	-1.15337	0.0439176	0.000000000000000E+000	1.23422e+07	0.000000000000000E+000	0.000000000000000E+000	17.898	17.898	0.0000000E+000	0.000000000000000E+000	0.0128881	2.44172
1	1	0	0	0	0	0	6476	10	1.2922	10.0035	64.783	64.783	0	17.9953	11	-1.15396	0.0440431	0.000000000000000E+000	1.24001e+07	0.000000000000000E+000	0.000000000000000E+000	17.9953	17.9953	0.0000000E+000	0.000000000000000E+000	0.0129266	2.44616
1	1	0	0	0	0	0	6511	10	1.29282	10.0032	65.1332	65.1332	0	18.0925	11	-1.15391	0.0441688	0.000000000000000E+000	1.24657e+07	0.000000000000000E+000	0.000000000000000E+000	18.0925	18.0925	0.0000000E+000	0.000000000000000E+000	0.0129323	2.44672
1	1	0	0	0	0	0	6546	10	1.29373	10.0035	65.4833	65.4833	0	18.1898	11	-1.15528	0.0442946	0.000000000000000E+000	1.25305e+07	0.000000000000000E+000	0.000000000000000E+000	18.1898	18.1898	0.0000000E+000	0.000000000000000E+000	0.0129418	2.44901
1	1	0	0	0	0	0	6581	10	1.29469	10.0033	65.8334	65.8334	0	18.2871	11	-1.15477	0.0444205	0.000000000000000E+000	1.25952e+07	0.000000000000000E+000	0.000000000000000E+000	18.2871	18.2871	0.0000000E+000	0.000000000000000E+000	0.0129512	2.44946
1	1	0	0	0	0	0	6616	10	1.29602	10.004	66.1835	66.1835	0	18.3843	11	-1.15544	0.0445464	0.000000000000000E+000	1.26589e+07	0.000000000000000E+000	0.000000000000000E+000	18.3843	18.3843	0.0000000E+000	0.000000000000000E+000	0.0129654	2.45146
1	1	0	0	0	0	0	6651	10	1.29626	10.0028	66.5337	66.5337	0	18.4816	11	-1.15645	0.0446724	0.000000000000000E+000	1.27253e+07	0.000000000000000E+000	0.000000000000000E+000	18.4816	18.4816	0.0000000E+000	0.000000000000000E+000	0.0129662	2.45271
1	1	0	0	0	0	0	6686	10	1.29679	10.0029	66.8838	66.8838	0	18.5788	11	-1.15369	0.0447986	0.000000000000000E+000	1.2791e+07	0.000000000000000E+000	0.000000000000000E+000	18.5788	18.5788	0.0000000E+000	0.000000000000000E+000	0.0129718	2.45049
1	1	0	0	0	0	0	6721	10	1.29708	10.0039	67.2339	67.2339	0	18.6761	11	-1.15379	0.0449247	0.000000000000000E+000	1.28572e+07	0.000000000000000E+000	0.000000000000000E+000	18.6761	18.6761	0.0000000E+000	0.000000000000000E+000	0.0129759	2.45087
1	1	0	0	0	0	0	6756	10	1.29755	10.0046	67.5841	67.5841	0	18.7734	11	-1.15335	0.0450508	0.000000000000000E+000	1.2923e+07	0.000000000000000E+000	0.000000000000000E+000	18.7734	18.7734	0.0000000E+000	0.000000000000000E+000	0.0129814	2.45089
1	1	0	0	0	0	0	6791	10	1.29697	10.0034	67.9342	67.9342	0	18.8706	11	-1.15439	0.045177	0.000000000000000E+000	1.29914e+07	0.000000000000000E+000	0.000000000000000E+000	18.8706	18.8706	0.0000000E+000	0.000000000000000E+000	0.0129742	2.45135
1	1	0	0	0	0	0	6826	10	1.29878	10.003	68.2843	68.2843	0	18.9679	11	-1.15499	0.0453032	0.000000000000000E+000	1.30539e+07	0.000000000000000E+000	0.000000000000000E+000	18.9679	18.9679	0.0000000E+000	0.000000000000000E+000	0.0129917	2.45378
1	1	0	0	0	0	0	6861	10	1.29968	10.0037	68.6344	68.6344	0	19.0651	11	-1.15486	0.0454296	0.000000000000000E+000	1.31185e+07	0.000000000000000E+000	0.000000000000000E+000	19.0651	19.0651	0.0000000E+000	0.000000000000000E+000	0.0130017	2.45455
1	1	0	0	0	0	0	6896	10	1.30037	10.0033	68.9846	68.9846	0	19.1624	11	-1.15551	0.045556	0.000000000000000E+000	1.31837e+07	0.000000000000000E+000	0.000000000000000E+000	19.1624	19.1624	0.0000000E+000	0.000000000000000E+000	0.013008	2.45588
1	1	0	0	0	0	0	6931	10	1.29963	10.004	69.3347	69.3347	0	19.2596	11	-1.15657	0.0456824	0.000000000000000E+000	1.32525e+07	0.000000000000000E+000	0.000000000000000E+000	19.2596	19.2596	0.0000000E+000	0.000000000000000E+000	0.0130015	2.45621
1	1	0	0	0	0	0	6966	10	1.30041	10.004	69.6848	69.6848	0	19.3569	11	-1.15385	0.0458089	0.000000000000000E+000	1.33174e+07	0.000000000000000E+000	0.000000000000000E+000	19.3569	19.3569	0.0000000E+000	0.000000000000000E+000	0.0130093	2.45426
1	1	0	0	0	0	0	7001	10	1.30073	10.0043	70.0349	70.0349	0	19.4542	11	-1.15486	0.0459354	0.000000000000000E+000	1.33835e+07	0.000000000000000E+000	0.000000000000000E+000	19.4542	19.4542	0.0000000E+000	0.000000000000000E+000	0.0130129	2.45559
1	1	0	0	0	0	0	7036	10	1.30084	10.0027	70.3851	70.3851	0	19.5514	11	-1.15564	0.0460619	0.000000000000000E+000	1.34502e+07	0.000000000000000E+000	0.000000000000000E+000	19.5514	19.5514	0.0000000E+000	0.000000000000000E+000	0.0130119	2.45648
1	1	0	0	0	0	0	7071	10	1.30178	10.0041	70.7352	70.7352	0	19.6487	11	-1.15574	0.0461885	0.000000000000000E+000	1.35146e+07	0.000000000000000E+000	0.000000000000000E+000	19.6487	19.6487	0.0000000E+000	0.000000000000000E+000	0.0130232	2.45752
1	1	0	0	0	0	0	7106	10	1.30187	10.005	71.0853	71.0853	0	19.7459	11	-1.1567	0.0463151	0.000000000000000E+000	1.35813e+07	0.000000000000000E+000	0.000000000000000E+000	19.7459	19.7459	0.0000000E+000	0.000000000000000E+000	0.0130252	2.45857
1	1	0	0	0	0	0	7141	10	1.30229	10.003	71.4354	71.4354	0	19.8432	11	-1.15563	0.0464417	0.000000000000000E+000	1.36471e+07	0.000000000000000E+000	0.000000000000000E+000	19.8432	19.8432	0.0000000E+000	0.000000000000000E+000	0.0130268	2.45792
1	1	0	0	0	0	0	7176	10	1.30209	10.0033	71.7856	71.7856	0	19.9404	11	-1.15635	0.0465683	0.000000000000000E+000	1.37145e+07	0.000000000000000E+000	0.000000000000000E+000	19.9404	19.9404	0.0000000E+000	0.000000000000000E+000	0.0130251	2.45844
1	1	0	0	0	0	0	7211	10	1.3019	10.0035	72.1357	72.1357	0	20.0377	11	-1.15669	0.046695	0.000000000000000E+000	1.37819e+07	0.000000000000000E+000	0.000000000000000E+000	20.0377	20.0377	0.0000000E+000	0.000000000000000E+000	0.0130235	2.45859
1	1	0	0	0	0	0	7246	10	1.30204	10.0033	72.4858	72.4858	0	20.135	11	-1.15389	0.0468216	0.000000000000000E+000	1.38484e+07	0.000000000000000E+000	0.000000000000000E+000	20.135	20.135	0.0000000E+000	0.000000000000000E+000	0.0130246	2.45593
1	1	0	0	0	0	0	7281	10	1.30133	10.0035	72.836	72.836	0	20.2322	11	-1.15511	0.0469482	0.000000000000000E+000	1.39172e+07	0.000000000000000E+000	0.000000000000000E+000	20.2322	20.2322	0.0000000E+000	0.000000000000000E+000	0.0130179	2.45643
1	1	0	0	0	0	0	7309.55	10	5.45782	10.0036	73.1215	73.1215	1	0.000000000000000E+000	11	2.50149	0.0470515	0.000000000000000E+000	1.39456e+07	0.000000000000000E+000	0.000000000000000E+000	0.000000000000000E+000	0.000000000000000E+000	0.0000000E+000	0.000000000000000E+000	0.0545981	2.95633