File: Lares Oxides/2024-6-18 Ni33Co33Fe33Ox on FTO_1_07mg_01_PEIS_C05.mpt
EC-Lab ASCII FILE
Nb header lines : 65

Potentio Electrochemical Impedance Spectroscopy

Run on channel : 5 (SN 39658)
User :
CE vs. WE compliance from -10 V to 10 V
Electrode connection : standard
Potential control : Ewe
Ewe ctrl range : min = -2.50 V, max = 2.50 V
Safety Limits :
	Do not start on E overload
Acquisition started on : 06/18/2024 16:38:11.272
Technique started on : 06/18/2024 16:38:12.810
Loaded Setting File :  NONE
Saved on :
	File : 2024-6-18 Ni33Co33Fe33Ox on FTO_1_07mg_01_PEIS_C05.mpr
	Directory : C:\Users\sfolkman\OneDrive - New Mexico State University\Folkman Group Folder\Scott\
	Host : 172.24.124.15
Device : VSP (SN 1910)
Address : USB
EC-Lab for windows v11.46 (software)
Internet server v11.40 (firmware)
Command interpretor v11.40 (firmware)
Electrode material :
Initial state :
Electrolyte :
Comments :
Current amplifier : VSPB-4A
Electrode surface area : 0.001 cm²
Characteristic mass : 0.001 g
Equivalent Weight : 0.000 g/eq.
Density : 0.000 g/cm3
Volume (V) : 0.001 cm³
Cycle Definition : Charge/Discharge alternance
Mode                Single sine
E (V)               0.0000
vs.                 Eoc
tE (h:m:s)          0:00:0.0000
record              0
dI                  0.000
unit dI             mA
dt (s)              0.000
fi                  200.000
unit fi             kHz
ff                  100.000
unit ff             mHz
Nd                  6
Points              per decade
spacing             Logarithmic
Va (mV)             10.0
pw                  0.10
Na                  2
corr                0
E range min (V)     -2.500
E range max (V)     2.500
I Range             Auto
Bandwidth           4
nc cycles           0
goto Ns'            0
nr cycles           0
inc. cycle          0

freq/Hz	Re(Z)/Ohm	-Im(Z)/Ohm	|Z|/Ohm	Phase(Z)/deg	time/s	<Ewe>/V	<I>/mA	Cs/µF	Cp/µF	cycle number	I Range	|Ewe|/V	|I|/A	Ns	(Q-Qo)/mA.h	Re(Y)/Ohm-1	Im(Y)/Ohm-1	|Y|/Ohm-1	Phase(Y)/deg	Re(C)/nF	Im(C)/nF	|C|/nF	Phase(C)/deg	Re(M)	Im(M)	|M|	Phase(M)/deg	Re(Permittivity)	Im(Permittivity)	|Permittivity|	Phase(Permittivity)/deg	Re(Resistivity)/Ohm.cm	Im(Resistivity)/Ohm.cm	|Resistivity|/Ohm.cm	Phase(Resistivity)/deg	Re(Conductivity)/mS/cm	Im(Conductivity)/mS/cm	|Conductivity|/mS/cm	Phase(Conductivity)/deg	Tan(Delta)	Loss Angle(Delta)/deg	dq/mA.h
199998	9.48079	15.4532	18.1298	-58.4703	1.53848	-0.0593509	-0.0126542	0.0514961	0.0374136	1	10	0.00907579	0.000500602	0	-3.87779e-06	0.0288444	0.0470149	0.0551579	58.4703	37.4136	22.9538	43.8937	-31.5297	0.0000000E+000	0.0000000E+000	0.0000000E+000	31.5297	0.0000000E+000	0.0000000E+000	0.0000000E+000	-31.5297	0.0000000E+000	0.0000000E+000	0.0000000E+000	-58.4703	0.0000000E+000	0.0000000E+000	0.0000000E+000	58.4703	0.613515	58.4703	-3.87779e-06
135123	13.7155	12.953	18.8651	-43.3623	2.13348	-0.0592924	-0.0122001	0.0909332	0.0428688	1	10	0.0101107	0.000535946	0	1.49361e-06	0.0385382	0.0363957	0.0530079	43.3623	42.8688	45.3923	62.4355	-46.6377	0.0000000E+000	0.0000000E+000	0.0000000E+000	46.6377	0.0000000E+000	0.0000000E+000	0.0000000E+000	-46.6377	0.0000000E+000	0.0000000E+000	0.0000000E+000	-43.3623	0.0000000E+000	0.0000000E+000	0.0000000E+000	43.3623	1.05887	43.3623	5.3714e-06
91291.2	17.1396	8.85573	19.2922	-27.3246	2.7285	-0.0592636	-0.012483	0.196864	0.0414813	1	10	0.0101254	0.000524846	0	-1.12147e-07	0.0460507	0.0237936	0.0518344	27.3246	41.4813	80.2838	90.3669	-62.6754	0.0000000E+000	0.0000000E+000	0.0000000E+000	62.6754	0.0000000E+000	0.0000000E+000	0.0000000E+000	-62.6754	0.0000000E+000	0.0000000E+000	0.0000000E+000	-27.3246	0.0000000E+000	0.0000000E+000	0.0000000E+000	27.3246	1.93542	27.3246	-1.60576e-06
61674.2	17.5748	4.86642	18.2361	-15.4773	3.17449	-0.0592511	-0.0126114	0.530282	0.0377627	1	10	0.010645	0.000583733	0	-6.32541e-06	0.0528478	0.0146334	0.0548364	15.4773	37.7627	136.378	141.509	-74.5227	0.0000000E+000	0.0000000E+000	0.0000000E+000	74.5227	0.0000000E+000	0.0000000E+000	0.0000000E+000	-74.5227	0.0000000E+000	0.0000000E+000	0.0000000E+000	-15.4773	0.0000000E+000	0.0000000E+000	0.0000000E+000	15.4773	3.61144	15.4773	-6.21327e-06
41669.8	16.8093	2.92122	17.0612	-9.85873	3.62049	-0.0592607	-0.0126449	1.30748	0.0383303	1	10	0.0104998	0.000615419	0	-1.05398e-05	0.0577469	0.0100356	0.0586124	9.85873	38.3303	220.56	223.866	-80.1413	0.0000000E+000	0.0000000E+000	0.0000000E+000	80.1413	0.0000000E+000	0.0000000E+000	0.0000000E+000	-80.1413	0.0000000E+000	0.0000000E+000	0.0000000E+000	-9.85873	0.0000000E+000	0.0000000E+000	0.0000000E+000	9.85873	5.75421	9.85873	-4.21435e-06
28151	16.3378	2.27455	16.4954	-7.92577	4.06648	-0.059219	-0.012725	2.4856	0.0472604	1	10	0.0103589	0.000627988	0	-1.15472e-05	0.060044	0.00835932	0.0606231	7.92577	47.2604	339.466	342.74	-82.0742	0.0000000E+000	0.0000000E+000	0.0000000E+000	82.0742	0.0000000E+000	0.0000000E+000	0.0000000E+000	-82.0742	0.0000000E+000	0.0000000E+000	0.0000000E+000	-7.92577	0.0000000E+000	0.0000000E+000	0.0000000E+000	7.92577	7.18288	7.92577	-1.00748e-06
19020.9	16.0901	2.19012	16.2385	-7.75123	4.5125	-0.0592518	-0.0126561	3.8205	0.0694969	1	10	0.0103234	0.000635737	0	-8.12713e-06	0.0610194	0.00830572	0.0615821	7.75123	69.4969	510.571	515.279	-82.2488	0.0000000E+000	0.0000000E+000	0.0000000E+000	82.2488	0.0000000E+000	0.0000000E+000	0.0000000E+000	-82.2488	0.0000000E+000	0.0000000E+000	0.0000000E+000	-7.75123	0.0000000E+000	0.0000000E+000	0.0000000E+000	7.75123	7.34668	7.75123	3.42011e-06
12850.7	16.1005	2.48921	16.2918	-8.78863	4.95849	-0.059246	-0.0131847	4.97543	0.11615	1	10	0.010235	0.000628234	0	-1.04353e-05	0.0606601	0.00937835	0.0613808	8.78863	116.15	751.269	760.194	-81.2114	0.0000000E+000	0.0000000E+000	0.0000000E+000	81.2114	0.0000000E+000	0.0000000E+000	0.0000000E+000	-81.2114	0.0000000E+000	0.0000000E+000	0.0000000E+000	-8.78863	0.0000000E+000	0.0000000E+000	0.0000000E+000	8.78863	6.4681	8.78863	-2.30821e-06
8683.37	16.0844	2.99466	16.3608	-10.5468	5.43199	-0.05928	-0.0122578	6.12047	0.205054	1	10	0.0102356	0.000625615	0	-1.23572e-05	0.060089	0.0111876	0.0611216	10.5468	205.054	1101.35	1120.28	-79.4532	0.0000000E+000	0.0000000E+000	0.0000000E+000	79.4532	0.0000000E+000	0.0000000E+000	0.0000000E+000	-79.4532	0.0000000E+000	0.0000000E+000	0.0000000E+000	-10.5468	0.0000000E+000	0.0000000E+000	0.0000000E+000	10.5468	5.37104	10.5468	-1.92188e-06
5865.09	16.1298	4.08202	16.6383	-14.2019	6.06985	-0.059273	-0.0159746	6.64769	0.400132	1	10	0.0101345	0.000609107	0	-1.14451e-05	0.0582654	0.0147454	0.0601023	14.2019	400.132	1581.09	1630.94	-75.7981	0.0000000E+000	0.0000000E+000	0.0000000E+000	75.7981	0.0000000E+000	0.0000000E+000	0.0000000E+000	-75.7981	0.0000000E+000	0.0000000E+000	0.0000000E+000	-14.2019	0.0000000E+000	0.0000000E+000	0.0000000E+000	14.2019	3.95142	14.2019	9.12111e-07
3961.2	16.1862	5.7826	17.1881	-19.6595	6.54495	-0.0592232	-0.0147481	6.94817	0.786428	1	10	0.0106508	0.000619657	0	-1.61588e-05	0.0547883	0.0195734	0.0581796	19.6595	786.428	2201.31	2337.57	-70.3405	0.0000000E+000	0.0000000E+000	0.0000000E+000	70.3405	0.0000000E+000	0.0000000E+000	0.0000000E+000	-70.3405	0.0000000E+000	0.0000000E+000	0.0000000E+000	-19.6595	0.0000000E+000	0.0000000E+000	0.0000000E+000	19.6595	2.79912	19.6595	-4.71366e-06
2677.43	16.2512	8.27481	18.2366	-26.9844	7.01893	-0.0592641	-0.0147425	7.18363	1.47901	1	10	0.0108749	0.000596321	0	-2.03362e-05	0.0488649	0.0248812	0.0548348	26.9844	1479.01	2904.69	3259.55	-63.0156	0.0000000E+000	0.0000000E+000	0.0000000E+000	63.0156	0.0000000E+000	0.0000000E+000	0.0000000E+000	-63.0156	0.0000000E+000	0.0000000E+000	0.0000000E+000	-26.9844	0.0000000E+000	0.0000000E+000	0.0000000E+000	26.9844	1.96393	26.9844	-4.1774e-06
1808.26	16.3	12.0416	20.2655	-36.4551	7.49296	-0.0592203	-0.0146085	7.30928	2.58065	1	10	0.010906	0.000538155	0	-2.2398e-05	0.0396894	0.0293205	0.0493451	36.4551	2580.65	3493.27	4343.12	-53.5449	0.0000000E+000	0.0000000E+000	0.0000000E+000	53.5449	0.0000000E+000	0.0000000E+000	0.0000000E+000	-53.5449	0.0000000E+000	0.0000000E+000	0.0000000E+000	-36.4551	0.0000000E+000	0.0000000E+000	0.0000000E+000	36.4551	1.35364	36.4551	-2.06183e-06
1221.96	16.4386	17.6793	24.141	-47.0826	7.96644	-0.0592069	-0.0145899	7.36716	3.95113	1	10	0.0108767	0.00045055	0	-2.49111e-05	0.028207	0.0303358	0.0414234	47.0826	3951.13	3673.85	5395.24	-42.9174	0.0000000E+000	0.0000000E+000	0.0000000E+000	42.9174	0.0000000E+000	0.0000000E+000	0.0000000E+000	-42.9174	0.0000000E+000	0.0000000E+000	0.0000000E+000	-47.0826	0.0000000E+000	0.0000000E+000	0.0000000E+000	47.0826	0.929823	47.0826	-2.51308e-06
825.264	16.5726	25.974	30.8108	-57.4603	8.43967	-0.0592317	-0.0148467	7.42485	5.2767	1	10	0.0107843	0.000350016	0	-2.68795e-05	0.0174577	0.0273612	0.0324562	57.4603	5276.7	3366.77	6259.29	-32.5397	0.0000000E+000	0.0000000E+000	0.0000000E+000	32.5397	0.0000000E+000	0.0000000E+000	0.0000000E+000	-32.5397	0.0000000E+000	0.0000000E+000	0.0000000E+000	-57.4603	0.0000000E+000	0.0000000E+000	0.0000000E+000	57.4603	0.638045	57.4603	-1.96839e-06
558.036	16.8012	38.4361	41.9477	-66.3889	9.41345	-0.0592459	-0.0017478	7.42026	6.22989	1	11	0.0101128	0.000241081	0	-2.68097e-05	0.00954823	0.0218435	0.0238392	66.3889	6229.89	2723.21	6799.08	-23.6111	0.0000000E+000	0.0000000E+000	0.0000000E+000	23.6111	0.0000000E+000	0.0000000E+000	0.0000000E+000	-23.6111	0.0000000E+000	0.0000000E+000	0.0000000E+000	-66.3889	0.0000000E+000	0.0000000E+000	0.0000000E+000	66.3889	0.43712	66.3889	6.97906e-08
377.051	17.2113	56.6259	59.1838	-73.0935	9.88469	-0.0592568	-0.00180346	7.45426	6.82385	1	11	0.00981725	0.000165877	0	-2.7068e-05	0.00491369	0.0161663	0.0168965	73.0935	6823.85	2074.09	7132.09	-16.9065	0.0000000E+000	0.0000000E+000	0.0000000E+000	16.9065	0.0000000E+000	0.0000000E+000	0.0000000E+000	-16.9065	0.0000000E+000	0.0000000E+000	0.0000000E+000	-73.0935	0.0000000E+000	0.0000000E+000	0.0000000E+000	73.0935	0.303947	73.0935	-2.58298e-07
254.755	17.8506	83.3339	85.2243	-77.9096	10.359	-0.0592283	-0.00185392	7.49678	7.16789	1	11	0.00966557	0.000113413	0	-2.79622e-05	0.00245768	0.0114735	0.0117337	77.9096	7167.89	1535.4	7330.49	-12.0904	0.0000000E+000	0.0000000E+000	0.0000000E+000	12.0904	0.0000000E+000	0.0000000E+000	0.0000000E+000	-12.0904	0.0000000E+000	0.0000000E+000	0.0000000E+000	-77.9096	0.0000000E+000	0.0000000E+000	0.0000000E+000	77.9096	0.214205	77.9096	-8.9419e-07
172.037	18.5182	122.726	124.115	-81.4193	10.8274	-0.0592424	-0.00179527	7.53813	7.37032	1	11	0.00959073	7.7273e-05	0	-2.82485e-05	0.00120213	0.00796687	0.00805706	81.4193	7370.32	1112.12	7453.75	-8.58069	0.0000000E+000	0.0000000E+000	0.0000000E+000	8.58069	0.0000000E+000	0.0000000E+000	0.0000000E+000	-8.58069	0.0000000E+000	0.0000000E+000	0.0000000E+000	-81.4193	0.0000000E+000	0.0000000E+000	0.0000000E+000	81.4193	0.150891	81.4193	-2.86336e-07
116.227	21.5831	180.943	182.226	-83.1978	11.2976	-0.0592513	-0.00184349	7.5678	7.46164	1	11	0.0095776	5.2559e-05	0	-2.85183e-05	0.000649972	0.00544907	0.0054877	83.1978	7461.64	890.034	7514.53	-6.80218	0.0000000E+000	0.0000000E+000	0.0000000E+000	6.80218	0.0000000E+000	0.0000000E+000	0.0000000E+000	-6.80218	0.0000000E+000	0.0000000E+000	0.0000000E+000	-83.1978	0.0000000E+000	0.0000000E+000	0.0000000E+000	83.1978	0.119281	83.1978	-2.69785e-07
78.5176	22.6928	265.188	266.157	-85.109	12.0465	-0.0592284	-0.000154428	7.64363	7.58807	1	12	0.00964285	3.623e-05	0	-2.90356e-05	0.000320342	0.0037435	0.00375718	85.109	7588.07	649.332	7615.8	-4.89104	0.0000000E+000	0.0000000E+000	0.0000000E+000	4.89104	0.0000000E+000	0.0000000E+000	0.0000000E+000	-4.89104	0.0000000E+000	0.0000000E+000	0.0000000E+000	-85.109	0.0000000E+000	0.0000000E+000	0.0000000E+000	85.109	0.0855727	85.109	-5.17359e-07
53.0478	32.7075	390.255	391.623	-85.2092	12.5351	-0.0592367	-8.90172e-05	7.68784	7.63422	1	12	0.00959826	2.45089e-05	0	-2.91203e-05	0.000213261	0.00254456	0.00255348	85.2092	7634.22	639.828	7660.98	-4.79079	0.0000000E+000	0.0000000E+000	0.0000000E+000	4.79079	0.0000000E+000	0.0000000E+000	0.0000000E+000	-4.79079	0.0000000E+000	0.0000000E+000	0.0000000E+000	-85.2092	0.0000000E+000	0.0000000E+000	0.0000000E+000	85.2092	0.0838106	85.2092	-8.46911e-08
35.8372	34.0302	568.03	569.049	-86.5716	12.9991	-0.0592071	-0.000230375	7.81835	7.79039	1	12	0.00954644	1.67761e-05	0	-2.92402e-05	0.000105091	0.00175417	0.00175732	86.5716	7790.39	466.715	7804.36	-3.42844	0.0000000E+000	0.0000000E+000	0.0000000E+000	3.42844	0.0000000E+000	0.0000000E+000	0.0000000E+000	-3.42844	0.0000000E+000	0.0000000E+000	0.0000000E+000	-86.5716	0.0000000E+000	0.0000000E+000	0.0000000E+000	86.5716	0.0599091	86.5716	-1.19827e-07
24.2323	60.3223	844.929	847.08	-85.9164	13.4861	-0.0592435	-0.000131254	7.77329	7.73387	1	12	0.00951432	1.12319e-05	0	-2.92171e-05	8.40676e-05	0.00117753	0.00118053	85.9164	7733.87	552.146	7753.55	-4.0836	0.0000000E+000	0.0000000E+000	0.0000000E+000	4.0836	0.0000000E+000	0.0000000E+000	0.0000000E+000	-4.0836	0.0000000E+000	0.0000000E+000	0.0000000E+000	-85.9164	0.0000000E+000	0.0000000E+000	0.0000000E+000	85.9164	0.0713933	85.9164	2.30468e-08
16.367	84.0055	1226.49	1229.37	-86.0818	13.9251	-0.0592045	-0.000190839	7.92843	7.89141	1	12	0.00952783	7.7502e-06	0	-2.91466e-05	5.55835e-05	0.000811526	0.000813428	86.0818	7891.41	540.502	7909.89	-3.91821	0.0000000E+000	0.0000000E+000	0.0000000E+000	3.91821	0.0000000E+000	0.0000000E+000	0.0000000E+000	-3.91821	0.0000000E+000	0.0000000E+000	0.0000000E+000	-86.0818	0.0000000E+000	0.0000000E+000	0.0000000E+000	86.0818	0.0684925	86.0818	7.0512e-08
11.0502	149.333	1804.38	1810.55	-85.2689	14.6057	-0.059255	1.45475e-05	7.98218	7.92788	1	13	0.0095685	5.28486e-06	0	-2.91056e-05	4.55549e-05	0.000550437	0.000552319	85.2689	7927.88	656.122	7954.98	-4.73109	0.0000000E+000	0.0000000E+000	0.0000000E+000	4.73109	0.0000000E+000	0.0000000E+000	0.0000000E+000	-4.73109	0.0000000E+000	0.0000000E+000	0.0000000E+000	-85.2689	0.0000000E+000	0.0000000E+000	0.0000000E+000	85.2689	0.0827613	85.2689	4.09943e-08
7.46893	198.244	2621.41	2628.89	-85.6752	14.9446	-0.0592203	-6.59607e-06	8.12882	8.08259	1	13	0.00955898	3.63613e-06	0	-2.90924e-05	2.8685e-05	0.000379305	0.000380388	85.6752	8082.59	611.246	8105.67	-4.32476	0.0000000E+000	0.0000000E+000	0.0000000E+000	4.32476	0.0000000E+000	0.0000000E+000	0.0000000E+000	-4.32476	0.0000000E+000	0.0000000E+000	0.0000000E+000	-85.6752	0.0000000E+000	0.0000000E+000	0.0000000E+000	85.6752	0.0756249	85.6752	1.32001e-08
5.04683	324.256	3859.82	3873.42	-85.198	15.4189	-0.0592276	2.15097e-05	8.17023	8.11297	1	13	0.00949822	2.45216e-06	0	-2.91113e-05	2.16123e-05	0.000257264	0.00025817	85.198	8112.97	681.556	8141.55	-4.80204	0.0000000E+000	0.0000000E+000	0.0000000E+000	4.80204	0.0000000E+000	0.0000000E+000	0.0000000E+000	-4.80204	0.0000000E+000	0.0000000E+000	0.0000000E+000	-85.198	0.0000000E+000	0.0000000E+000	0.0000000E+000	85.198	0.0840082	85.198	-1.89387e-08
3.4086	492.716	5424.88	5447.21	-84.8103	16.0872	-0.0592233	4.88019e-05	8.60706	8.53664	1	13	0.00952486	1.74858e-06	0	-2.9107e-05	1.66054e-05	0.000182828	0.00018358	84.8103	8536.64	775.342	8571.77	-5.18967	0.0000000E+000	0.0000000E+000	0.0000000E+000	5.18967	0.0000000E+000	0.0000000E+000	0.0000000E+000	-5.18967	0.0000000E+000	0.0000000E+000	0.0000000E+000	-84.8103	0.0000000E+000	0.0000000E+000	0.0000000E+000	84.8103	0.0908252	84.8103	4.33678e-09
2.30321	743.104	7974.41	8008.96	-84.6762	22.8911	-0.0592138	-1.15632e-05	8.66537	8.59077	1	13	0.0104034	1.29897e-06	0	-2.90294e-05	1.1585e-05	0.000124322	0.00012486	84.6762	8590.77	800.54	8627.99	-5.32379	0.0000000E+000	0.0000000E+000	0.0000000E+000	5.32379	0.0000000E+000	0.0000000E+000	0.0000000E+000	-5.32379	0.0000000E+000	0.0000000E+000	0.0000000E+000	-84.6762	0.0000000E+000	0.0000000E+000	0.0000000E+000	84.6762	0.0931861	84.6762	7.75566e-08