File: Lares Oxides/2024-6-26 CoOx on FTO_1_03mg_01_PEIS_C05.mpt
EC-Lab ASCII FILE
Nb header lines : 66

Potentio Electrochemical Impedance Spectroscopy

Run on channel : 5 (SN 39658)
User :
CE vs. WE compliance from -10 V to 10 V
Electrode connection : standard
Potential control : Ewe
Ewe ctrl range : min = -2.50 V, max = 2.50 V
Safety Limits :
	Do not start on E overload
Acquisition started on : 06/26/2024 14:29:21.159
Technique started on : 06/26/2024 14:29:22.953
Loaded Setting File :  C:\Users\sfolkman\OneDrive - New Mexico State University\Folkman Group Folder\Scott\2024-6-19 FeOx on FTO_1_03mg.mps
Saved on :
	File : 2024-6-26 CoOx on FTO_1_03mg_01_PEIS_C05.mpr
	Directory : C:\Users\sfolkman\OneDrive - New Mexico State University\Folkman Group Folder\Scott\
	Host : 172.24.124.15
Device : VSP (SN 1910)
Address : USB
EC-Lab for windows v11.46 (software)
Internet server v11.40 (firmware)
Command interpretor v11.40 (firmware)
Electrode material :
Initial state :
Electrolyte :
Comments :
Current amplifier : VSPB-4A
Electrode surface area : 0.001 cm²
Characteristic mass : 0.001 g
Equivalent Weight : 0.000 g/eq.
Density : 0.000 g/cm3
Volume (V) : 0.001 cm³
Record Ece
Cycle Definition : Charge/Discharge alternance
Mode                Single sine
E (V)               0.0000
vs.                 Eoc
tE (h:m:s)          0:00:0.0000
record              0
dI                  0.000
unit dI             mA
dt (s)              0.000
fi                  200.000
unit fi             kHz
ff                  100.000
unit ff             mHz
Nd                  6
Points              per decade
spacing             Logarithmic
Va (mV)             10.0
pw                  0.10
Na                  2
corr                0
E range min (V)     -2.500
E range max (V)     2.500
I Range             Auto
Bandwidth           4
nc cycles           0
goto Ns'            0
nr cycles           0
inc. cycle          0

freq/Hz	Re(Z)/Ohm	-Im(Z)/Ohm	|Z|/Ohm	Phase(Z)/deg	time/s	<Ewe>/V	<I>/mA	Cs/µF	Cp/µF	cycle number	I Range	|Ewe|/V	|I|/A	Ns	(Q-Qo)/mA.h	<Ece>/V	|Ece|/V	Phase(Zce)/deg	|Zce|/Ohm	Re(Zce)/Ohm	-Im(Zce)/Ohm	Phase(Zwe-ce)/deg	|Zwe-ce|/Ohm	Re(Zwe-ce)/Ohm	-Im(Zwe-ce)/Ohm	Re(Y)/Ohm-1	Im(Y)/Ohm-1	|Y|/Ohm-1	Phase(Y)/deg	dq/mA.h
199998	7.5177	14.1358	16.0105	-61.995	1.79353	0.183916	-0.0145769	0.0562956	0.0438838	1	10	0.0100247	0.000626135	0	-8.33091e-07	0.0914792	0.00919703	68.3528	14.6886	5.41848	-13.6526	-2.13895	12.9452	12.9362	0.483155	0.0293275	0.0551455	0.062459	61.995	-8.33091e-07
135123	10.6426	11.5207	15.6841	-47.2688	2.32855	0.183944	-0.0143051	0.102238	0.0551635	1	10	0.0101341	0.000646139	0	4.49553e-06	0.0824283	0.00696689	75.5679	10.7823	2.6873	-10.4421	-4.62592	13.3734	13.3299	1.07856	0.0432643	0.0468339	0.063759	47.2688	5.32862e-06
91291.2	12.8161	9.09914	15.7177	-35.3739	2.86353	0.183926	-0.0136314	0.191598	0.0642115	1	10	0.0100521	0.000639541	0	7.90545e-06	0.0822374	0.00459549	82.7849	7.18562	0.902469	-7.12872	-8.1736	13.8593	13.7186	1.97042	0.0518772	0.0368317	0.0636225	35.3739	3.40992e-06
61674.2	14.0427	7.01796	15.6987	-26.554	3.26455	0.183946	-0.0135681	0.36771	0.0734853	1	10	0.0107723	0.000686193	0	8.64188e-06	0.0864191	0.00292746	86.6125	4.26624	0.252085	-4.25878	-10.9249	14.5586	14.2948	2.75918	0.0569801	0.0284763	0.0636996	26.554	7.36428e-07
41669.8	14.5951	6.03446	15.7934	-22.463	3.66555	0.184012	-0.013207	0.632938	0.0924025	1	10	0.0105542	0.000668262	0	1.21484e-05	0.0834785	0.00173379	79.155	2.59448	0.488158	-2.54814	-13.0146	15.481	15.0833	3.48631	0.0585133	0.0241927	0.0633174	22.463	3.50656e-06
28151	15.4423	5.74835	16.4775	-20.4176	4.06656	0.183963	-0.0134899	0.98352	0.119698	1	10	0.0104936	0.000636844	0	7.88022e-06	0.0835358	0.00100175	63.8873	1.57299	0.692331	-1.41243	-15.0419	16.7071	16.1347	4.33592	0.0568759	0.0211719	0.0606887	20.4176	-4.26821e-06
19020.9	16.409	5.92411	17.4456	-19.851	4.46753	0.183852	-0.0239052	1.41242	0.162869	1	10	0.0104836	0.000600927	0	1.20356e-06	0.084796	0.000821314	41.8003	1.36675	1.01887	-0.910985	-16.0479	18.1346	17.4279	5.01313	0.0539148	0.0194648	0.0573209	19.851	-6.67666e-06
12850.7	17.5226	6.02254	18.5287	-18.9679	4.86856	0.183979	-0.0146513	2.05642	0.217261	1	10	0.0102571	0.00055358	0	8.41719e-07	0.0844905	0.000606916	27.173	1.09635	0.975344	-0.500679	-16.621	19.3045	18.498	5.52186	0.0510398	0.0175424	0.0539703	18.9679	-3.61841e-07
8684.68	18.8021	6.56535	19.9154	-19.2482	5.26953	0.184033	-0.0142642	2.79131	0.303351	1	10	0.0102427	0.000514308	0	-3.58657e-06	0.0852543	0.000505542	12.3721	0.982956	0.960128	-0.210608	-17.8257	20.7588	19.7623	6.35474	0.0474054	0.0165531	0.0502124	19.2482	-4.42829e-06
5864.01	19.8606	7.05448	21.0763	-19.555	5.53653	0.183923	-0.0178898	3.84734	0.431025	1	10	0.0108486	0.000514732	0	-2.57614e-06	0.0836313	0.000617879	2.50782	1.20039	1.19924	-0.052524	-18.3909	22.1933	21.0598	7.00195	0.04471	0.015881	0.0474467	19.555	1.01043e-06
3960.08	20.8604	8.32852	22.4615	-21.7644	6.00482	0.183972	-0.0155596	4.82557	0.663446	1	10	0.0101432	0.000451581	0	-2.44384e-06	0.0856935	0.00050806	-5.16273	1.12507	1.1205	0.101239	-20.982	23.5419	21.9809	8.42976	0.041347	0.0165078	0.0445206	21.7644	1.32297e-07
2678.72	22.0127	10.1775	24.2516	-24.8132	6.44609	0.18396	-0.0152357	5.83786	1.02814	1	10	0.0102548	0.000422849	0	-2.81121e-06	0.0861327	0.00048555	-15.1468	1.14828	1.10839	0.300038	-24.378	25.3843	23.1211	10.4775	0.0374276	0.0173044	0.0412343	24.8132	-3.67369e-07
1808.26	23.1436	13.0023	26.5459	-29.3277	6.90405	0.184027	-0.0147407	6.76921	1.62399	1	10	0.0102265	0.000385239	0	-6.60554e-06	0.0856553	0.000518785	-27.939	1.34666	1.1897	0.630952	-29.2606	27.8922	24.3333	13.6332	0.0328424	0.0184512	0.0376706	29.3277	-3.79433e-06
1221.96	24.9427	17.2035	30.3001	-34.5948	7.36058	0.184006	-0.0146662	7.57093	2.44058	1	10	0.0102462	0.000338156	0	-7.10554e-06	0.0878321	0.00056641	-37.3644	1.675	1.33127	1.01653	-34.7399	31.9732	26.2739	18.22	0.0271678	0.0187382	0.0330032	34.5948	-4.99993e-07
825.264	27.5051	23.0564	35.8905	-39.9717	8.0728	0.183996	-0.00218307	8.36443	3.45191	1	11	0.0108128	0.000301271	0	-8.6997e-06	0.086801	0.000554938	-51.7779	1.84199	1.13966	1.4471	-40.5445	37.6954	28.6448	24.5035	0.0213528	0.0178991	0.0278625	39.9717	-1.59416e-06
558.036	31.0959	30.8141	43.7774	-44.7392	8.53156	0.183979	-0.00228584	9.2557	4.58571	1	11	0.0105302	0.000240539	0	-7.96118e-06	0.0875266	0.000579286	-54.4073	2.40828	1.40167	1.95836	-45.2413	46.1533	32.4976	32.7724	0.0162257	0.0160786	0.0228428	44.7392	7.38521e-07
377.051	36.8645	40.8653	55.0361	-47.9464	8.98683	0.184036	-0.00230483	10.3292	5.69482	1	11	0.010376	0.000188531	0	-8.063e-06	0.0864573	0.000616375	-62.3911	3.26936	1.51513	2.89708	-48.7492	58.2078	38.3797	43.7624	0.0121706	0.0134915	0.0181699	47.9464	-1.01826e-07
254.755	44.4888	54.0073	69.9717	-50.5198	9.44506	0.183968	-0.00221137	11.5676	6.89135	1	11	0.010278	0.000146888	0	-7.44874e-06	0.0878321	0.000627324	-65.6196	4.27077	1.76294	3.88992	-51.3801	74.1034	46.2517	57.8972	0.00908668	0.0110308	0.0142915	50.5198	6.14262e-07
172.037	55.2267	69.6933	88.9221	-51.6058	9.8975	0.184019	-0.00219201	13.2742	8.15399	1	11	0.0101929	0.000114627	0	-7.3055e-06	0.0885386	0.000686691	-75.1733	5.99067	1.53299	5.79121	-53.0591	94.4435	56.7597	75.4845	0.0069844	0.00881397	0.0112458	51.6058	1.43245e-07
116.227	69.1817	90.0996	113.596	-52.4817	10.3498	0.184004	-0.00221584	15.1981	9.56112	1	11	0.0102015	8.9805e-05	0	-7.57134e-06	0.0893597	0.000818548	-76.5181	9.11473	2.125	8.86356	-54.2258	121.977	71.3067	98.9632	0.00536124	0.00698228	0.00880313	52.4817	-2.65839e-07
78.5176	87.787	113.859	143.772	-52.3672	10.8157	0.184018	-0.00210153	17.8027	11.1653	1	11	0.0101743	7.07671e-05	0	-7.53284e-06	0.0916319	0.000896187	-79.4456	12.6639	2.31964	12.4496	-54.4965	155.155	90.1067	126.309	0.00424699	0.0055083	0.00695545	52.3672	3.8498e-08
53.0478	110.603	141.532	179.623	-51.9935	11.2882	0.184017	-0.00219239	21.1981	13.1609	1	11	0.0101509	5.65125e-05	0	-8.00951e-06	0.090238	0.00102524	-81.2636	18.1418	2.75552	17.9313	-54.592	195.649	113.358	159.463	0.00342803	0.00438665	0.00556723	51.9935	-4.76676e-07
35.8372	139.335	180.606	228.107	-52.3504	11.9862	0.184016	-0.000554917	24.5897	15.4149	1	12	0.0102701	4.50232e-05	0	-8.18086e-06	0.0905435	0.00116826	-78.8329	25.9479	5.02535	25.4566	-54.9863	251.598	144.36	206.063	0.00267783	0.003471	0.00438391	52.3504	-1.71345e-07
24.2323	171.443	226.656	284.193	-52.8961	12.4572	0.183984	-0.000699366	28.9773	18.4317	1	12	0.0101803	3.58216e-05	0	-8.05398e-06	0.0895124	0.00133624	-81.5605	37.3026	5.47473	36.8986	-56.1275	317.429	176.918	263.555	0.00212272	0.00280634	0.00351874	52.8961	1.26882e-07
16.367	214.197	283.262	355.131	-52.9042	12.8792	0.184009	-0.00063053	34.3291	21.8406	1	12	0.0101337	2.85351e-05	0	-8.09898e-06	0.0902762	0.00160092	-83.4051	56.1036	6.4434	55.7323	-56.9412	404.475	220.641	338.995	0.00169839	0.00224601	0.00281586	52.9042	-4.50068e-08
11.0502	263.868	365.359	450.681	-54.1626	13.2968	0.184029	-0.000679374	39.4212	25.9078	1	12	0.0101621	2.25483e-05	0	-8.2259e-06	0.0923575	0.00174267	-82.3799	77.2861	10.2485	76.6035	-58.1917	520.068	274.117	441.963	0.00129912	0.00179879	0.00221886	54.1626	-1.26919e-07
7.46893	336.23	465.534	574.259	-54.1615	13.6167	0.183988	-0.000561843	45.773	30.0814	1	12	0.0101869	1.77391e-05	0	-8.19535e-06	0.0913646	0.00197812	-84.4314	111.511	10.8208	110.985	-58.9531	672.918	347.051	576.519	0.00101958	0.00141168	0.00174138	54.1615	3.05504e-08
5.04683	424.505	600.986	735.791	-54.7646	14.071	0.184022	-0.000535038	52.4731	35.0071	1	12	0.0102707	1.39587e-05	0	-8.4351e-06	0.0947825	0.00229959	-79.5157	164.743	29.9778	161.993	-59.2191	888.083	454.483	762.979	0.000784103	0.00111008	0.00135908	54.7646	-2.39751e-07
3.4086	523.633	751.115	915.623	-55.1181	15.0724	0.183986	-0.000413724	62.1639	41.8329	1	13	0.0100931	1.10232e-05	0	-8.46637e-06	0.0913455	0.00253623	-82.4623	230.08	30.1815	228.092	-60.5086	1124.97	553.815	979.207	0.000624588	0.000895927	0.00109215	55.1181	-3.12652e-08
2.30321	687.633	977.332	1195	-54.8705	16.0213	0.184001	-0.000424217	70.704	47.2928	1	13	0.010163	8.50463e-06	0	-8.46546e-06	0.0903908	0.00277501	-83.4982	326.295	36.9479	324.196	-60.8946	1489.63	724.58	1301.53	0.00048153	0.000684398	0.000836823	54.8705	9.15012e-10
1.55627	892.683	1255.29	1540.34	-54.5821	17.4071	0.183996	-0.000477635	81.4682	54.1061	1	13	0.0101678	6.60098e-06	0	-8.72728e-06	0.0927585	0.00303279	-82.5318	459.446	59.7165	455.548	-60.896	1958.07	952.399	1710.84	0.000376239	0.000529069	0.000649207	54.5821	-2.61823e-07
1.05233	1145.67	1567.09	1941.22	-53.8301	19.4391	0.184005	-0.00052172	96.5104	62.8944	1	13	0.0101531	5.23024e-06	0	-9.17999e-06	0.0975895	0.00332573	-79.8485	635.864	112.072	625.91	-60.1645	2528.08	1257.75	2193	0.000304026	0.000415857	0.00051514	53.8301	-4.52714e-07
0.710357	1490.42	1967.02	2467.9	-52.8487	23.8965	0.184011	-0.00054897	113.903	72.3599	1	14	0.0101643	4.11858e-06	0	-9.99895e-06	0.101771	0.00392134	-77.2275	952.109	210.493	928.55	-59.5692	3358.19	1700.91	2895.57	0.000244711	0.000322964	0.000405203	52.8487	-8.18962e-07
0.480355	1960.4	2432.29	3123.97	-51.1316	28.3057	0.184003	-0.000580305	136.22	82.5769	1	14	0.010154	3.25036e-06	0	-1.06795e-05	0.103948	0.00465189	-76.3592	1431.19	337.524	1390.82	-58.9916	4460.56	2297.92	3823.11	0.000200877	0.00024923	0.000320105	51.1316	-6.80563e-07
0.324439	2525.65	2975.68	3903.02	-49.6767	34.8182	0.18401	-0.000595244	164.854	95.8234	1	14	0.0101564	2.60218e-06	0	-1.15737e-05	0.10328	0.00544993	-78.4174	2094.37	420.508	2051.72	-59.6289	5827.05	2946.15	5027.4	0.000165795	0.000195337	0.000256212	49.6767	-8.94188e-07
0.218838	3245.16	3592.05	4840.86	-47.9045	44.4576	0.184009	-0.000623417	202.468	111.48	1	14	0.0101443	2.09556e-06	0	-1.29352e-05	0.103528	0.00609863	-80.876	2910.26	461.485	2873.44	-60.1745	7452.63	3706.64	6465.49	0.000138481	0.000153285	0.000206575	47.9045	-1.3615e-06
0.147897	4575.04	4314.15	6288.32	-43.3189	58.7051	0.184008	-0.000621492	249.44	117.405	1	14	0.0101542	1.61478e-06	0	-1.49268e-05	0.104043	0.00615723	-79.7165	3813.05	680.7	3751.8	-56.9119	9627.17	5255.74	8065.95	0.000115698	0.0001091	0.000159025	43.3189	-1.99165e-06
0.0999041	7404.41	2325.7	7761.07	-17.4373	79.7826	0.184008	-0.000640714	684.989	61.5102	1	14	0.0101542	1.30835e-06	0	-1.54113e-05	0.0997662	0.00754924	-87.2468	5770.04	277.155	5763.38	-46.4802	11155.2	7681.57	8089.07	0.000122927	3.86109e-05	0.000128848	17.4373	-4.84495e-07