File: Lares Oxides/2024-6-20 Ni65Co32Fe3Ox on FTO_1_00mg_CP_C02.mpt
EC-Lab ASCII FILE
Nb header lines : 54

Chronopotentiometry

Run on channel : 2 (SN 39659)
User :
CE vs. WE compliance from -18 V to 2 V
Electrode connection : standard
Potential control : Ewe
Ewe ctrl range : min = 0.00 V, max = 5.00 V
Safety Limits :
	Do not start on E overload
Acquisition started on : 06/20/2024 08:51:44.422
Technique started on : 06/20/2024 08:51:45.422
Loaded Setting File :  NONE
Saved on :
	File : 2024-6-20 Ni65Co32Fe3Ox on FTO_1_00mg_CP_C02.mpr
	Directory : C:\Users\sfolkman\OneDrive - New Mexico State University\Folkman Group Folder\Scott\
	Host : 172.24.124.15
Device : VSP (SN 1910)
Address : USB
EC-Lab for windows v11.46 (software)
Internet server v11.40 (firmware)
Command interpretor v11.40 (firmware)
Electrode material :
Initial state :
Electrolyte :
Comments :
Electrode surface area : 0.001 cm²
Characteristic mass : 0.001 g
Equivalent Weight : 0.000 g/eq.
Density : 0.000 g/cm3
Volume (V) : 0.001 cm³
Record Ece
Cycle Definition : Charge/Discharge alternance
Is                  10.000
unit Is             mA
vs.                 <None>
ts (h:m:s)          48:00:0.0000
EM (V)              5.000
dQM                 480.000
unit dQM            mA.h
record              <Ewe>
dEs (mV)            0.00
dts (s)             1.0000
E range min (V)     0.000
E range max (V)     5.000
I Range             10 mA
Bandwidth           5
goto Ns'            0
nc cycles           0

mode	ox/red	error	control changes	Ns changes	counter inc.	Ns	time/s	control/mA	<Ewe>/V	I/mA	dQ/C	(Q-Qo)/C	half cycle	Q charge/discharge/mA.h	I Range	<Ece>/V	Energy charge/W.h	Energy discharge/W.h	Capacitance charge/µF	Capacitance discharge/µF	Q discharge/mA.h	Q charge/mA.h	Capacity/mA.h	Efficiency/%	cycle number	P/W	Ewe-Ece/V
1	1	0	1	0	0	0	1	10	0.957318	10.0041	0.00950167	0.00950167	0	0.00263935	11	-0.994663	2.5267e-06	0.000000000000000E+000	0.000000000000000E+000	0.000000000000000E+000	0.000000000000000E+000	0.00263935	0.00263935	0.0000000E+000	0.000000000000000E+000	0.00957716	1.95198
1	1	0	1	0	0	0	10	10	0.959725	10.0039	0.0995362	0.0995362	0	0.0276489	11	-1.07607	2.65619e-05	0.000000000000000E+000	4.13638e+07	0.000000000000000E+000	0.000000000000000E+000	0.0276489	0.0276489	0.0000000E+000	0.000000000000000E+000	0.00960099	2.03579
1	1	0	1	0	0	0	19	10	0.958138	10.0043	0.18957	0.18957	0	0.0526584	11	-1.07807	5.05389e-05	0.000000000000000E+000	2.31424e+08	0.000000000000000E+000	0.000000000000000E+000	0.0526584	0.0526584	0.0000000E+000	0.000000000000000E+000	0.00958553	2.03621
1	1	0	1	0	0	0	28	10	0.957733	10.0036	0.279604	0.279604	0	0.0776677	11	-1.07825	7.44947e-05	0.000000000000000E+000	6.74766e+08	0.000000000000000E+000	0.000000000000000E+000	0.0776677	0.0776677	0.0000000E+000	0.000000000000000E+000	0.00958075	2.03599
1	1	0	1	0	0	0	37	10	0.957649	10.004	0.369638	0.369638	0	0.102677	11	-1.07847	9.84465e-05	0.000000000000000E+000	1.11981e+09	0.000000000000000E+000	0.000000000000000E+000	0.102677	0.102677	0.0000000E+000	0.000000000000000E+000	0.00958034	2.03611
1	1	0	1	0	0	0	46	10	0.957978	10.0036	0.459671	0.459671	0	0.127686	11	-1.07767	0.000122401	0.000000000000000E+000	6.96595e+08	0.000000000000000E+000	0.000000000000000E+000	0.127686	0.127686	0.0000000E+000	0.000000000000000E+000	0.00958321	2.03565
1	1	0	1	0	0	0	55	10	0.9587	10.0033	0.549705	0.549705	0	0.152696	11	-1.0769	0.000146366	0.000000000000000E+000	3.97796e+08	0.000000000000000E+000	0.000000000000000E+000	0.152696	0.152696	0.0000000E+000	0.000000000000000E+000	0.00959019	2.0356
1	1	0	1	0	0	0	64	10	0.959588	10.004	0.639738	0.639738	0	0.177705	11	-1.07641	0.000170355	0.000000000000000E+000	2.81855e+08	0.000000000000000E+000	0.000000000000000E+000	0.177705	0.177705	0.0000000E+000	0.000000000000000E+000	0.00959974	2.036
1	1	0	1	0	0	0	73	10	0.960432	10.004	0.729771	0.729771	0	0.202714	11	-1.07645	0.000194364	0.000000000000000E+000	2.34362e+08	0.000000000000000E+000	0.000000000000000E+000	0.202714	0.202714	0.0000000E+000	0.000000000000000E+000	0.00960813	2.03689
1	1	0	1	0	0	0	82	10	0.961989	10.0035	0.819804	0.819804	0	0.227723	11	-1.07629	0.000218405	0.000000000000000E+000	1.75512e+08	0.000000000000000E+000	0.000000000000000E+000	0.227723	0.227723	0.0000000E+000	0.000000000000000E+000	0.00962328	2.03828
1	1	0	1	0	0	0	91	10	0.964119	10.0034	0.909837	0.909837	0	0.252732	11	-1.07545	0.000242493	0.000000000000000E+000	1.33789e+08	0.000000000000000E+000	0.000000000000000E+000	0.252732	0.252732	0.0000000E+000	0.000000000000000E+000	0.00964446	2.03957
1	1	0	1	0	0	0	100	10	0.966591	10.0035	0.99987	0.99987	0	0.277742	11	-1.07518	0.000266639	0.000000000000000E+000	1.07827e+08	0.000000000000000E+000	0.000000000000000E+000	0.277742	0.277742	0.0000000E+000	0.000000000000000E+000	0.00966931	2.04177
1	1	0	1	0	0	0	109	10	0.970599	10.0044	1.0899	1.0899	0	0.302751	11	-1.07482	0.000290867	0.000000000000000E+000	8.20678e+07	0.000000000000000E+000	0.000000000000000E+000	0.302751	0.302751	0.0000000E+000	0.000000000000000E+000	0.00971026	2.04542
1	1	0	1	0	0	0	118	10	0.973869	10.0037	1.17994	1.17994	0	0.32776	11	-1.07525	0.000315184	0.000000000000000E+000	7.12932e+07	0.000000000000000E+000	0.000000000000000E+000	0.32776	0.32776	0.0000000E+000	0.000000000000000E+000	0.0097423	2.04912
1	1	0	1	0	0	0	127	10	0.978192	10.0032	1.26997	1.26997	0	0.352769	11	-1.0751	0.000339594	0.000000000000000E+000	6.08414e+07	0.000000000000000E+000	0.000000000000000E+000	0.352769	0.352769	0.0000000E+000	0.000000000000000E+000	0.00978504	2.05329
1	1	0	1	0	0	0	136	10	0.983154	10.0032	1.36	1.36	0	0.377778	11	-1.07469	0.000364135	0.000000000000000E+000	5.26406e+07	0.000000000000000E+000	0.000000000000000E+000	0.377778	0.377778	0.0000000E+000	0.000000000000000E+000	0.00983468	2.05784
1	1	0	1	0	0	0	145	10	0.987561	10.0038	1.45004	1.45004	0	0.402788	11	-1.07454	0.000388792	0.000000000000000E+000	4.79474e+07	0.000000000000000E+000	0.000000000000000E+000	0.402788	0.402788	0.0000000E+000	0.000000000000000E+000	0.00987933	2.06211
1	1	0	1	0	0	0	154	10	0.994063	10.0041	1.54007	1.54007	0	0.427797	11	-1.07323	0.000413576	0.000000000000000E+000	4.19132e+07	0.000000000000000E+000	0.000000000000000E+000	0.427797	0.427797	0.0000000E+000	0.000000000000000E+000	0.00994469	2.0673
1	1	0	1	0	0	0	163	10	1.00075	10.0031	1.6301	1.6301	0	0.452806	11	-1.07338	0.000438533	0.000000000000000E+000	3.7534e+07	0.000000000000000E+000	0.000000000000000E+000	0.452806	0.452806	0.0000000E+000	0.000000000000000E+000	0.0100106	2.07412
1	1	0	1	0	0	0	172	10	1.01204	10.004	1.72013	1.72013	0	0.477815	11	-1.07351	0.000463718	0.000000000000000E+000	3.14372e+07	0.000000000000000E+000	0.000000000000000E+000	0.477815	0.477815	0.0000000E+000	0.000000000000000E+000	0.0101244	2.08554
1	1	0	1	0	0	0	181	10	1.01786	10.0039	1.81017	1.81017	0	0.502824	11	-1.07363	0.000489135	0.000000000000000E+000	2.98985e+07	0.000000000000000E+000	0.000000000000000E+000	0.502824	0.502824	0.0000000E+000	0.000000000000000E+000	0.0101826	2.0915
1	1	0	1	0	0	0	190	10	1.01868	10.004	1.9002	1.9002	0	0.527833	11	-1.07397	0.000514624	0.000000000000000E+000	3.09684e+07	0.000000000000000E+000	0.000000000000000E+000	0.527833	0.527833	0.0000000E+000	0.000000000000000E+000	0.0101909	2.09264
1	1	0	1	0	0	0	199	10	1.02334	10.004	1.99023	1.99023	0	0.552842	11	-1.0743	0.000540159	0.000000000000000E+000	3.01458e+07	0.000000000000000E+000	0.000000000000000E+000	0.552842	0.552842	0.0000000E+000	0.000000000000000E+000	0.0102374	2.09764
1	1	0	1	0	0	0	208	10	1.02067	10.0036	2.08027	2.08027	0	0.577851	11	-1.07446	0.000565734	0.000000000000000E+000	3.28358e+07	0.000000000000000E+000	0.000000000000000E+000	0.577851	0.577851	0.0000000E+000	0.000000000000000E+000	0.0102104	2.09514
1	1	0	1	0	0	0	217	10	1.02303	10.004	2.1703	2.1703	0	0.602861	11	-1.07465	0.000591304	0.000000000000000E+000	3.30276e+07	0.000000000000000E+000	0.000000000000000E+000	0.602861	0.602861	0.0000000E+000	0.000000000000000E+000	0.0102344	2.09768
1	1	0	1	0	0	0	226	10	1.02359	10.0031	2.26033	2.26033	0	0.62787	11	-1.07497	0.000616868	0.000000000000000E+000	3.41087e+07	0.000000000000000E+000	0.000000000000000E+000	0.62787	0.62787	0.0000000E+000	0.000000000000000E+000	0.010239	2.09855
1	1	0	1	0	0	0	235	10	1.02562	10.0029	2.35036	2.35036	0	0.652879	11	-1.076	0.000642496	0.000000000000000E+000	3.44139e+07	0.000000000000000E+000	0.000000000000000E+000	0.652879	0.652879	0.0000000E+000	0.000000000000000E+000	0.0102592	2.10162
1	1	0	1	0	0	0	244	10	1.02836	10.0041	2.4404	2.4404	0	0.677888	11	-1.0763	0.000668192	0.000000000000000E+000	3.43495e+07	0.000000000000000E+000	0.000000000000000E+000	0.677888	0.677888	0.0000000E+000	0.000000000000000E+000	0.0102878	2.10466
1	1	0	1	0	0	0	253	10	1.02992	10.0041	2.53043	2.53043	0	0.702897	11	-1.07679	0.000693947	0.000000000000000E+000	3.48542e+07	0.000000000000000E+000	0.000000000000000E+000	0.702897	0.702897	0.0000000E+000	0.000000000000000E+000	0.0103034	2.10671
1	1	0	1	0	0	0	262	10	1.02457	10.0038	2.62046	2.62046	0	0.727906	11	-1.07693	0.000719553	0.000000000000000E+000	3.89653e+07	0.000000000000000E+000	0.000000000000000E+000	0.727906	0.727906	0.0000000E+000	0.000000000000000E+000	0.0102496	2.1015
1	1	0	1	0	0	0	271	10	1.0269	10.0034	2.71049	2.71049	0	0.752915	11	-1.07722	0.000745212	0.000000000000000E+000	3.89569e+07	0.000000000000000E+000	0.000000000000000E+000	0.752915	0.752915	0.0000000E+000	0.000000000000000E+000	0.0102724	2.10412
1	1	0	1	0	0	0	280	10	1.02567	10.004	2.80053	2.80053	0	0.777924	11	-1.07703	0.000770915	0.000000000000000E+000	4.09697e+07	0.000000000000000E+000	0.000000000000000E+000	0.777924	0.777924	0.0000000E+000	0.000000000000000E+000	0.0102609	2.10271
1	1	0	1	0	0	0	289	10	1.0279	10.004	2.89056	2.89056	0	0.802933	11	-1.07753	0.000796591	0.000000000000000E+000	4.09534e+07	0.000000000000000E+000	0.000000000000000E+000	0.802933	0.802933	0.0000000E+000	0.000000000000000E+000	0.0102831	2.10543
1	1	0	1	0	0	0	298	10	1.02943	10.0036	2.98059	2.98059	0	0.827942	11	-1.07778	0.000822328	0.000000000000000E+000	4.13314e+07	0.000000000000000E+000	0.000000000000000E+000	0.827942	0.827942	0.0000000E+000	0.000000000000000E+000	0.0102981	2.10721
1	1	0	1	0	0	0	307	10	1.02687	10.0043	3.07062	3.07062	0	0.852951	11	-1.07813	0.00084805	0.000000000000000E+000	4.41464e+07	0.000000000000000E+000	0.000000000000000E+000	0.852951	0.852951	0.0000000E+000	0.000000000000000E+000	0.0102732	2.105
1	1	0	1	0	0	0	316	10	1.02849	10.0031	3.16066	3.16066	0	0.87796	11	-1.07857	0.000873755	0.000000000000000E+000	4.44117e+07	0.000000000000000E+000	0.000000000000000E+000	0.87796	0.87796	0.0000000E+000	0.000000000000000E+000	0.010288	2.10705
1	1	0	1	0	0	0	325	10	1.02998	10.0031	3.25069	3.25069	0	0.902969	11	-1.07882	0.000899496	0.000000000000000E+000	4.47345e+07	0.000000000000000E+000	0.000000000000000E+000	0.902969	0.902969	0.0000000E+000	0.000000000000000E+000	0.010303	2.10881
1	1	0	1	0	0	0	334	10	1.02927	10.0047	3.34072	3.34072	0	0.927978	11	-1.07988	0.000925227	0.000000000000000E+000	4.64281e+07	0.000000000000000E+000	0.000000000000000E+000	0.927978	0.927978	0.0000000E+000	0.000000000000000E+000	0.0102976	2.10915
1	1	0	1	0	0	0	343	10	1.03025	10.0041	3.43075	3.43075	0	0.952987	11	-1.08005	0.000950985	0.000000000000000E+000	4.70434e+07	0.000000000000000E+000	0.000000000000000E+000	0.952987	0.952987	0.0000000E+000	0.000000000000000E+000	0.0103067	2.1103
1	1	0	1	0	0	0	352	10	1.03071	10.0025	3.52079	3.52079	0	0.977996	11	-1.07976	0.000976758	0.000000000000000E+000	4.79754e+07	0.000000000000000E+000	0.000000000000000E+000	0.977996	0.977996	0.0000000E+000	0.000000000000000E+000	0.0103096	2.11047
1	1	0	1	0	0	0	361	10	1.03189	10.0033	3.61082	3.61082	0	1.00301	11	-1.08016	0.00100256	0.000000000000000E+000	4.84235e+07	0.000000000000000E+000	0.000000000000000E+000	1.00301	1.00301	0.0000000E+000	0.000000000000000E+000	0.0103222	2.11204
1	1	0	1	0	0	0	370	10	1.03167	10.0029	3.70085	3.70085	0	1.02801	11	-1.08038	0.00102835	0.000000000000000E+000	4.97741e+07	0.000000000000000E+000	0.000000000000000E+000	1.02801	1.02801	0.0000000E+000	0.000000000000000E+000	0.0103197	2.11206
1	1	0	1	0	0	0	379	10	1.03133	10.0032	3.79089	3.79089	0	1.05302	11	-1.08096	0.00105417	0.000000000000000E+000	5.12211e+07	0.000000000000000E+000	0.000000000000000E+000	1.05302	1.05302	0.0000000E+000	0.000000000000000E+000	0.0103166	2.11229
1	1	0	1	0	0	0	388	10	1.03167	10.0031	3.88092	3.88092	0	1.07803	11	-1.08107	0.00107997	0.000000000000000E+000	5.21951e+07	0.000000000000000E+000	0.000000000000000E+000	1.07803	1.07803	0.0000000E+000	0.000000000000000E+000	0.01032	2.11274
1	1	0	1	0	0	0	397	10	1.03297	10.004	3.97095	3.97095	0	1.10304	11	-1.08175	0.0011058	0.000000000000000E+000	5.24927e+07	0.000000000000000E+000	0.000000000000000E+000	1.10304	1.10304	0.0000000E+000	0.000000000000000E+000	0.0103338	2.11471
1	1	0	1	0	0	0	406	10	1.03343	10.0035	4.06098	4.06098	0	1.12805	11	-1.08206	0.00113163	0.000000000000000E+000	5.33524e+07	0.000000000000000E+000	0.000000000000000E+000	1.12805	1.12805	0.0000000E+000	0.000000000000000E+000	0.010338	2.11549
1	1	0	1	0	0	0	415	10	1.03296	10.0042	4.15102	4.15102	0	1.15306	11	-1.08237	0.00115749	0.000000000000000E+000	5.4875e+07	0.000000000000000E+000	0.000000000000000E+000	1.15306	1.15306	0.0000000E+000	0.000000000000000E+000	0.010334	2.11533
1	1	0	1	0	0	0	424	10	1.03415	10.004	4.24105	4.24105	0	1.17807	11	-1.08241	0.00118335	0.000000000000000E+000	5.51957e+07	0.000000000000000E+000	0.000000000000000E+000	1.17807	1.17807	0.0000000E+000	0.000000000000000E+000	0.0103456	2.11656
1	1	0	1	0	0	0	433	10	1.0347	10.0031	4.33108	4.33108	0	1.20308	11	-1.08309	0.00120924	0.000000000000000E+000	5.59692e+07	0.000000000000000E+000	0.000000000000000E+000	1.20308	1.20308	0.0000000E+000	0.000000000000000E+000	0.0103502	2.11779
1	1	0	1	0	0	0	442	10	1.03455	10.0037	4.42111	4.42111	0	1.22809	11	-1.08354	0.00123512	0.000000000000000E+000	5.72486e+07	0.000000000000000E+000	0.000000000000000E+000	1.22809	1.22809	0.0000000E+000	0.000000000000000E+000	0.0103493	2.11808
1	1	0	1	0	0	0	451	10	1.0358	10.0028	4.51115	4.51115	0	1.2531	11	-1.08337	0.00126101	0.000000000000000E+000	5.74832e+07	0.000000000000000E+000	0.000000000000000E+000	1.2531	1.2531	0.0000000E+000	0.000000000000000E+000	0.0103608	2.11917
1	1	0	1	0	0	0	460	10	1.03552	10.0036	4.60118	4.60118	0	1.2781	11	-1.08393	0.00128692	0.000000000000000E+000	5.88343e+07	0.000000000000000E+000	0.000000000000000E+000	1.2781	1.2781	0.0000000E+000	0.000000000000000E+000	0.010359	2.11945
1	1	0	1	0	0	0	469	10	1.03734	10.004	4.69121	4.69121	0	1.30311	11	-1.08416	0.00131284	0.000000000000000E+000	5.86214e+07	0.000000000000000E+000	0.000000000000000E+000	1.30311	1.30311	0.0000000E+000	0.000000000000000E+000	0.0103775	2.1215
1	1	0	1	0	0	0	478	10	1.03714	10.0031	4.78124	4.78124	0	1.32812	11	-1.08452	0.00133877	0.000000000000000E+000	5.99008e+07	0.000000000000000E+000	0.000000000000000E+000	1.32812	1.32812	0.0000000E+000	0.000000000000000E+000	0.0103746	2.12166
1	1	0	1	0	0	0	487	10	1.03717	10.003	4.87127	4.87127	0	1.35313	11	-1.08488	0.00136471	0.000000000000000E+000	6.10072e+07	0.000000000000000E+000	0.000000000000000E+000	1.35313	1.35313	0.0000000E+000	0.000000000000000E+000	0.0103748	2.12205
1	1	0	1	0	0	0	496	10	1.03711	10.0032	4.96131	4.96131	0	1.37814	11	-1.08578	0.00139065	0.000000000000000E+000	6.21756e+07	0.000000000000000E+000	0.000000000000000E+000	1.37814	1.37814	0.0000000E+000	0.000000000000000E+000	0.0103745	2.12289
1	1	0	1	0	0	0	505	10	1.03868	10.004	5.05134	5.05134	0	1.40315	11	-1.08616	0.00141661	0.000000000000000E+000	6.20858e+07	0.000000000000000E+000	0.000000000000000E+000	1.40315	1.40315	0.0000000E+000	0.000000000000000E+000	0.010391	2.12484
1	1	0	1	0	0	0	514	10	1.03805	10.0032	5.14137	5.14137	0	1.42816	11	-1.08648	0.00144256	0.000000000000000E+000	6.36813e+07	0.000000000000000E+000	0.000000000000000E+000	1.42816	1.42816	0.0000000E+000	0.000000000000000E+000	0.0103839	2.12454
1	1	0	1	0	0	0	523	10	1.03852	10.0037	5.2314	5.2314	0	1.45317	11	-1.08707	0.00146853	0.000000000000000E+000	6.4424e+07	0.000000000000000E+000	0.000000000000000E+000	1.45317	1.45317	0.0000000E+000	0.000000000000000E+000	0.0103891	2.1256
1	1	0	1	0	0	0	532	10	1.03841	10.0037	5.32144	5.32144	0	1.47818	11	-1.08713	0.00149452	0.000000000000000E+000	6.56193e+07	0.000000000000000E+000	0.000000000000000E+000	1.47818	1.47818	0.0000000E+000	0.000000000000000E+000	0.010388	2.12554
1	1	0	1	0	0	0	541	10	1.04013	10.0041	5.41147	5.41147	0	1.50319	11	-1.08739	0.00152051	0.000000000000000E+000	6.53444e+07	0.000000000000000E+000	0.000000000000000E+000	1.50319	1.50319	0.0000000E+000	0.000000000000000E+000	0.0104056	2.12752
1	1	0	1	0	0	0	550	10	1.0395	10.0033	5.5015	5.5015	0	1.52819	11	-1.08757	0.00154651	0.000000000000000E+000	6.69424e+07	0.000000000000000E+000	0.000000000000000E+000	1.52819	1.52819	0.0000000E+000	0.000000000000000E+000	0.0103984	2.12707
1	1	0	1	0	0	0	559	10	1.0397	10.004	5.59153	5.59153	0	1.5532	11	-1.08835	0.00157252	0.000000000000000E+000	6.78769e+07	0.000000000000000E+000	0.000000000000000E+000	1.5532	1.5532	0.0000000E+000	0.000000000000000E+000	0.0104011	2.12804
1	1	0	1	0	0	0	568	10	1.03988	10.0038	5.68157	5.68157	0	1.57821	11	-1.0889	0.00159854	0.000000000000000E+000	6.88152e+07	0.000000000000000E+000	0.000000000000000E+000	1.57821	1.57821	0.0000000E+000	0.000000000000000E+000	0.0104028	2.12878
1	1	0	1	0	0	0	577	10	1.04144	10.0041	5.7716	5.7716	0	1.60322	11	-1.089	0.00162457	0.000000000000000E+000	6.86134e+07	0.000000000000000E+000	0.000000000000000E+000	1.60322	1.60322	0.0000000E+000	0.000000000000000E+000	0.0104186	2.13043
1	1	0	1	0	0	0	586	10	1.04098	10.0029	5.86163	5.86163	0	1.62823	11	-1.08912	0.00165061	0.000000000000000E+000	7.00643e+07	0.000000000000000E+000	0.000000000000000E+000	1.62823	1.62823	0.0000000E+000	0.000000000000000E+000	0.0104129	2.1301
1	1	0	1	0	0	0	595	10	1.0417	10.0038	5.95166	5.95166	0	1.65324	11	-1.0892	0.00167665	0.000000000000000E+000	7.05312e+07	0.000000000000000E+000	0.000000000000000E+000	1.65324	1.65324	0.0000000E+000	0.000000000000000E+000	0.010421	2.1309
1	1	0	1	0	0	0	604	10	1.04201	10.004	6.0417	6.0417	0	1.67825	11	-1.0897	0.00170272	0.000000000000000E+000	7.13364e+07	0.000000000000000E+000	0.000000000000000E+000	1.67825	1.67825	0.0000000E+000	0.000000000000000E+000	0.0104243	2.13171
1	1	0	1	0	0	0	613	10	1.04173	10.0031	6.13173	6.13173	0	1.70326	11	-1.08986	0.00172879	0.000000000000000E+000	7.26424e+07	0.000000000000000E+000	0.000000000000000E+000	1.70326	1.70326	0.0000000E+000	0.000000000000000E+000	0.0104205	2.13159
1	1	0	1	0	0	0	622	10	1.04217	10.004	6.22176	6.22176	0	1.72827	11	-1.09029	0.00175486	0.000000000000000E+000	7.33262e+07	0.000000000000000E+000	0.000000000000000E+000	1.72827	1.72827	0.0000000E+000	0.000000000000000E+000	0.0104258	2.13246
1	1	0	1	0	0	0	631	10	1.04254	10.0038	6.31179	6.31179	0	1.75328	11	-1.09071	0.00178095	0.000000000000000E+000	7.40605e+07	0.000000000000000E+000	0.000000000000000E+000	1.75328	1.75328	0.0000000E+000	0.000000000000000E+000	0.0104294	2.13325
1	1	0	1	0	0	0	640	10	1.04429	10.0028	6.40183	6.40183	0	1.77829	11	-1.09094	0.00180704	0.000000000000000E+000	7.36113e+07	0.000000000000000E+000	0.000000000000000E+000	1.77829	1.77829	0.0000000E+000	0.000000000000000E+000	0.0104458	2.13523
1	1	0	1	0	0	0	649	10	1.04432	10.003	6.49186	6.49186	0	1.80329	11	-1.09141	0.00183315	0.000000000000000E+000	7.46207e+07	0.000000000000000E+000	0.000000000000000E+000	1.80329	1.80329	0.0000000E+000	0.000000000000000E+000	0.0104463	2.13573
1	1	0	1	0	0	0	658	10	1.04429	10.0034	6.58189	6.58189	0	1.8283	11	-1.09026	0.00185926	0.000000000000000E+000	7.5678e+07	0.000000000000000E+000	0.000000000000000E+000	1.8283	1.8283	0.0000000E+000	0.000000000000000E+000	0.0104465	2.13455
1	1	0	1	0	0	0	667	10	1.04459	10.004	6.67192	6.67192	0	1.85331	11	-1.09062	0.00188537	0.000000000000000E+000	7.64498e+07	0.000000000000000E+000	0.000000000000000E+000	1.85331	1.85331	0.0000000E+000	0.000000000000000E+000	0.0104501	2.13521
1	1	0	1	0	0	0	676	10	1.04412	10.0037	6.76196	6.76196	0	1.87832	11	-1.09103	0.00191151	0.000000000000000E+000	7.79008e+07	0.000000000000000E+000	0.000000000000000E+000	1.87832	1.87832	0.0000000E+000	0.000000000000000E+000	0.0104451	2.13515
1	1	0	1	0	0	0	685	10	1.04589	10.0028	6.85199	6.85199	0	1.90333	11	-1.09133	0.00193764	0.000000000000000E+000	7.73618e+07	0.000000000000000E+000	0.000000000000000E+000	1.90333	1.90333	0.0000000E+000	0.000000000000000E+000	0.0104618	2.13721
1	1	0	1	0	0	0	694	10	1.04626	10.0033	6.94202	6.94202	0	1.92834	11	-1.09165	0.00196379	0.000000000000000E+000	7.80514e+07	0.000000000000000E+000	0.000000000000000E+000	1.92834	1.92834	0.0000000E+000	0.000000000000000E+000	0.0104661	2.13791
1	1	0	1	0	0	0	703	10	1.04582	10.0035	7.03205	7.03205	0	1.95335	11	-1.09196	0.00198993	0.000000000000000E+000	7.9456e+07	0.000000000000000E+000	0.000000000000000E+000	1.95335	1.95335	0.0000000E+000	0.000000000000000E+000	0.0104619	2.13778
1	1	0	1	0	0	0	712	10	1.04611	10.0036	7.12209	7.12209	0	1.97836	11	-1.09243	0.0020161	0.000000000000000E+000	8.02093e+07	0.000000000000000E+000	0.000000000000000E+000	1.97836	1.97836	0.0000000E+000	0.000000000000000E+000	0.0104649	2.13854
1	1	0	1	0	0	0	721	10	1.04683	10.0037	7.21212	7.21212	0	2.00337	11	-1.09265	0.00204227	0.000000000000000E+000	8.05724e+07	0.000000000000000E+000	0.000000000000000E+000	2.00337	2.00337	0.0000000E+000	0.000000000000000E+000	0.0104722	2.13948
1	1	0	1	0	0	0	730	10	1.04717	10.0037	7.30215	7.30215	0	2.02838	11	-1.09313	0.00206845	0.000000000000000E+000	8.12707e+07	0.000000000000000E+000	0.000000000000000E+000	2.02838	2.02838	0.0000000E+000	0.000000000000000E+000	0.0104756	2.1403
1	1	0	1	0	0	0	739	10	1.0475	10.004	7.39218	7.39218	0	2.05338	11	-1.09341	0.00209465	0.000000000000000E+000	8.19658e+07	0.000000000000000E+000	0.000000000000000E+000	2.05338	2.05338	0.0000000E+000	0.000000000000000E+000	0.0104793	2.14091
1	1	0	1	0	0	0	748	10	1.04854	10.0033	7.48221	7.48221	0	2.07839	11	-1.09371	0.00212086	0.000000000000000E+000	8.20219e+07	0.000000000000000E+000	0.000000000000000E+000	2.07839	2.07839	0.0000000E+000	0.000000000000000E+000	0.0104888	2.14225
1	1	0	1	0	0	0	757	10	1.04887	10.0031	7.57225	7.57225	0	2.1034	11	-1.09425	0.00214709	0.000000000000000E+000	8.27145e+07	0.000000000000000E+000	0.000000000000000E+000	2.1034	2.1034	0.0000000E+000	0.000000000000000E+000	0.0104919	2.14311
1	1	0	1	0	0	0	766	10	1.04928	10.0038	7.66228	7.66228	0	2.12841	11	-1.0946	0.00217333	0.000000000000000E+000	8.33219e+07	0.000000000000000E+000	0.000000000000000E+000	2.12841	2.12841	0.0000000E+000	0.000000000000000E+000	0.0104967	2.14388
1	1	0	1	0	0	0	775	10	1.05007	10.0038	7.75231	7.75231	0	2.15342	11	-1.09501	0.00219959	0.000000000000000E+000	8.35843e+07	0.000000000000000E+000	0.000000000000000E+000	2.15342	2.15342	0.0000000E+000	0.000000000000000E+000	0.0105046	2.14507
1	1	0	1	0	0	0	784	10	1.05062	10.0036	7.84234	7.84234	0	2.17843	11	-1.09527	0.00222585	0.000000000000000E+000	8.40508e+07	0.000000000000000E+000	0.000000000000000E+000	2.17843	2.17843	0.0000000E+000	0.000000000000000E+000	0.0105101	2.1459
1	1	0	1	0	0	0	793	10	1.05095	10.0028	7.93238	7.93238	0	2.20344	11	-1.09578	0.00225213	0.000000000000000E+000	8.47148e+07	0.000000000000000E+000	0.000000000000000E+000	2.20344	2.20344	0.0000000E+000	0.000000000000000E+000	0.0105125	2.14673
1	1	0	1	0	0	0	802	10	1.05138	10.0039	8.02241	8.02241	0	2.22845	11	-1.09608	0.00227841	0.000000000000000E+000	8.52862e+07	0.000000000000000E+000	0.000000000000000E+000	2.22845	2.22845	0.0000000E+000	0.000000000000000E+000	0.0105179	2.14746
1	1	0	1	0	0	0	811	10	1.05178	10.0041	8.11244	8.11244	0	2.25346	11	-1.0964	0.00230471	0.000000000000000E+000	8.5885e+07	0.000000000000000E+000	0.000000000000000E+000	2.25346	2.25346	0.0000000E+000	0.000000000000000E+000	0.0105221	2.14818
1	1	0	1	0	0	0	820	10	1.05205	10.0038	8.20247	8.20247	0	2.27846	11	-1.09678	0.00233103	0.000000000000000E+000	8.65826e+07	0.000000000000000E+000	0.000000000000000E+000	2.27846	2.27846	0.0000000E+000	0.000000000000000E+000	0.0105245	2.14883
1	1	0	1	0	0	0	829	10	1.05246	10.003	8.29251	8.29251	0	2.30347	11	-1.09715	0.00235735	0.000000000000000E+000	8.71612e+07	0.000000000000000E+000	0.000000000000000E+000	2.30347	2.30347	0.0000000E+000	0.000000000000000E+000	0.0105277	2.14961
1	1	0	1	0	0	0	838	10	1.05349	10.0026	8.38254	8.38254	0	2.32848	11	-1.0973	0.00238368	0.000000000000000E+000	8.71643e+07	0.000000000000000E+000	0.000000000000000E+000	2.32848	2.32848	0.0000000E+000	0.000000000000000E+000	0.0105376	2.15079
1	1	0	1	0	0	0	847	10	1.05349	10.0036	8.47257	8.47257	0	2.35349	11	-1.09766	0.00241003	0.000000000000000E+000	8.80945e+07	0.000000000000000E+000	0.000000000000000E+000	2.35349	2.35349	0.0000000E+000	0.000000000000000E+000	0.0105387	2.15115
1	1	0	1	0	0	0	856	10	1.05433	10.0035	8.5626	8.5626	0	2.3785	11	-1.09815	0.00243639	0.000000000000000E+000	8.82636e+07	0.000000000000000E+000	0.000000000000000E+000	2.3785	2.3785	0.0000000E+000	0.000000000000000E+000	0.010547	2.15248
1	1	0	1	0	0	0	865	10	1.05475	10.0032	8.65263	8.65263	0	2.40351	11	-1.09835	0.00246276	0.000000000000000E+000	8.88039e+07	0.000000000000000E+000	0.000000000000000E+000	2.40351	2.40351	0.0000000E+000	0.000000000000000E+000	0.0105509	2.1531
1	1	0	1	0	0	0	874	10	1.05518	10.0035	8.74267	8.74267	0	2.42852	11	-1.09877	0.00248914	0.000000000000000E+000	8.93352e+07	0.000000000000000E+000	0.000000000000000E+000	2.42852	2.42852	0.0000000E+000	0.000000000000000E+000	0.0105555	2.15395
1	1	0	1	0	0	0	883	10	1.05548	10.0036	8.8327	8.8327	0	2.45353	11	-1.099	0.00251553	0.000000000000000E+000	8.99845e+07	0.000000000000000E+000	0.000000000000000E+000	2.45353	2.45353	0.0000000E+000	0.000000000000000E+000	0.0105586	2.15448
1	1	0	1	0	0	0	892	10	1.05594	10.004	8.92273	8.92273	0	2.47854	11	-1.09943	0.00254194	0.000000000000000E+000	9.04771e+07	0.000000000000000E+000	0.000000000000000E+000	2.47854	2.47854	0.0000000E+000	0.000000000000000E+000	0.0105636	2.15537
1	1	0	1	0	0	0	901	10	1.05684	10.003	9.01276	9.01276	0	2.50355	11	-1.09975	0.00256836	0.000000000000000E+000	9.05602e+07	0.000000000000000E+000	0.000000000000000E+000	2.50355	2.50355	0.0000000E+000	0.000000000000000E+000	0.0105716	2.15659
1	1	0	1	0	0	0	910	10	1.0573	10.0037	9.1028	9.1028	0	2.52855	11	-1.10004	0.00259479	0.000000000000000E+000	9.10444e+07	0.000000000000000E+000	0.000000000000000E+000	2.52855	2.52855	0.0000000E+000	0.000000000000000E+000	0.0105769	2.15734
1	1	0	1	0	0	0	919	10	1.05758	10.0028	9.19283	9.19283	0	2.55356	11	-1.10041	0.00262123	0.000000000000000E+000	9.1688e+07	0.000000000000000E+000	0.000000000000000E+000	2.55356	2.55356	0.0000000E+000	0.000000000000000E+000	0.0105787	2.15799
1	1	0	1	0	0	0	928	10	1.05792	10.0034	9.28286	9.28286	0	2.57857	11	-1.10057	0.00264769	0.000000000000000E+000	9.2275e+07	0.000000000000000E+000	0.000000000000000E+000	2.57857	2.57857	0.0000000E+000	0.000000000000000E+000	0.0105828	2.15849
1	1	0	1	0	0	0	937	10	1.05847	10.0034	9.37289	9.37289	0	2.60358	11	-1.10097	0.00267415	0.000000000000000E+000	9.26622e+07	0.000000000000000E+000	0.000000000000000E+000	2.60358	2.60358	0.0000000E+000	0.000000000000000E+000	0.0105883	2.15944
1	1	0	1	0	0	0	946	10	1.05925	10.0041	9.46293	9.46293	0	2.62859	11	-1.10108	0.00270063	0.000000000000000E+000	9.28344e+07	0.000000000000000E+000	0.000000000000000E+000	2.62859	2.62859	0.0000000E+000	0.000000000000000E+000	0.0105969	2.16033
1	1	0	1	0	0	0	955	10	1.05971	10.0032	9.55296	9.55296	0	2.6536	11	-1.10157	0.00272712	0.000000000000000E+000	9.33012e+07	0.000000000000000E+000	0.000000000000000E+000	2.6536	2.6536	0.0000000E+000	0.000000000000000E+000	0.0106005	2.16127
1	1	0	1	0	0	0	964	10	1.05981	10.0043	9.64299	9.64299	0	2.67861	11	-1.10195	0.00275362	0.000000000000000E+000	9.40862e+07	0.000000000000000E+000	0.000000000000000E+000	2.67861	2.67861	0.0000000E+000	0.000000000000000E+000	0.0106026	2.16176
1	1	0	1	0	0	0	973	10	1.06024	10.0039	9.73302	9.73302	0	2.70362	11	-1.1022	0.00278013	0.000000000000000E+000	9.4572e+07	0.000000000000000E+000	0.000000000000000E+000	2.70362	2.70362	0.0000000E+000	0.000000000000000E+000	0.0106065	2.16243
1	1	0	1	0	0	0	982	10	1.06078	10.0031	9.82306	9.82306	0	2.72863	11	-1.10259	0.00280666	0.000000000000000E+000	9.49432e+07	0.000000000000000E+000	0.000000000000000E+000	2.72863	2.72863	0.0000000E+000	0.000000000000000E+000	0.0106111	2.16337
1	1	0	1	0	0	0	991	10	1.06158	10.0031	9.91309	9.91309	0	2.75364	11	-1.10291	0.0028332	0.000000000000000E+000	9.50801e+07	0.000000000000000E+000	0.000000000000000E+000	2.75364	2.75364	0.0000000E+000	0.000000000000000E+000	0.0106191	2.16449
1	1	0	1	0	0	0	1000	10	1.06213	10.0035	10.0031	10.0031	0	2.77864	11	-1.10315	0.00285975	0.000000000000000E+000	9.54377e+07	0.000000000000000E+000	0.000000000000000E+000	2.77864	2.77864	0.0000000E+000	0.000000000000000E+000	0.010625	2.16528
1	1	0	1	0	0	0	1009	10	1.06274	10.0035	10.0932	10.0932	0	2.80365	11	-1.10352	0.00288632	0.000000000000000E+000	9.57438e+07	0.000000000000000E+000	0.000000000000000E+000	2.80365	2.80365	0.0000000E+000	0.000000000000000E+000	0.0106311	2.16626
1	1	0	1	0	0	0	1018	10	1.06289	10.0036	10.1832	10.1832	0	2.82866	11	-1.10374	0.00291289	0.000000000000000E+000	9.64538e+07	0.000000000000000E+000	0.000000000000000E+000	2.82866	2.82866	0.0000000E+000	0.000000000000000E+000	0.0106328	2.16663
1	1	0	1	0	0	0	1027	10	1.06319	10.0034	10.2732	10.2732	0	2.85367	11	-1.10404	0.00293948	0.000000000000000E+000	9.70338e+07	0.000000000000000E+000	0.000000000000000E+000	2.85367	2.85367	0.0000000E+000	0.000000000000000E+000	0.0106355	2.16723
1	1	0	1	0	0	0	1036	10	1.06367	10.0044	10.3632	10.3632	0	2.87868	11	-1.10414	0.00296608	0.000000000000000E+000	9.74391e+07	0.000000000000000E+000	0.000000000000000E+000	2.87868	2.87868	0.0000000E+000	0.000000000000000E+000	0.0106414	2.16781
1	1	0	1	0	0	0	1045	10	1.06408	10.0033	10.4533	10.4533	0	2.90369	11	-1.10449	0.00299269	0.000000000000000E+000	9.79087e+07	0.000000000000000E+000	0.000000000000000E+000	2.90369	2.90369	0.0000000E+000	0.000000000000000E+000	0.0106443	2.16857
1	1	0	1	0	0	0	1054	10	1.06437	10.0034	10.5433	10.5433	0	2.9287	11	-1.10475	0.00301931	0.000000000000000E+000	9.84924e+07	0.000000000000000E+000	0.000000000000000E+000	2.9287	2.9287	0.0000000E+000	0.000000000000000E+000	0.0106473	2.16912
1	1	0	1	0	0	0	1063	10	1.06499	10.0032	10.6333	10.6333	0	2.95371	11	-1.10496	0.00304593	0.000000000000000E+000	9.87541e+07	0.000000000000000E+000	0.000000000000000E+000	2.95371	2.95371	0.0000000E+000	0.000000000000000E+000	0.0106533	2.16995
1	1	0	1	0	0	0	1072	10	1.06542	10.0034	10.7234	10.7234	0	2.97872	11	-1.10527	0.00307257	0.000000000000000E+000	9.91957e+07	0.000000000000000E+000	0.000000000000000E+000	2.97872	2.97872	0.0000000E+000	0.000000000000000E+000	0.0106579	2.1707
1	1	0	1	0	0	0	1081	10	1.0658	10.0042	10.8134	10.8134	0	3.00372	11	-1.10551	0.00309923	0.000000000000000E+000	9.96806e+07	0.000000000000000E+000	0.000000000000000E+000	3.00372	3.00372	0.0000000E+000	0.000000000000000E+000	0.0106625	2.17131
1	1	0	1	0	0	0	1090	10	1.06654	10.0036	10.9034	10.9034	0	3.02873	11	-1.10562	0.00312589	0.000000000000000E+000	9.98252e+07	0.000000000000000E+000	0.000000000000000E+000	3.02873	3.02873	0.0000000E+000	0.000000000000000E+000	0.0106693	2.17216
1	1	0	1	0	0	0	1099	10	1.06687	10.0039	10.9935	10.9935	0	3.05374	11	-1.1058	0.00315257	0.000000000000000E+000	1.00349e+08	0.000000000000000E+000	0.000000000000000E+000	3.05374	3.05374	0.0000000E+000	0.000000000000000E+000	0.0106729	2.17267
1	1	0	1	0	0	0	1108	10	1.06761	10.0031	11.0835	11.0835	0	3.07875	11	-1.10603	0.00317926	0.000000000000000E+000	1.0049e+08	0.000000000000000E+000	0.000000000000000E+000	3.07875	3.07875	0.0000000E+000	0.000000000000000E+000	0.0106795	2.17365
1	1	0	1	0	0	0	1117	10	1.06808	10.0039	11.1735	11.1735	0	3.10376	11	-1.10607	0.00320596	0.000000000000000E+000	1.00879e+08	0.000000000000000E+000	0.000000000000000E+000	3.10376	3.10376	0.0000000E+000	0.000000000000000E+000	0.010685	2.17415
1	1	0	1	0	0	0	1126	10	1.06851	10.0036	11.2636	11.2636	0	3.12877	11	-1.10602	0.00323268	0.000000000000000E+000	1.01296e+08	0.000000000000000E+000	0.000000000000000E+000	3.12877	3.12877	0.0000000E+000	0.000000000000000E+000	0.010689	2.17453
1	1	0	1	0	0	0	1135	10	1.06855	10.0038	11.3536	11.3536	0	3.15378	11	-1.10432	0.0032594	0.000000000000000E+000	1.0207e+08	0.000000000000000E+000	0.000000000000000E+000	3.15378	3.15378	0.0000000E+000	0.000000000000000E+000	0.0106896	2.17287
1	1	0	1	0	0	0	1144	10	1.06913	10.0041	11.4436	11.4436	0	3.17879	11	-1.10368	0.00328613	0.000000000000000E+000	1.02345e+08	0.000000000000000E+000	0.000000000000000E+000	3.17879	3.17879	0.0000000E+000	0.000000000000000E+000	0.0106958	2.17282
1	1	0	1	0	0	0	1153	10	1.06964	10.0038	11.5337	11.5337	0	3.2038	11	-1.10395	0.00331287	0.000000000000000E+000	1.02682e+08	0.000000000000000E+000	0.000000000000000E+000	3.2038	3.2038	0.0000000E+000	0.000000000000000E+000	0.0107005	2.17359
1	1	0	1	0	0	0	1162	10	1.07011	10.0037	11.6237	11.6237	0	3.22881	11	-1.10425	0.00333963	0.000000000000000E+000	1.03056e+08	0.000000000000000E+000	0.000000000000000E+000	3.22881	3.22881	0.0000000E+000	0.000000000000000E+000	0.0107051	2.17436
1	1	0	1	0	0	0	1171	10	1.0704	10.0047	11.7137	11.7137	0	3.25381	11	-1.10461	0.0033664	0.000000000000000E+000	1.03583e+08	0.000000000000000E+000	0.000000000000000E+000	3.25381	3.25381	0.0000000E+000	0.000000000000000E+000	0.010709	2.17501
1	1	0	1	0	0	0	1180	10	1.07103	10.0038	11.8038	11.8038	0	3.27882	11	-1.105	0.00339318	0.000000000000000E+000	1.03801e+08	0.000000000000000E+000	0.000000000000000E+000	3.27882	3.27882	0.0000000E+000	0.000000000000000E+000	0.0107144	2.17604
1	1	0	1	0	0	0	1189	10	1.07159	10.0036	11.8938	11.8938	0	3.30383	11	-1.10502	0.00341997	0.000000000000000E+000	1.04086e+08	0.000000000000000E+000	0.000000000000000E+000	3.30383	3.30383	0.0000000E+000	0.000000000000000E+000	0.0107197	2.17661
1	1	0	1	0	0	0	1198	10	1.072	10.0033	11.9838	11.9838	0	3.32884	11	-1.10541	0.00344677	0.000000000000000E+000	1.04495e+08	0.000000000000000E+000	0.000000000000000E+000	3.32884	3.32884	0.0000000E+000	0.000000000000000E+000	0.0107235	2.17741
1	1	0	1	0	0	0	1207	10	1.0724	10.0034	12.0739	12.0739	0	3.35385	11	-1.10568	0.00347359	0.000000000000000E+000	1.04914e+08	0.000000000000000E+000	0.000000000000000E+000	3.35385	3.35385	0.0000000E+000	0.000000000000000E+000	0.0107276	2.17808
1	1	0	1	0	0	0	1216	10	1.07267	10.0038	12.1639	12.1639	0	3.37886	11	-1.10604	0.00350041	0.000000000000000E+000	1.05453e+08	0.000000000000000E+000	0.000000000000000E+000	3.37886	3.37886	0.0000000E+000	0.000000000000000E+000	0.0107307	2.17871
1	1	0	1	0	0	0	1225	10	1.07324	10.004	12.2539	12.2539	0	3.40387	11	-1.10632	0.00352725	0.000000000000000E+000	1.05711e+08	0.000000000000000E+000	0.000000000000000E+000	3.40387	3.40387	0.0000000E+000	0.000000000000000E+000	0.0107367	2.17956
1	1	0	1	0	0	0	1234	10	1.07372	10.0033	12.344	12.344	0	3.42888	11	-1.10664	0.0035541	0.000000000000000E+000	1.06044e+08	0.000000000000000E+000	0.000000000000000E+000	3.42888	3.42888	0.0000000E+000	0.000000000000000E+000	0.0107408	2.18036
1	1	0	1	0	0	0	1243	10	1.07396	10.0036	12.434	12.434	0	3.45389	11	-1.10675	0.00358095	0.000000000000000E+000	1.06604e+08	0.000000000000000E+000	0.000000000000000E+000	3.45389	3.45389	0.0000000E+000	0.000000000000000E+000	0.0107434	2.18071
1	1	0	1	0	0	0	1252	10	1.07446	10.0037	12.524	12.524	0	3.4789	11	-1.1072	0.00360782	0.000000000000000E+000	1.06911e+08	0.000000000000000E+000	0.000000000000000E+000	3.4789	3.4789	0.0000000E+000	0.000000000000000E+000	0.0107486	2.18166
1	1	0	1	0	0	0	1261	10	1.07486	10.0033	12.6141	12.6141	0	3.5039	11	-1.10747	0.00363469	0.000000000000000E+000	1.07317e+08	0.000000000000000E+000	0.000000000000000E+000	3.5039	3.5039	0.0000000E+000	0.000000000000000E+000	0.0107522	2.18233
1	1	0	1	0	0	0	1270	10	1.07522	10.0036	12.7041	12.7041	0	3.52891	11	-1.10772	0.00366158	0.000000000000000E+000	1.07755e+08	0.000000000000000E+000	0.000000000000000E+000	3.52891	3.52891	0.0000000E+000	0.000000000000000E+000	0.010756	2.18294
1	1	0	1	0	0	0	1279	10	1.07578	10.0029	12.7941	12.7941	0	3.55392	11	-1.10799	0.00368848	0.000000000000000E+000	1.07998e+08	0.000000000000000E+000	0.000000000000000E+000	3.55392	3.55392	0.0000000E+000	0.000000000000000E+000	0.0107609	2.18377
1	1	0	1	0	0	0	1288	10	1.07605	10.0033	12.8842	12.8842	0	3.57893	11	-1.10826	0.00371539	0.000000000000000E+000	1.08515e+08	0.000000000000000E+000	0.000000000000000E+000	3.57893	3.57893	0.0000000E+000	0.000000000000000E+000	0.010764	2.18431
1	1	0	1	0	0	0	1297	10	1.07665	10.0038	12.9742	12.9742	0	3.60394	11	-1.10856	0.00374231	0.000000000000000E+000	1.08725e+08	0.000000000000000E+000	0.000000000000000E+000	3.60394	3.60394	0.0000000E+000	0.000000000000000E+000	0.0107706	2.18521
1	1	0	1	0	0	0	1306	10	1.07699	10.0036	13.0642	13.0642	0	3.62895	11	-1.10871	0.00376923	0.000000000000000E+000	1.09167e+08	0.000000000000000E+000	0.000000000000000E+000	3.62895	3.62895	0.0000000E+000	0.000000000000000E+000	0.0107738	2.1857
1	1	0	1	0	0	0	1315	10	1.07698	10.0037	13.1543	13.1543	0	3.65396	11	-1.10895	0.00379616	0.000000000000000E+000	1.09933e+08	0.000000000000000E+000	0.000000000000000E+000	3.65396	3.65396	0.0000000E+000	0.000000000000000E+000	0.0107738	2.18593
1	1	0	1	0	0	0	1324	10	1.07742	10.0034	13.2443	13.2443	0	3.67897	11	-1.10953	0.0038231	0.000000000000000E+000	1.10276e+08	0.000000000000000E+000	0.000000000000000E+000	3.67897	3.67897	0.0000000E+000	0.000000000000000E+000	0.0107779	2.18695
1	1	0	1	0	0	0	1333	10	1.07798	10.0033	13.3343	13.3343	0	3.70398	11	-1.10956	0.00385005	0.000000000000000E+000	1.10514e+08	0.000000000000000E+000	0.000000000000000E+000	3.70398	3.70398	0.0000000E+000	0.000000000000000E+000	0.0107833	2.18754
1	1	0	1	0	0	0	1342	10	1.07832	10.0038	13.4243	13.4243	0	3.72899	11	-1.10996	0.00387701	0.000000000000000E+000	1.10945e+08	0.000000000000000E+000	0.000000000000000E+000	3.72899	3.72899	0.0000000E+000	0.000000000000000E+000	0.0107872	2.18828
1	1	0	1	0	0	0	1351	10	1.07833	10.0038	13.5144	13.5144	0	3.75399	11	-1.1102	0.00390398	0.000000000000000E+000	1.11683e+08	0.000000000000000E+000	0.000000000000000E+000	3.75399	3.75399	0.0000000E+000	0.000000000000000E+000	0.0107873	2.18852
1	1	0	1	0	0	0	1360	10	1.07866	10.004	13.6044	13.6044	0	3.779	11	-1.11039	0.00393096	0.000000000000000E+000	1.12115e+08	0.000000000000000E+000	0.000000000000000E+000	3.779	3.779	0.0000000E+000	0.000000000000000E+000	0.010791	2.18905
1	1	0	1	0	0	0	1369	10	1.07939	10.0036	13.6944	13.6944	0	3.80401	11	-1.11059	0.00395795	0.000000000000000E+000	1.12181e+08	0.000000000000000E+000	0.000000000000000E+000	3.80401	3.80401	0.0000000E+000	0.000000000000000E+000	0.0107979	2.18998
1	1	0	1	0	0	0	1378	10	1.07961	10.0038	13.7845	13.7845	0	3.82902	11	-1.1109	0.00398495	0.000000000000000E+000	1.12717e+08	0.000000000000000E+000	0.000000000000000E+000	3.82902	3.82902	0.0000000E+000	0.000000000000000E+000	0.0108002	2.19051
1	1	0	1	0	0	0	1387	10	1.08004	10.0036	13.8745	13.8745	0	3.85403	11	-1.11096	0.00401195	0.000000000000000E+000	1.13054e+08	0.000000000000000E+000	0.000000000000000E+000	3.85403	3.85403	0.0000000E+000	0.000000000000000E+000	0.0108044	2.191
1	1	0	1	0	0	0	1396	10	1.0805	10.0037	13.9645	13.9645	0	3.87904	11	-1.11123	0.00403897	0.000000000000000E+000	1.13367e+08	0.000000000000000E+000	0.000000000000000E+000	3.87904	3.87904	0.0000000E+000	0.000000000000000E+000	0.010809	2.19172
1	1	0	1	0	0	0	1405	10	1.0806	10.0036	14.0546	14.0546	0	3.90405	11	-1.11154	0.004066	0.000000000000000E+000	1.14004e+08	0.000000000000000E+000	0.000000000000000E+000	3.90405	3.90405	0.0000000E+000	0.000000000000000E+000	0.0108099	2.19214
1	1	0	1	0	0	0	1414	10	1.08136	10.0037	14.1446	14.1446	0	3.92906	11	-1.11178	0.00409303	0.000000000000000E+000	1.1403e+08	0.000000000000000E+000	0.000000000000000E+000	3.92906	3.92906	0.0000000E+000	0.000000000000000E+000	0.0108176	2.19314
1	1	0	1	0	0	0	1423	10	1.08158	10.004	14.2346	14.2346	0	3.95407	11	-1.11211	0.00412008	0.000000000000000E+000	1.14558e+08	0.000000000000000E+000	0.000000000000000E+000	3.95407	3.95407	0.0000000E+000	0.000000000000000E+000	0.01082	2.19369
1	1	0	1	0	0	0	1432	10	1.08176	10.0031	14.3247	14.3247	0	3.97908	11	-1.11223	0.00414714	0.000000000000000E+000	1.15108e+08	0.000000000000000E+000	0.000000000000000E+000	3.97908	3.97908	0.0000000E+000	0.000000000000000E+000	0.010821	2.19399
1	1	0	1	0	0	0	1441	10	1.08235	10.0045	14.4147	14.4147	0	4.00408	11	-1.11253	0.0041742	0.000000000000000E+000	1.15292e+08	0.000000000000000E+000	0.000000000000000E+000	4.00408	4.00408	0.0000000E+000	0.000000000000000E+000	0.0108284	2.19488
1	1	0	1	0	0	0	1450	10	1.08256	10.0038	14.5047	14.5047	0	4.02909	11	-1.11277	0.00420127	0.000000000000000E+000	1.15813e+08	0.000000000000000E+000	0.000000000000000E+000	4.02909	4.02909	0.0000000E+000	0.000000000000000E+000	0.0108298	2.19533
1	1	0	1	0	0	0	1459	10	1.08327	10.0033	14.5948	14.5948	0	4.0541	11	-1.11293	0.00422836	0.000000000000000E+000	1.15872e+08	0.000000000000000E+000	0.000000000000000E+000	4.0541	4.0541	0.0000000E+000	0.000000000000000E+000	0.0108363	2.1962
1	1	0	1	0	0	0	1468	10	1.08384	10.004	14.6848	14.6848	0	4.07911	11	-1.11322	0.00425545	0.000000000000000E+000	1.16064e+08	0.000000000000000E+000	0.000000000000000E+000	4.07911	4.07911	0.0000000E+000	0.000000000000000E+000	0.0108427	2.19706
1	1	0	1	0	0	0	1477	10	1.08429	10.0033	14.7748	14.7748	0	4.10412	11	-1.11356	0.00428256	0.000000000000000E+000	1.16364e+08	0.000000000000000E+000	0.000000000000000E+000	4.10412	4.10412	0.0000000E+000	0.000000000000000E+000	0.0108464	2.19785
1	1	0	1	0	0	0	1486	10	1.08511	10.0044	14.8649	14.8649	0	4.12913	11	-1.11362	0.00430968	0.000000000000000E+000	1.16321e+08	0.000000000000000E+000	0.000000000000000E+000	4.12913	4.12913	0.0000000E+000	0.000000000000000E+000	0.0108559	2.19873
1	1	0	1	0	0	0	1495	10	1.0851	10.0037	14.9549	14.9549	0	4.15414	11	-1.11391	0.00433682	0.000000000000000E+000	1.17035e+08	0.000000000000000E+000	0.000000000000000E+000	4.15414	4.15414	0.0000000E+000	0.000000000000000E+000	0.010855	2.19901
1	1	0	1	0	0	0	1504	10	1.08574	10.0037	15.0449	15.0449	0	4.17915	11	-1.11418	0.00436397	0.000000000000000E+000	1.17151e+08	0.000000000000000E+000	0.000000000000000E+000	4.17915	4.17915	0.0000000E+000	0.000000000000000E+000	0.0108614	2.19993
1	1	0	1	0	0	0	1513	10	1.08662	10.0035	15.135	15.135	0	4.20416	11	-1.11404	0.00439113	0.000000000000000E+000	1.17054e+08	0.000000000000000E+000	0.000000000000000E+000	4.20416	4.20416	0.0000000E+000	0.000000000000000E+000	0.01087	2.20065
1	1	0	1	0	0	0	1522	10	1.08696	10.0035	15.225	15.225	0	4.22917	11	-1.11462	0.00441831	0.000000000000000E+000	1.17438e+08	0.000000000000000E+000	0.000000000000000E+000	4.22917	4.22917	0.0000000E+000	0.000000000000000E+000	0.0108734	2.20159
1	1	0	1	0	0	0	1531	10	1.08753	10.0031	15.315	15.315	0	4.25418	11	-1.11473	0.0044455	0.000000000000000E+000	1.17616e+08	0.000000000000000E+000	0.000000000000000E+000	4.25418	4.25418	0.0000000E+000	0.000000000000000E+000	0.0108787	2.20226
1	1	0	1	0	0	0	1540	10	1.08814	10.004	15.4051	15.4051	0	4.27918	11	-1.11409	0.00447271	0.000000000000000E+000	1.17756e+08	0.000000000000000E+000	0.000000000000000E+000	4.27918	4.27918	0.0000000E+000	0.000000000000000E+000	0.0108857	2.20223
1	1	0	1	0	0	0	1549	10	1.08835	10.0043	15.4951	15.4951	0	4.30419	11	-1.11323	0.00449992	0.000000000000000E+000	1.18256e+08	0.000000000000000E+000	0.000000000000000E+000	4.30419	4.30419	0.0000000E+000	0.000000000000000E+000	0.0108881	2.20158
1	1	0	1	0	0	0	1558	10	1.08853	10.0036	15.5851	15.5851	0	4.3292	11	-1.114	0.00452715	0.000000000000000E+000	1.18783e+08	0.000000000000000E+000	0.000000000000000E+000	4.3292	4.3292	0.0000000E+000	0.000000000000000E+000	0.0108891	2.20252
1	1	0	1	0	0	0	1567	10	1.08929	10.0032	15.6752	15.6752	0	4.35421	11	-1.11422	0.00455438	0.000000000000000E+000	1.18775e+08	0.000000000000000E+000	0.000000000000000E+000	4.35421	4.35421	0.0000000E+000	0.000000000000000E+000	0.0108964	2.20351
1	1	0	1	0	0	0	1576	10	1.08973	10.0042	15.7652	15.7652	0	4.37922	11	-1.11442	0.00458163	0.000000000000000E+000	1.19058e+08	0.000000000000000E+000	0.000000000000000E+000	4.37922	4.37922	0.0000000E+000	0.000000000000000E+000	0.0109019	2.20416
1	1	0	1	0	0	0	1585	10	1.09023	10.0034	15.8552	15.8552	0	4.40423	11	-1.11479	0.00460889	0.000000000000000E+000	1.1929e+08	0.000000000000000E+000	0.000000000000000E+000	4.40423	4.40423	0.0000000E+000	0.000000000000000E+000	0.010906	2.20502
1	1	0	1	0	0	0	1594	10	1.09063	10.0032	15.9453	15.9453	0	4.42924	11	-1.1149	0.00463617	0.000000000000000E+000	1.1961e+08	0.000000000000000E+000	0.000000000000000E+000	4.42924	4.42924	0.0000000E+000	0.000000000000000E+000	0.0109098	2.20553
1	1	0	1	0	0	0	1603	10	1.09099	10.0038	16.0353	16.0353	0	4.45425	11	-1.1152	0.00466345	0.000000000000000E+000	1.19963e+08	0.000000000000000E+000	0.000000000000000E+000	4.45425	4.45425	0.0000000E+000	0.000000000000000E+000	0.0109141	2.20619
1	1	0	1	0	0	0	1612	10	1.09143	10.0029	16.1253	16.1253	0	4.47926	11	-1.11551	0.00469073	0.000000000000000E+000	1.20241e+08	0.000000000000000E+000	0.000000000000000E+000	4.47926	4.47926	0.0000000E+000	0.000000000000000E+000	0.0109174	2.20694
1	1	0	1	0	0	0	1621	10	1.09169	10.0038	16.2154	16.2154	0	4.50426	11	-1.11561	0.00471803	0.000000000000000E+000	1.20674e+08	0.000000000000000E+000	0.000000000000000E+000	4.50426	4.50426	0.0000000E+000	0.000000000000000E+000	0.0109211	2.2073
1	1	0	1	0	0	0	1630	10	1.09244	10.0037	16.3054	16.3054	0	4.52927	11	-1.11585	0.00474534	0.000000000000000E+000	1.2067e+08	0.000000000000000E+000	0.000000000000000E+000	4.52927	4.52927	0.0000000E+000	0.000000000000000E+000	0.0109285	2.20829
1	1	0	1	0	0	0	1639	10	1.09309	10.0042	16.3954	16.3954	0	4.55428	11	-1.11617	0.00477267	0.000000000000000E+000	1.2076e+08	0.000000000000000E+000	0.000000000000000E+000	4.55428	4.55428	0.0000000E+000	0.000000000000000E+000	0.0109355	2.20926
1	1	0	1	0	0	0	1648	10	1.09371	10.0038	16.4855	16.4855	0	4.57929	11	-1.11636	0.00480001	0.000000000000000E+000	1.20865e+08	0.000000000000000E+000	0.000000000000000E+000	4.57929	4.57929	0.0000000E+000	0.000000000000000E+000	0.0109413	2.21007
1	1	0	1	0	0	0	1657	10	1.09408	10.0036	16.5755	16.5755	0	4.6043	11	-1.1168	0.00482737	0.000000000000000E+000	1.21198e+08	0.000000000000000E+000	0.000000000000000E+000	4.6043	4.6043	0.0000000E+000	0.000000000000000E+000	0.0109447	2.21088
1	1	0	1	0	0	0	1666	10	1.09439	10.0033	16.6655	16.6655	0	4.62931	11	-1.11697	0.00485474	0.000000000000000E+000	1.21586e+08	0.000000000000000E+000	0.000000000000000E+000	4.62931	4.62931	0.0000000E+000	0.000000000000000E+000	0.0109475	2.21136
1	1	0	1	0	0	0	1675	10	1.09487	10.0044	16.7555	16.7555	0	4.65432	11	-1.11718	0.00488211	0.000000000000000E+000	1.21812e+08	0.000000000000000E+000	0.000000000000000E+000	4.65432	4.65432	0.0000000E+000	0.000000000000000E+000	0.0109535	2.21205
1	1	0	1	0	0	0	1684	10	1.09551	10.0033	16.8456	16.8456	0	4.67933	11	-1.11756	0.0049095	0.000000000000000E+000	1.21897e+08	0.000000000000000E+000	0.000000000000000E+000	4.67933	4.67933	0.0000000E+000	0.000000000000000E+000	0.0109587	2.21307
1	1	0	1	0	0	0	1693	10	1.09583	10.0036	16.9356	16.9356	0	4.70434	11	-1.11766	0.0049369	0.000000000000000E+000	1.22272e+08	0.000000000000000E+000	0.000000000000000E+000	4.70434	4.70434	0.0000000E+000	0.000000000000000E+000	0.0109622	2.21348
1	1	0	1	0	0	0	1693.4	10	5.26533	10.0033	16.9396	16.9396	0	4.70546	11	3.05387	0.00493804	0.000000000000000E+000	3.93213e+06	0.000000000000000E+000	0.000000000000000E+000	4.70546	4.70546	0.0000000E+000	0.000000000000000E+000	0.0526704	2.21145