File: Data_Lola/CoNiFeNx_400ºC_24h_13102022/Electrodes_20012023/Set 2/2023_01_23_CoNiFeNx_400ºC_24h_electrode2_set2_20012023_1_01_CV_C02.mpt
EC-Lab ASCII FILE
Nb header lines : 57

Cyclic Voltammetry

Run on channel : 2 (SN 12477)
User :
CE vs. WE compliance from -10 V to 10 V
Electrode connection : standard
Potential control : Ewe
Ewe ctrl range : min = -2.50 V, max = 2.50 V
Safety Limits :
	Do not start on E overload
Acquisition started on : 01/23/2023 12:38:23.307
Loaded Setting File :  C:\Users\grupogalan\Documents\EC-Lab\Data\Lole Jurado\2023_01_23_CoNiFeNx_400ºC_24h_electrode1__set2_20012023_1.mps
Saved on :
	File : 2023_01_23_CoNiFeNx_400ºC_24h_electrode2_set2_20012023_1_01_CV_C02.mpr
	Directory : C:\Users\grupogalan\Documents\EC-Lab\Data\Lole Jurado\
	Host : 169.254.104.159
Device : VSP (SN 1176)
Address : USB
EC-Lab for windows v11.46 (software)
Internet server v11.40 (firmware)
Command interpretor v11.40 (firmware)
Electrode material :
Initial state :
Electrolyte :
Comments :
Electrode surface area : 0.000 cm²
Characteristic mass : 0.001 g
Equivalent Weight : 0.000 g/eq.
Density : 0.000 g/cm3
Volume (V) : 0.001 cm³
Cycle Definition : Charge/Discharge alternance
Ei (V)              0.000
vs.                 Eoc
dE/dt               10.000
dE/dt unit          mV/s
E1 (V)              1.000
vs.                 Ref
Step percent        50
N                   10
E range min (V)     -2.500
E range max (V)     2.500
I Range             Auto
I Range min         Unset
I Range max         Unset
I Range init        Unset
Bandwidth           5
E2 (V)              0.000
vs.                 Ref
nc cycles           2
Reverse Scan        1
Ef (V)              0.000
vs.                 Eoc

mode	ox/red	error	control changes	counter inc.	time/s	control/V	Ewe/V	<I>/mA	cycle number	(Q-Qo)/C	I Range	P/W
2	1	0	1	0	0.000000000000000E+000	-0.16757	-0.168543	0.000535691	1	0.0000000E+000	14	-9.02869e-08
2	0	0	1	0	0.8553	-0.159018	-0.15988	0.00234595	1	1.3835e-06	14	-3.75069e-07
2	1	0	1	0	1.7555	-0.150017	-0.150427	0.0040805	1	4.26938e-06	14	-6.13819e-07
2	1	0	1	0	2.6558	-0.141014	-0.141228	0.0062505	1	8.87845e-06	14	-8.82746e-07
2	1	0	0	0	3.586	-0.131712	-0.131912	0.00849311	1	1.61481e-05	13	-1.12034e-06
2	1	0	1	0	4.4862	-0.12271	-0.123479	0.0126664	1	2.61936e-05	13	-1.56404e-06
2	1	0	0	0	5.3864	-0.113707	-0.114427	0.0178776	1	4.02665e-05	13	-2.04569e-06
2	1	0	1	0	6.2866	-0.104705	-0.105131	0.0224663	1	5.88488e-05	13	-2.36192e-06
2	1	0	0	0	7.1868	-0.0957032	-0.095686	0.0263085	1	8.14156e-05	13	-2.51735e-06
2	1	0	1	0	8.087	-0.0867011	-0.0871209	0.0290236	1	0.000107164	13	-2.52856e-06
2	1	0	0	0	8.9872	-0.077699	-0.0780148	0.0308769	1	0.000134917	13	-2.40886e-06
2	1	0	1	0	9.8874	-0.0686969	-0.0694105	0.0314958	1	0.000163413	13	-2.18614e-06
2	1	0	0	0	10.7876	-0.0596947	-0.0602651	0.0309121	1	0.000191793	13	-1.86292e-06
2	1	0	1	0	11.6878	-0.0506926	-0.0510732	0.0294725	1	0.00021936	13	-1.50526e-06
2	1	0	0	0	12.588	-0.0416905	-0.0417444	0.027898	1	0.00024578	13	-1.16458e-06
2	1	0	1	0	13.4882	-0.0326884	-0.0328123	0.0270197	1	0.000271118	13	-8.86578e-07
2	1	0	0	0	14.3884	-0.0236863	-0.0237094	0.0261945	1	0.000295483	13	-6.21056e-07
2	1	0	1	0	15.2886	-0.0146842	-0.0152366	0.0253272	1	0.000318754	13	-3.85899e-07
2	1	0	1	0	16.1889	-0.00568183	-0.00631827	0.0242611	1	0.000341407	13	-1.53288e-07
2	1	0	1	0	17.0891	0.0033194	0.0031696	0.0230428	1	0.000363153	13	7.30367e-08
2	1	0	1	0	17.9894	0.0123222	0.0122492	0.0223678	1	0.000384177	13	2.73988e-07
2	1	0	0	0	18.8896	0.0213243	0.0206584	0.0219443	1	0.00040459	13	4.53333e-07
2	1	0	1	0	19.7898	0.0303264	0.0293762	0.0214036	1	0.000424378	13	6.28757e-07
2	1	0	0	0	20.69	0.0393285	0.0387273	0.0202685	1	0.000443287	13	7.84945e-07
2	1	0	1	0	21.5902	0.0483306	0.0479988	0.0189759	1	0.000461409	13	9.10819e-07
2	1	0	0	0	22.4904	0.0573327	0.0572958	0.0180869	1	0.00047883	13	1.0363e-06
2	1	0	1	0	23.3906	0.0663348	0.066159	0.0178039	1	0.000495568	13	1.17789e-06
2	1	0	0	0	24.2908	0.075337	0.0749086	0.0175288	1	0.000511772	13	1.31306e-06
2	1	0	1	0	25.191	0.0843391	0.0834292	0.0170083	1	0.000527444	13	1.41899e-06
2	1	0	0	0	26.0912	0.0933412	0.0929786	0.016432	1	0.000542803	13	1.52782e-06
2	1	0	1	0	26.9914	0.102343	0.102183	0.0158518	1	0.000557932	13	1.61979e-06
2	1	0	0	0	27.8916	0.111345	0.111158	0.0157401	1	0.000572878	13	1.74964e-06
2	1	0	1	0	28.7918	0.120347	0.11969	0.0162086	1	0.00058772	13	1.94001e-06
2	1	0	0	0	29.692	0.12935	0.128822	0.0165369	1	0.000602712	13	2.13031e-06
2	1	0	1	0	30.5922	0.138352	0.137598	0.0166512	1	0.000617905	13	2.29117e-06
2	1	0	1	0	31.4925	0.147355	0.147114	0.0169134	1	0.000633509	13	2.4882e-06
2	1	0	1	0	32.3927	0.156356	0.156222	0.0176358	1	0.000649807	13	2.75511e-06
2	1	0	1	0	33.293	0.165358	0.165173	0.0190505	1	0.000666947	13	3.14661e-06
2	1	0	0	0	34.1932	0.17436	0.173758	0.0206388	1	0.000685108	13	3.58615e-06
2	1	0	1	0	35.0934	0.183362	0.182921	0.0216529	1	0.000704368	13	3.96077e-06
2	1	0	0	0	35.9936	0.192364	0.191828	0.0224222	1	0.00072466	13	4.3012e-06
2	1	0	1	0	36.8938	0.201367	0.200966	0.0229622	1	0.000745853	13	4.61461e-06
2	1	0	0	0	37.794	0.210369	0.210382	0.024076	1	0.000767884	13	5.06514e-06
2	1	0	1	0	38.6942	0.219371	0.21886	0.0252554	1	0.000790745	13	5.52739e-06
2	1	0	0	0	39.5944	0.228373	0.227932	0.0264018	1	0.000814405	13	6.01782e-06
2	1	0	1	0	40.4946	0.237375	0.237037	0.02678	1	0.000838825	13	6.34784e-06
2	1	0	0	0	41.3948	0.246377	0.246285	0.0272794	1	0.000863993	13	6.71851e-06
2	1	0	1	0	42.295	0.255379	0.255486	0.0281283	1	0.000890055	13	7.18641e-06
2	1	0	0	0	43.1952	0.264381	0.26401	0.0295795	1	0.000917105	13	7.80928e-06
2	1	0	1	0	44.0954	0.273383	0.272661	0.0311233	1	0.000945306	13	8.48611e-06
2	1	0	0	0	44.9956	0.282386	0.281685	0.0325756	1	0.000974611	13	9.17606e-06
2	1	0	1	0	45.8958	0.291388	0.290934	0.0336565	1	0.00100525	13	9.79181e-06
2	1	0	0	0	46.796	0.30039	0.300516	0.0351194	1	0.00103738	13	1.05539e-05
2	1	0	1	0	47.6963	0.309392	0.308634	0.0371287	1	0.00107127	13	1.14592e-05
2	1	0	1	0	48.5966	0.318394	0.317657	0.0399119	1	0.0011072	13	1.26783e-05
2	1	0	0	0	49.4968	0.327396	0.326764	0.0429141	1	0.00114549	13	1.40228e-05
2	1	0	1	0	50.397	0.336398	0.33595	0.0460131	1	0.00118653	13	1.54581e-05
2	1	0	0	0	51.2972	0.3454	0.345197	0.0494148	1	0.00123088	13	1.70578e-05
2	1	0	1	0	52.1974	0.354402	0.354488	0.0536206	1	0.00127905	13	1.90079e-05
2	1	0	0	0	53.0976	0.363405	0.362976	0.0590912	1	0.00133168	13	2.14487e-05
2	1	0	1	0	53.9978	0.372407	0.372353	0.0652403	1	0.00138934	13	2.42924e-05
2	1	0	0	0	54.898	0.381409	0.381046	0.0722273	1	0.00145276	13	2.75219e-05
2	1	0	1	0	55.7982	0.390411	0.389648	0.0795171	1	0.00152272	13	3.09837e-05
2	1	0	0	0	56.6984	0.399413	0.399549	0.0876204	1	0.00160003	13	3.50086e-05
2	1	0	1	0	57.5986	0.408415	0.40814	0.0969437	1	0.00168557	13	3.95667e-05
2	1	0	0	0	58.5288	0.417717	0.41679	0.110362	1	0.00178384	12	4.59977e-05
2	1	0	1	0	59.429	0.426719	0.425657	0.122323	1	0.00188931	12	5.20676e-05
2	1	0	0	0	60.3292	0.435722	0.435406	0.135397	1	0.00200624	12	5.89524e-05
2	1	0	1	0	61.2294	0.444724	0.444446	0.150389	1	0.00213611	12	6.68396e-05
2	1	0	1	0	62.1297	0.453726	0.45315	0.167596	1	0.00228052	12	7.59462e-05
2	1	0	1	0	63.0299	0.462727	0.46242	0.187099	1	0.0024413	12	8.65181e-05
2	1	0	1	0	63.9302	0.47173	0.470866	0.208728	1	0.00262055	12	9.82827e-05
2	1	0	0	0	64.8304	0.480732	0.48021	0.232061	1	0.00282029	12	0.000111438
2	1	0	1	0	65.7306	0.489734	0.489395	0.256283	1	0.00304171	12	0.000125424
2	1	0	0	0	66.6308	0.498736	0.498253	0.28089	1	0.00328537	12	0.000139954
2	1	0	1	0	67.531	0.507738	0.507298	0.306092	1	0.00355149	12	0.00015528
2	1	0	0	0	68.4312	0.516741	0.516185	0.332347	1	0.00384058	12	0.000171553
2	1	0	1	0	69.3314	0.525743	0.524921	0.358707	1	0.00415331	12	0.000188293
2	1	0	0	0	70.2316	0.534745	0.534072	0.385915	1	0.00449046	12	0.000206107
2	1	0	1	0	71.1318	0.543747	0.543263	0.414358	1	0.00485303	12	0.000225105
2	1	0	0	0	72.032	0.552749	0.552341	0.44479	1	0.0052421	12	0.000245675
2	1	0	1	0	72.9322	0.561751	0.561096	0.476639	1	0.00565908	12	0.00026744
2	1	0	0	0	73.8324	0.570753	0.570287	0.509986	1	0.00610528	12	0.000290838
2	1	0	1	0	74.7326	0.579755	0.579368	0.545767	1	0.00658264	12	0.0003162
2	1	0	0	0	75.6328	0.588757	0.588763	0.584317	1	0.00709369	12	0.000344024
2	1	0	1	0	76.533	0.597759	0.597718	0.628363	1	0.00764218	12	0.000375584
2	1	0	0	0	77.4332	0.606762	0.606283	0.681983	1	0.00823426	12	0.000413475
2	1	0	1	0	78.3335	0.615764	0.614913	0.748744	1	0.00888004	12	0.000460412
2	1	0	1	0	79.2337	0.624765	0.624355	0.840932	1	0.00959631	12	0.000525041
2	1	0	0	0	80.134	0.633768	0.633388	0.970329	1	0.0104117	12	0.000614595
2	1	0	1	0	81.0642	0.64307	0.64265	1.16263	1	0.0114033	11	0.000747166
2	1	0	0	0	81.9644	0.652072	0.651301	1.42251	1	0.0125653	11	0.000926481
2	1	0	1	0	82.8646	0.661074	0.66049	1.76814	1	0.0139982	11	0.00116784
2	1	0	0	0	83.7648	0.670076	0.66932	2.20934	1	0.0157849	11	0.00147875
2	1	0	1	0	84.665	0.679079	0.678646	2.75347	1	0.0180157	11	0.00186863
2	1	0	0	0	85.5652	0.688081	0.688114	3.40191	1	0.0207842	11	0.0023409
2	1	0	1	0	86.4654	0.697083	0.697015	4.15892	1	0.0241856	11	0.00289883
2	1	0	0	0	87.3656	0.706085	0.705638	5.01821	1	0.028314	11	0.00354104
2	1	0	1	0	88.2658	0.715087	0.714561	5.97924	1	0.0332624	11	0.00427253
2	1	0	0	0	89.166	0.724089	0.723724	7.04119	1	0.0391226	11	0.00509588
2	1	0	1	0	90.0662	0.733091	0.73296	8.19953	1	0.0459822	11	0.00600993
2	1	0	0	0	90.9664	0.742093	0.741565	9.4498	1	0.0539274	11	0.00700764
2	1	0	1	0	91.8666	0.751095	0.750517	10.7943	1	0.0630415	11	0.00810128
2	1	0	1	0	92.7969	0.760398	0.759695	12.2904	1	0.0737796	10	0.00933699
2	1	0	1	0	93.6971	0.7694	0.769136	13.8075	1	0.0855266	10	0.0106199
2	1	0	1	0	94.5974	0.778402	0.778065	15.4083	1	0.098685	10	0.0119887
2	1	0	0	0	95.4976	0.787404	0.787248	17.0968	1	0.11332	10	0.0134594
2	1	0	1	0	96.3978	0.796406	0.796098	18.8585	1	0.129507	10	0.0150132
2	1	0	0	0	97.298	0.805408	0.805353	20.6882	1	0.147311	10	0.0166613
2	1	0	1	0	98.1982	0.81441	0.813671	22.5802	1	0.166793	10	0.0183729
2	1	0	0	0	99.0984	0.823412	0.823141	24.547	1	0.188015	10	0.0202056
2	1	0	1	0	99.9986	0.832415	0.832047	26.5777	1	0.21103	10	0.0221139
2	1	0	0	0	100.899	0.841417	0.841066	28.6627	1	0.235908	10	0.0241072
2	1	0	1	0	101.799	0.850419	0.850207	30.8335	1	0.262689	10	0.0262149
2	1	0	0	0	102.699	0.859421	0.858965	33.0413	1	0.291439	10	0.0283813
2	1	0	1	0	103.599	0.868423	0.867987	35.3052	1	0.322203	10	0.0306444
2	1	0	0	0	104.5	0.877425	0.877291	37.6575	1	0.355055	10	0.0330365
2	1	0	1	0	105.4	0.886427	0.886227	40.0216	1	0.390025	10	0.0354682
2	1	0	0	0	106.3	0.895429	0.895191	42.42	1	0.427135	10	0.037974
2	1	0	1	0	107.2	0.904431	0.903942	44.838	1	0.46642	10	0.0405309
2	1	0	0	0	108.1	0.913433	0.91265	47.3096	1	0.507904	10	0.0431771
2	1	0	1	0	109.001	0.922435	0.922594	49.8854	1	0.551663	10	0.046024
2	1	0	1	0	109.901	0.931438	0.931108	52.3833	1	0.597719	10	0.0487746
2	1	0	0	0	110.801	0.94044	0.940089	55.1338	1	0.64614	10	0.0518307
2	1	0	1	0	111.701	0.949442	0.948954	57.7841	1	0.696959	10	0.0548345
2	1	0	0	0	112.602	0.958444	0.9581	60.4143	1	0.750139	10	0.057883
2	1	0	1	0	113.502	0.967446	0.96734	63.1488	1	0.805776	10	0.0610864
2	1	0	0	0	114.402	0.976448	0.976236	65.8948	1	0.863906	10	0.0643289
2	1	0	1	0	115.302	0.98545	0.985218	68.7258	1	0.924451	10	0.0677099
2	1	0	0	0	116.202	0.994453	0.993987	71.537	1	0.987564	10	0.0711068
2	1	0	0	0	117.013	0.997453	0.997154	72.1128	1	1.04626	10	0.0719076
2	1	0	1	0	117.913	0.988451	0.98823	68.9476	1	1.10971	10	0.0681361
2	1	0	0	0	118.814	0.979449	0.978807	65.7298	1	1.17029	10	0.0643367
2	1	0	1	0	119.714	0.970447	0.970151	62.8194	1	1.22813	10	0.0609443
2	1	0	0	0	120.614	0.961445	0.961379	59.6926	1	1.28326	10	0.0573872
2	1	0	1	0	121.514	0.952443	0.951993	56.756	1	1.33565	10	0.0540314
2	1	0	0	0	122.414	0.943441	0.943087	53.8855	1	1.38541	10	0.0508187
2	1	0	1	0	123.315	0.934439	0.934114	51.1234	1	1.43268	10	0.0477551
2	1	0	0	0	124.215	0.925436	0.924999	48.4448	1	1.47748	10	0.0448114
2	1	0	1	0	125.115	0.916434	0.916275	45.812	1	1.51989	10	0.0419764
2	1	0	0	0	126.015	0.907432	0.907444	43.257	1	1.55996	10	0.0392533
2	1	0	1	0	126.915	0.89843	0.897899	40.8214	1	1.59778	10	0.0366535
2	1	0	0	0	127.816	0.889428	0.88876	38.4287	1	1.63343	10	0.0341539
2	1	0	1	0	128.716	0.880426	0.879898	36.223	1	1.667	10	0.0318725
2	1	0	1	0	129.616	0.871423	0.871024	34.0135	1	1.69858	10	0.0296266
2	1	0	1	0	130.516	0.862422	0.862177	31.9643	1	1.72832	10	0.0275589
2	1	0	1	0	131.417	0.853419	0.853258	29.8848	1	1.75613	10	0.0254995
2	1	0	0	0	132.317	0.844417	0.843756	27.8545	1	1.78209	10	0.0235024
2	1	0	1	0	133.217	0.835415	0.834754	25.89	1	1.80627	10	0.0216117
2	1	0	0	0	134.117	0.826413	0.825881	24.0116	1	1.82871	10	0.0198307
2	1	0	1	0	135.017	0.817411	0.817471	22.1898	1	1.84949	10	0.0181395
2	1	0	0	0	135.918	0.808409	0.808046	20.4602	1	1.86868	10	0.0165328
2	1	0	1	0	136.818	0.799407	0.799159	18.7821	1	1.88632	10	0.0150099
2	1	0	0	0	137.718	0.790405	0.789848	17.1917	1	1.9025	10	0.0135788
2	1	0	1	0	138.618	0.781403	0.780731	15.6676	1	1.91727	10	0.0122322
2	1	0	0	0	139.518	0.772401	0.772175	14.2126	1	1.9307	10	0.0109746
2	1	0	1	0	140.419	0.763398	0.763175	12.8305	1	1.94287	10	0.00979188
2	1	0	0	0	141.319	0.754396	0.754175	11.5306	1	1.95382	10	0.0086961
2	1	0	1	0	142.219	0.745394	0.744458	10.3052	1	1.96363	10	0.00767182
2	1	0	0	0	143.119	0.736392	0.735827	9.14009	1	1.97237	10	0.00672552
2	1	0	1	0	144.019	0.72739	0.726688	8.05854	1	1.9801	10	0.00585605
2	1	0	1	0	144.92	0.718387	0.718094	7.05531	1	1.98689	10	0.00506638
2	1	0	1	0	145.82	0.709387	0.708907	6.1245	1	1.99281	10	0.0043417
2	1	0	1	0	146.72	0.700384	0.699561	5.26861	1	1.99793	10	0.00368571
2	1	0	0	0	147.635	0.691231	0.690525	4.47224	1	2.00237	10	0.00308819
2	1	0	1	0	148.551	0.682079	0.681559	3.74634	1	2.00612	11	0.00255335
2	1	0	0	0	149.451	0.673077	0.673222	3.11301	1	2.0092	11	0.00209574
2	1	0	1	0	150.351	0.664075	0.663476	2.55239	1	2.01174	11	0.00169345
2	1	0	0	0	151.251	0.655073	0.65437	2.06102	1	2.0138	11	0.00134867
2	1	0	1	0	152.151	0.646071	0.64539	1.63469	1	2.01546	11	0.00105501
2	1	0	0	0	153.052	0.637069	0.636937	1.27093	1	2.01676	11	0.000809504
2	1	0	1	0	153.952	0.628067	0.627907	0.969745	1	2.01776	11	0.000608909
2	1	0	0	0	154.852	0.619064	0.61891	0.724609	1	2.01851	11	0.000448468
2	1	0	1	0	155.752	0.610062	0.609753	0.530399	1	2.01907	11	0.000323412
2	1	0	0	0	156.682	0.60076	0.599904	0.369514	1	2.01948	12	0.000221673
2	1	0	1	0	157.583	0.591758	0.591261	0.252699	1	2.01975	12	0.000149411
2	1	0	0	0	158.483	0.582756	0.582008	0.166474	1	2.01994	12	9.68893e-05
2	1	0	1	0	159.383	0.573753	0.573389	0.103341	1	2.02005	12	5.92548e-05
2	1	0	1	0	160.283	0.564752	0.564488	0.0569931	1	2.02012	12	3.21719e-05
2	1	0	0	0	161.214	0.55545	0.554542	0.0188086	1	2.02015	13	1.04302e-05
2	0	0	1	0	162.114	0.546448	0.545595	-0.00641534	1	2.02016	13	-3.50018e-06
2	0	0	0	0	163.014	0.537445	0.537149	-0.0261742	1	2.02014	13	-1.40595e-05
2	0	0	1	0	163.914	0.528443	0.528098	-0.0409222	1	2.02011	13	-2.16109e-05
2	0	0	0	0	164.814	0.519441	0.519057	-0.0525561	1	2.02007	13	-2.72796e-05
2	0	0	1	0	165.715	0.510439	0.509424	-0.0617345	1	2.02001	13	-3.14491e-05
2	0	0	0	0	166.615	0.501437	0.500796	-0.0692339	1	2.01995	13	-3.46721e-05
2	0	0	1	0	167.515	0.492435	0.491544	-0.0760032	1	2.01989	13	-3.73589e-05
2	0	0	0	0	168.415	0.483433	0.483279	-0.0819857	1	2.01982	13	-3.9622e-05
2	0	0	1	0	169.315	0.474431	0.474272	-0.0862721	1	2.01974	13	-4.09164e-05
2	0	0	0	0	170.216	0.465428	0.465013	-0.0895804	1	2.01966	13	-4.1656e-05
2	0	0	1	0	171.116	0.456426	0.455808	-0.0922346	1	2.01958	13	-4.20413e-05
2	0	0	0	0	172.016	0.447424	0.446745	-0.0947009	1	2.01949	13	-4.23072e-05
2	0	0	1	0	172.946	0.438122	0.437843	-0.0958756	1	2.0194	12	-4.19785e-05
2	0	0	0	0	173.846	0.42912	0.428866	-0.0969496	1	2.01931	12	-4.15784e-05
2	0	0	1	0	174.747	0.420118	0.419684	-0.0980127	1	2.01922	12	-4.11344e-05
2	0	0	1	0	175.647	0.411116	0.410463	-0.0995744	1	2.01913	12	-4.08716e-05
2	0	0	0	0	176.547	0.402114	0.401505	-0.100697	1	2.01904	12	-4.04304e-05
2	0	0	1	0	177.447	0.393111	0.39286	-0.101261	1	2.01895	12	-3.97815e-05
2	0	0	0	0	178.348	0.384109	0.383702	-0.101169	1	2.01885	12	-3.88187e-05
2	0	0	1	0	179.248	0.375107	0.375367	-0.101057	1	2.01876	12	-3.79334e-05
2	0	0	0	0	180.148	0.366105	0.365957	-0.101355	1	2.01867	12	-3.70916e-05
2	0	0	1	0	181.048	0.357103	0.356392	-0.101705	1	2.01858	12	-3.62468e-05
2	0	0	0	0	181.948	0.348101	0.347542	-0.101807	1	2.01848	12	-3.53823e-05
2	0	0	1	0	182.849	0.339099	0.338607	-0.101792	1	2.01839	12	-3.44675e-05
2	0	0	0	0	183.749	0.330097	0.329364	-0.10136	1	2.0183	12	-3.33842e-05
2	0	0	1	0	184.649	0.321095	0.320705	-0.100518	1	2.01821	12	-3.22366e-05
2	0	0	0	0	185.549	0.312093	0.311456	-0.0990047	1	2.01811	12	-3.08356e-05
2	0	0	1	0	186.449	0.30309	0.302527	-0.0970306	1	2.01803	12	-2.93544e-05
2	0	0	0	0	187.35	0.294088	0.293339	-0.0945201	1	2.01794	12	-2.77265e-05
2	0	0	1	0	188.25	0.285086	0.284794	-0.0917522	1	2.01785	12	-2.61305e-05
2	0	0	0	0	189.15	0.276084	0.275823	-0.0888331	1	2.01777	12	-2.45022e-05
2	0	0	1	0	190.05	0.267081	0.266895	-0.0860663	1	2.01769	12	-2.29706e-05
2	0	0	1	0	190.95	0.25808	0.257449	-0.0829961	1	2.01762	12	-2.13673e-05
2	0	0	0	0	191.851	0.249078	0.248583	-0.0797905	1	2.01754	12	-1.98346e-05
2	0	0	1	0	192.751	0.240076	0.239714	-0.076734	1	2.01747	12	-1.83942e-05
2	0	0	0	0	193.651	0.231073	0.230957	-0.0737018	1	2.0174	12	-1.70219e-05
2	0	0	1	0	194.551	0.222071	0.221952	-0.0707277	1	2.01734	12	-1.56981e-05
2	0	0	0	0	195.452	0.213069	0.212425	-0.0679562	1	2.01727	12	-1.44356e-05
2	0	0	1	0	196.352	0.204067	0.203252	-0.0650526	1	2.01721	12	-1.3222e-05
2	0	0	0	0	197.252	0.195065	0.194348	-0.0621659	1	2.01715	12	-1.20818e-05
2	0	0	1	0	198.152	0.186063	0.185428	-0.0593539	1	2.0171	12	-1.10058e-05
2	0	0	0	0	199.052	0.177061	0.176524	-0.0569116	1	2.01705	12	-1.00463e-05
2	0	0	1	0	199.953	0.168059	0.167603	-0.0546105	1	2.01699	12	-9.15287e-06
2	0	0	0	0	200.853	0.159057	0.15814	-0.0524169	1	2.01695	12	-8.28922e-06
2	0	0	1	0	201.753	0.150055	0.149192	-0.050165	1	2.0169	12	-7.48422e-06
2	0	0	0	0	202.653	0.141052	0.140802	-0.0480442	1	2.01685	12	-6.76472e-06
2	0	0	1	0	203.553	0.13205	0.131788	-0.0461213	1	2.01681	12	-6.07826e-06
2	0	0	0	0	204.454	0.123048	0.122615	-0.0444249	1	2.01677	12	-5.44718e-06
2	0	0	1	0	205.384	0.113746	0.113477	-0.0431269	1	2.01673	13	-4.8939e-06
2	0	0	1	0	206.284	0.104744	0.104239	-0.0414157	1	2.01669	13	-4.31713e-06
2	0	0	0	0	207.184	0.0957417	0.0949844	-0.0398231	1	2.01665	13	-3.78258e-06
2	0	0	1	0	208.085	0.0867396	0.086345	-0.038577	1	2.01662	13	-3.33093e-06
2	0	0	0	0	208.985	0.0777375	0.07731	-0.0375753	1	2.01658	13	-2.90495e-06
2	0	0	1	0	209.885	0.0687354	0.0682719	-0.0365704	1	2.01655	13	-2.49673e-06
2	0	0	0	0	210.785	0.0597333	0.0591064	-0.0354552	1	2.01652	13	-2.09563e-06
2	0	0	1	0	211.685	0.0507312	0.0498943	-0.0343359	1	2.01649	13	-1.71316e-06
2	0	0	0	0	212.586	0.0417291	0.040872	-0.033448	1	2.01645	13	-1.36709e-06
2	0	0	1	0	213.486	0.032727	0.0326188	-0.0328035	1	2.01642	13	-1.07001e-06
2	0	0	0	0	214.386	0.0237248	0.0234035	-0.0322086	1	2.0164	13	-7.53793e-07
2	0	0	1	0	215.286	0.0147227	0.0145127	-0.0314626	1	2.01637	13	-4.56609e-07
2	0	0	0	0	216.186	0.00572063	0.00512878	-0.0306033	1	2.01634	13	-1.56958e-07
2	0	0	1	1	216.917	0.00151964	0.00106844	-0.0285591	2	2.01632	13	-3.05137e-08
2	0	0	0	1	217.817	0.0105218	0.0098128	-0.0250688	2	2.01629	13	-2.45995e-07
2	0	0	1	1	218.717	0.0195239	0.0188764	-0.0227327	2	2.01627	13	-4.29112e-07
2	0	0	1	1	219.618	0.028526	0.0280438	-0.0210143	2	2.01625	13	-5.8932e-07
2	0	0	0	1	220.518	0.0375281	0.0373463	-0.0196957	2	2.01623	13	-7.35561e-07
2	0	0	1	1	221.418	0.0465302	0.0462232	-0.0183755	2	2.01622	13	-8.49377e-07
2	0	0	0	1	222.318	0.0555323	0.0549814	-0.017037	2	2.0162	13	-9.36719e-07
2	0	0	1	1	223.219	0.0645344	0.0642656	-0.0157855	2	2.01619	13	-1.01447e-06
2	0	0	0	1	224.119	0.0735365	0.0727533	-0.0148124	2	2.01617	13	-1.07765e-06
2	0	0	1	1	225.019	0.0825386	0.0824067	-0.014065	2	2.01616	13	-1.15905e-06
2	0	0	0	1	225.919	0.0915408	0.0917482	-0.0133185	2	2.01615	13	-1.22195e-06
2	0	0	1	1	226.819	0.100543	0.10014	-0.0123753	2	2.01614	13	-1.23927e-06
2	0	0	0	1	227.72	0.109545	0.108791	-0.011312	2	2.01613	13	-1.23064e-06
2	0	0	1	1	228.62	0.118547	0.117802	-0.0103796	2	2.01612	13	-1.22274e-06
2	0	0	0	1	229.52	0.127549	0.126999	-0.00971877	2	2.01611	13	-1.23428e-06
2	0	0	1	1	230.42	0.136551	0.136374	-0.00910676	2	2.0161	13	-1.24192e-06
2	0	0	0	1	231.32	0.145553	0.145506	-0.00827407	2	2.01609	13	-1.20393e-06
2	0	0	1	1	232.221	0.154556	0.153906	-0.00717836	2	2.01609	13	-1.10479e-06
2	0	0	0	1	233.121	0.163558	0.162814	-0.00605191	2	2.01608	13	-9.85333e-07
2	0	0	1	1	234.021	0.17256	0.172036	-0.0051052	2	2.01607	13	-8.7828e-07
2	0	0	1	1	234.921	0.181562	0.181154	-0.00443524	2	2.01607	13	-8.03461e-07
2	0	0	1	1	235.821	0.190563	0.190033	-0.00348902	2	2.01607	13	-6.6303e-07
2	1	0	1	1	236.722	0.199566	0.199639	-0.00215253	2	2.01607	13	-4.29728e-07
2	1	0	0	1	237.622	0.208568	0.208063	-0.000654776	2	2.01607	13	-1.36235e-07
2	1	0	1	1	238.522	0.21757	0.217	0.000777735	2	2.01607	13	1.68769e-07
2	1	0	0	1	239.422	0.226572	0.225855	0.00200843	2	2.01607	13	4.53614e-07
2	1	0	1	1	240.323	0.235575	0.23491	0.00334726	2	2.01607	13	7.86304e-07
2	1	0	0	1	241.223	0.244577	0.244345	0.00515301	2	2.01608	13	1.25911e-06
2	1	0	1	1	242.123	0.253579	0.253284	0.00740559	2	2.01608	13	1.87572e-06
2	1	0	0	1	243.023	0.262581	0.261793	0.00986298	2	2.01609	13	2.58206e-06
2	1	0	1	1	243.923	0.271583	0.270848	0.0122653	2	2.0161	13	3.32203e-06
2	1	0	0	1	244.824	0.280585	0.280319	0.0146946	2	2.01611	13	4.11917e-06
2	1	0	1	1	245.724	0.289587	0.289425	0.017412	2	2.01613	13	5.03946e-06
2	1	0	0	1	246.624	0.298589	0.298679	0.0209161	2	2.01615	13	6.24719e-06
2	1	0	1	1	247.524	0.307591	0.307186	0.0248906	2	2.01617	13	7.64605e-06
2	1	0	0	1	248.424	0.316594	0.316029	0.0290282	2	2.01619	13	9.17374e-06
2	1	0	1	1	249.325	0.325596	0.32511	0.0331446	2	2.01622	13	1.07757e-05
2	1	0	1	1	250.225	0.334599	0.334433	0.0375436	2	2.01625	13	1.25558e-05
2	1	0	1	1	251.125	0.3436	0.343572	0.042393	2	2.01629	13	1.45651e-05
2	1	0	1	1	252.025	0.352602	0.352485	0.0480775	2	2.01633	13	1.69466e-05
2	1	0	0	1	252.926	0.361604	0.361004	0.0542692	2	2.01638	13	1.95914e-05
2	1	0	1	1	253.826	0.370606	0.370179	0.0607589	2	2.01643	13	2.24917e-05
2	1	0	0	1	254.726	0.379608	0.379153	0.0675256	2	2.01649	13	2.56025e-05
2	1	0	1	1	255.626	0.38861	0.388471	0.0751084	2	2.01656	13	2.91774e-05
2	1	0	0	1	256.526	0.397613	0.397185	0.0839712	2	2.01663	13	3.33521e-05
2	1	0	1	1	257.427	0.406615	0.406356	0.0942874	2	2.01672	13	3.83143e-05
2	1	0	0	1	258.357	0.415917	0.415414	0.106271	2	2.01681	12	4.41463e-05
2	1	0	1	1	259.257	0.424919	0.424356	0.116266	2	2.01691	12	4.93384e-05
2	1	0	0	1	260.157	0.433921	0.433522	0.125989	2	2.01702	12	5.46189e-05
2	1	0	1	1	261.057	0.442923	0.442789	0.135421	2	2.01714	12	5.99631e-05
2	1	0	0	1	261.958	0.451925	0.451472	0.14481	2	2.01727	12	6.53774e-05
2	1	0	1	1	262.858	0.460927	0.460144	0.153607	2	2.0174	12	7.06816e-05
2	1	0	0	1	263.758	0.46993	0.469428	0.161719	2	2.01755	12	7.59157e-05
2	1	0	1	1	264.658	0.478932	0.478771	0.169951	2	2.0177	12	8.13676e-05
2	1	0	1	1	265.558	0.487934	0.487951	0.178281	2	2.01786	12	8.69926e-05
2	1	0	1	1	266.459	0.496935	0.496861	0.187207	2	2.01802	12	9.30161e-05
2	1	0	1	1	267.359	0.505938	0.505649	0.196372	2	2.0182	12	9.92955e-05
2	1	0	0	1	268.259	0.51494	0.514491	0.20532	2	2.01838	12	0.000105635
2	1	0	1	1	269.159	0.523942	0.522985	0.214223	2	2.01857	12	0.000112036
2	1	0	0	1	270.06	0.532944	0.532682	0.223644	2	2.01877	12	0.000119131
2	1	0	1	1	270.96	0.541946	0.541408	0.234201	2	2.01898	12	0.000126798
2	1	0	0	1	271.86	0.550949	0.551155	0.246251	2	2.0192	12	0.000135723
2	1	0	1	1	272.76	0.559951	0.559412	0.259226	2	2.01943	12	0.000145014
2	1	0	0	1	273.66	0.568953	0.568132	0.274467	2	2.01967	12	0.000155933
2	1	0	1	1	274.561	0.577955	0.577446	0.293842	2	2.01993	12	0.000169678
2	1	0	0	1	275.461	0.586957	0.586658	0.320917	2	2.02021	12	0.000188269
2	1	0	1	1	276.361	0.595959	0.595338	0.361371	2	2.02052	12	0.000215138
2	1	0	0	1	277.261	0.604961	0.604315	0.422874	2	2.02087	12	0.000255549
2	1	0	1	1	278.161	0.613963	0.613463	0.514594	2	2.02129	12	0.000315685
2	1	0	0	1	279.062	0.622965	0.622117	0.648802	2	2.02181	12	0.000403631
2	1	0	1	1	279.962	0.631968	0.631565	0.841777	2	2.02248	12	0.000531637
2	1	0	1	1	280.892	0.64127	0.641176	1.11627	2	2.02339	11	0.000715725
2	1	0	1	1	281.792	0.650271	0.649924	1.46455	2	2.02455	11	0.000951847
2	1	0	1	1	282.693	0.659274	0.658791	1.90204	2	2.02606	11	0.00125305
2	1	0	0	1	283.593	0.668276	0.667859	2.43522	2	2.02801	11	0.00162638
2	1	0	1	1	284.493	0.677278	0.676634	3.0667	2	2.03049	11	0.00207503
2	1	0	0	1	285.393	0.68628	0.685785	3.80186	2	2.03358	11	0.00260726
2	1	0	1	1	286.293	0.695282	0.695112	4.64294	2	2.03738	11	0.00322737
2	1	0	0	1	287.194	0.704284	0.703743	5.58519	2	2.04198	11	0.00393054
2	1	0	1	1	288.094	0.713287	0.712526	6.62928	2	2.04748	11	0.00472353
2	1	0	0	1	288.994	0.722289	0.721893	7.77701	2	2.05396	11	0.00561417
2	1	0	1	1	289.894	0.731291	0.730662	9.01869	2	2.06152	11	0.00658962
2	1	0	0	1	290.794	0.740293	0.740011	10.3568	2	2.07024	11	0.00766418
2	1	0	1	1	291.725	0.749595	0.749438	11.8449	2	2.08057	10	0.00887699
2	1	0	0	1	292.625	0.758597	0.758079	13.3708	2	2.09192	10	0.0101361
2	1	0	1	1	293.525	0.767599	0.766914	14.9799	2	2.10468	10	0.0114883
2	1	0	0	1	294.425	0.776601	0.775975	16.6789	2	2.11894	10	0.0129424
2	1	0	1	1	295.325	0.785603	0.78503	18.4673	2	2.13476	10	0.0144974
2	1	0	1	1	296.226	0.794606	0.793965	20.3115	2	2.15222	10	0.0161266
2	1	0	1	1	297.126	0.803607	0.8032	22.2629	2	2.17138	10	0.0178815
2	1	0	1	1	298.026	0.81261	0.812461	24.2693	2	2.19234	10	0.0197179
2	1	0	0	1	298.926	0.821612	0.821239	26.3518	2	2.21512	10	0.0216411
2	1	0	1	1	299.827	0.830614	0.830363	28.5134	2	2.23982	10	0.0236765
2	1	0	0	1	300.727	0.839616	0.839053	30.7158	2	2.26649	10	0.0257722
2	1	0	1	1	301.627	0.848618	0.848418	32.995	2	2.29518	10	0.0279935
2	1	0	0	1	302.527	0.85762	0.857259	35.3476	2	2.32593	10	0.0303021
2	1	0	1	1	303.427	0.866623	0.866249	37.7093	2	2.35882	10	0.0326656
2	1	0	0	1	304.328	0.875625	0.875243	40.1132	2	2.39385	10	0.0351088
2	1	0	1	1	305.228	0.884627	0.883931	42.5729	2	2.43108	10	0.0376315
2	1	0	0	1	306.128	0.893629	0.893112	45.1087	2	2.47057	10	0.0402872
2	1	0	1	1	307.028	0.902631	0.902965	47.6634	2	2.51235	10	0.0430383
2	1	0	0	1	307.928	0.911633	0.911241	50.2146	2	2.55641	10	0.0457576
2	1	0	1	1	308.829	0.920635	0.919771	52.7264	2	2.60279	10	0.0484962
2	1	0	0	1	309.729	0.929637	0.929004	55.3916	2	2.6515	10	0.051459
2	1	0	1	1	310.629	0.938639	0.93812	58.0584	2	2.70257	10	0.0544658
2	1	0	1	1	311.529	0.947642	0.947382	60.6239	2	2.75599	10	0.057434
2	1	0	1	1	312.429	0.956643	0.956273	63.3313	2	2.81182	10	0.060562
2	1	0	1	1	313.33	0.965646	0.965135	66.2534	2	2.87011	10	0.0639435
2	1	0	0	1	314.23	0.974648	0.974303	68.8818	2	2.93095	10	0.0671117
2	1	0	1	1	315.13	0.98365	0.982719	71.474	2	2.99414	10	0.0702389
2	1	0	0	1	316.03	0.992652	0.991926	74.242	2	3.05976	10	0.0736426
2	1	0	1	1	316.821	0.999454	0.999191	76.2759	2	3.11936	10	0.0762142
2	1	0	1	1	317.721	0.990452	0.990329	72.8672	2	3.18646	10	0.0721624
2	1	0	0	1	318.622	0.98145	0.980933	69.6406	2	3.25057	10	0.0683127
2	1	0	1	1	319.522	0.972447	0.971546	66.5435	2	3.31188	10	0.0646501
2	1	0	0	1	320.422	0.963445	0.962941	63.6768	2	3.37043	10	0.0613169
2	1	0	1	1	321.322	0.954443	0.953342	60.725	2	3.42636	10	0.0578918
2	1	0	0	1	322.222	0.945441	0.945151	57.8696	2	3.47973	10	0.0546955
2	1	0	1	1	323.123	0.936439	0.936046	55.132	2	3.5306	10	0.0516061
2	1	0	0	1	324.023	0.927437	0.926902	52.5186	2	3.57901	10	0.0486796
2	1	0	1	1	324.923	0.918435	0.917617	49.832	2	3.62505	10	0.0457267
2	1	0	0	1	325.823	0.909433	0.909033	47.2356	2	3.66872	10	0.0429387
2	1	0	1	1	326.723	0.900431	0.89973	44.6599	2	3.71006	10	0.0401819
2	1	0	0	1	327.624	0.891428	0.891139	42.1942	2	3.74916	10	0.0376009
2	1	0	1	1	328.524	0.882426	0.881977	39.7577	2	3.78603	10	0.0350654
2	1	0	0	1	329.424	0.873424	0.87326	37.3862	2	3.82073	10	0.0326479
2	1	0	1	1	330.324	0.864422	0.863756	35.0819	2	3.85332	10	0.0303022
2	1	0	0	1	331.224	0.85542	0.854547	32.8342	2	3.88389	10	0.0280583
2	1	0	1	1	332.125	0.846418	0.84638	30.6599	2	3.91245	10	0.02595
2	1	0	1	1	333.025	0.837415	0.83685	28.55	2	3.93909	10	0.0238921
2	1	0	1	1	333.925	0.828414	0.828025	26.5145	2	3.96385	10	0.0219547
2	1	0	1	1	334.825	0.819411	0.818829	24.5401	2	3.98681	10	0.0200942
2	1	0	0	1	335.726	0.810409	0.809525	22.6505	2	4.00804	10	0.0183362
2	1	0	1	1	336.626	0.801407	0.801057	20.8177	2	4.02759	10	0.0166762
2	1	0	0	1	337.526	0.792405	0.791835	19.0795	2	4.04554	10	0.0151078
2	1	0	1	1	338.426	0.783403	0.7832	17.4275	2	4.06196	10	0.0136492
2	1	0	0	1	339.326	0.774401	0.77392	15.8369	2	4.07691	10	0.0122565
2	1	0	1	1	340.227	0.765399	0.764809	14.3184	2	4.09047	10	0.0109508
2	1	0	0	1	341.127	0.756397	0.756271	12.8816	2	4.1027	10	0.009742
2	1	0	1	1	342.027	0.747395	0.746976	11.5261	2	4.11367	10	0.00860974
2	1	0	0	1	342.927	0.738393	0.738049	10.2437	2	4.12346	10	0.00756034
2	1	0	1	1	343.827	0.72939	0.728978	9.04605	2	4.13213	10	0.00659437
2	1	0	0	1	344.728	0.720388	0.7196	7.93552	2	4.13976	10	0.0057104
2	1	0	1	1	345.628	0.711386	0.710939	6.90371	2	4.14642	10	0.00490812
2	1	0	0	1	346.528	0.702384	0.702029	5.94732	2	4.1522	10	0.00417519
2	1	0	1	1	347.428	0.693382	0.692906	5.08087	2	4.15715	10	0.00352057
2	1	0	1	1	348.358	0.68408	0.683365	4.25582	2	4.16148	11	0.00290828
2	1	0	0	1	349.259	0.675078	0.674582	3.54956	2	4.16498	11	0.00239447
2	1	0	1	1	350.159	0.666076	0.665661	2.92341	2	4.16789	11	0.001946
2	1	0	0	1	351.059	0.657073	0.656675	2.37279	2	4.17026	11	0.00155815
2	1	0	1	1	351.959	0.648071	0.647435	1.89238	2	4.17217	11	0.00122519
2	1	0	0	1	352.86	0.639069	0.638541	1.48253	2	4.17368	11	0.000946654
2	1	0	1	1	353.76	0.630067	0.629988	1.13847	2	4.17485	11	0.000717222
2	1	0	0	1	354.66	0.621065	0.620521	0.856143	2	4.17574	11	0.000531255
2	1	0	1	1	355.56	0.612063	0.611858	0.629298	2	4.1764	11	0.000385041
2	1	0	0	1	356.475	0.602911	0.602488	0.441978	2	4.17688	11	0.000266287
2	1	0	1	1	357.391	0.593759	0.593531	0.300181	2	4.17721	12	0.000178167
2	1	0	0	1	358.291	0.584756	0.584181	0.194532	2	4.17743	12	0.000113642
2	1	0	1	1	359.191	0.575754	0.575393	0.116569	2	4.17757	12	6.7073e-05
2	1	0	0	1	360.091	0.566752	0.566469	0.05982	2	4.17764	12	3.38862e-05
2	1	0	1	1	361.021	0.55745	0.556499	0.0138869	2	4.17767	13	7.72803e-06
2	0	0	0	1	361.922	0.548448	0.548253	-0.0162385	2	4.17767	13	-8.90283e-06
2	0	0	1	1	362.822	0.539446	0.539102	-0.038755	2	4.17764	13	-2.08929e-05
2	0	0	1	1	363.722	0.530444	0.529859	-0.0554328	2	4.1776	13	-2.93716e-05
2	0	0	0	1	364.622	0.521442	0.520482	-0.0685079	2	4.17754	13	-3.56571e-05
2	0	0	1	1	365.523	0.51244	0.512115	-0.0776181	2	4.17748	13	-3.97494e-05
2	0	0	0	1	366.423	0.503437	0.503049	-0.0848709	2	4.1774	13	-4.26942e-05
2	0	0	1	1	367.323	0.494435	0.493953	-0.0914081	2	4.17732	13	-4.51513e-05
2	0	0	0	1	368.223	0.485433	0.484569	-0.0966829	2	4.17724	13	-4.68495e-05
2	0	0	1	1	369.153	0.476131	0.47568	-0.0981634	2	4.17714	12	-4.66944e-05
2	0	0	0	1	370.054	0.467129	0.466922	-0.101238	2	4.17705	12	-4.72703e-05
2	0	0	1	1	370.954	0.458127	0.458048	-0.104206	2	4.17696	12	-4.77315e-05
2	0	0	0	1	371.854	0.449125	0.448416	-0.106808	2	4.17686	12	-4.78943e-05
2	0	0	1	1	372.754	0.440123	0.439715	-0.108478	2	4.17676	12	-4.76995e-05
2	0	0	0	1	373.654	0.43112	0.430316	-0.109469	2	4.17666	12	-4.71063e-05
2	0	0	1	1	374.555	0.422118	0.421392	-0.11045	2	4.17656	12	-4.65425e-05
2	0	0	0	1	375.455	0.413116	0.412587	-0.111418	2	4.17646	12	-4.59698e-05
2	0	0	1	1	376.355	0.404114	0.40362	-0.11264	2	4.17635	12	-4.54636e-05
2	0	0	1	1	377.255	0.395111	0.394702	-0.113562	2	4.17625	12	-4.4823e-05
2	0	0	1	1	378.155	0.38611	0.38553	-0.113611	2	4.17615	12	-4.38005e-05
2	0	0	1	1	379.056	0.377108	0.376507	-0.113268	2	4.17604	12	-4.26463e-05
2	0	0	0	1	379.956	0.368106	0.367866	-0.113309	2	4.17594	12	-4.16826e-05
2	0	0	1	1	380.856	0.359104	0.358349	-0.113484	2	4.17584	12	-4.06671e-05
2	0	0	0	1	381.756	0.350101	0.349687	-0.113536	2	4.17573	12	-3.97019e-05
2	0	0	1	1	382.657	0.341099	0.341457	-0.113468	2	4.17563	12	-3.87443e-05
2	0	0	0	1	383.557	0.332097	0.331381	-0.112749	2	4.17553	12	-3.73628e-05
2	0	0	1	1	384.457	0.323095	0.322567	-0.111667	2	4.17543	12	-3.60199e-05
2	0	0	0	1	385.357	0.314093	0.313433	-0.110135	2	4.17532	12	-3.45198e-05
2	0	0	1	1	386.257	0.305091	0.305091	-0.108306	2	4.17522	12	-3.30431e-05
2	0	0	0	1	387.158	0.296089	0.295928	-0.105939	2	4.17513	12	-3.13503e-05
2	0	0	1	1	388.058	0.287087	0.286345	-0.102711	2	4.17503	12	-2.94108e-05
2	0	0	0	1	388.958	0.278085	0.277609	-0.0995343	2	4.17494	12	-2.76317e-05
2	0	0	1	1	389.858	0.269082	0.268685	-0.0963871	2	4.17485	12	-2.58977e-05
2	0	0	0	1	390.758	0.26008	0.259438	-0.0932592	2	4.17477	12	-2.41949e-05
2	0	0	1	1	391.659	0.251078	0.250947	-0.0900732	2	4.17468	12	-2.26036e-05
2	0	0	0	1	392.559	0.242076	0.241615	-0.0868879	2	4.1746	12	-2.09934e-05
2	0	0	1	1	393.459	0.233073	0.23258	-0.0835578	2	4.17452	12	-1.94339e-05
2	0	0	1	1	394.359	0.224072	0.223444	-0.0800023	2	4.17445	12	-1.7876e-05
2	0	0	0	1	395.26	0.21507	0.214674	-0.0768475	2	4.17438	12	-1.64972e-05
2	0	0	1	1	396.16	0.206068	0.20559	-0.0740059	2	4.17431	12	-1.52149e-05
2	0	0	0	1	397.06	0.197066	0.196744	-0.0708227	2	4.17424	12	-1.3934e-05
2	0	0	1	1	397.96	0.188063	0.187509	-0.0677094	2	4.17418	12	-1.26961e-05
2	0	0	0	1	398.86	0.179061	0.178669	-0.0646453	2	4.17412	12	-1.15501e-05
2	0	0	1	1	399.761	0.170059	0.1693	-0.0618435	2	4.17406	12	-1.04701e-05
2	0	0	0	1	400.661	0.161057	0.160933	-0.0594093	2	4.17401	12	-9.56092e-06
2	0	0	1	1	401.561	0.152055	0.151624	-0.0569286	2	4.17396	12	-8.63176e-06
2	0	0	0	1	402.461	0.143053	0.142567	-0.0545781	2	4.1739	12	-7.78105e-06
2	0	0	1	1	403.361	0.134051	0.133538	-0.0523283	2	4.17386	12	-6.98784e-06
2	0	0	0	1	404.262	0.125049	0.123952	-0.0499947	2	4.17381	12	-6.19693e-06
2	0	0	1	1	405.162	0.116047	0.115449	-0.0482473	2	4.17376	12	-5.57013e-06
2	0	0	0	1	406.062	0.107044	0.106808	-0.0465421	2	4.17372	12	-4.97107e-06
2	0	0	1	1	406.962	0.0980423	0.0975576	-0.0447934	2	4.17368	12	-4.36994e-06
2	0	0	0	1	407.892	0.0887401	0.0880899	-0.0434691	2	4.17364	13	-3.82919e-06
2	0	0	1	1	408.793	0.0797378	0.0794054	-0.0419071	2	4.1736	13	-3.32765e-06
2	0	0	1	1	409.693	0.0707368	0.0703739	-0.0407033	2	4.17356	13	-2.86445e-06
2	0	0	0	1	410.593	0.0617338	0.0608025	-0.0396922	2	4.17353	13	-2.41339e-06
2	0	0	1	1	411.493	0.0527317	0.0523095	-0.0386196	2	4.17349	13	-2.02017e-06
2	0	0	0	1	412.394	0.0437295	0.0433201	-0.0373812	2	4.17346	13	-1.61936e-06
2	0	0	1	1	413.294	0.0347274	0.0345291	-0.0362594	2	4.17342	13	-1.252e-06
2	0	0	0	1	414.194	0.0257253	0.0251038	-0.0353471	2	4.17339	13	-8.87346e-07
2	0	0	1	1	415.094	0.0167232	0.0163573	-0.0346608	2	4.17336	13	-5.66956e-07
2	0	0	0	1	415.994	0.00772109	0.00751216	-0.0340041	2	4.17333	13	-2.55444e-07
2	0	0	1	0	416.77	3.07233e-05	-1.34665e-05	-0.0314911	2	4.1733	13	4.24074e-10
2	0	0	0	0	417.625	0.00852128	0.00808493	-0.0288073	3	4.17328	13	-2.32905e-07
2	0	0	1	0	418.525	0.0175234	0.0171284	-0.0263201	3	4.17325	13	-4.50822e-07
2	0	0	0	0	419.426	0.0265255	0.0260945	-0.0242292	3	4.17323	13	-6.32247e-07
2	0	0	1	0	420.326	0.0355276	0.0347837	-0.0225531	3	4.17321	13	-7.84479e-07
2	0	0	0	0	421.226	0.0445297	0.0442037	-0.0212847	3	4.17319	13	-9.4086e-07
2	0	0	1	0	422.126	0.0535318	0.0528133	-0.020156	3	4.17317	13	-1.0645e-06
2	0	0	1	0	423.026	0.0625339	0.0616826	-0.0190074	3	4.17315	13	-1.17243e-06
2	0	0	0	0	423.927	0.0715361	0.0714062	-0.0177765	3	4.17314	13	-1.26935e-06
2	0	0	1	0	424.827	0.0805382	0.079931	-0.0166352	3	4.17312	13	-1.32967e-06
2	0	0	0	0	425.727	0.0895403	0.0890435	-0.0157354	3	4.17311	13	-1.40114e-06
2	0	0	1	0	426.627	0.0985424	0.0980806	-0.0150386	3	4.17309	13	-1.47499e-06
2	0	0	0	0	427.528	0.107545	0.107054	-0.0142351	3	4.17308	13	-1.52392e-06
2	0	0	1	0	428.428	0.116547	0.116197	-0.0133219	3	4.17307	13	-1.54797e-06
2	0	0	0	0	429.328	0.125549	0.125186	-0.0121777	3	4.17306	13	-1.52448e-06
2	0	0	1	0	430.228	0.134551	0.134071	-0.0112375	3	4.17305	13	-1.50662e-06
2	0	0	0	0	431.128	0.143553	0.143197	-0.0104542	3	4.17304	13	-1.49701e-06
2	0	0	1	0	432.029	0.152555	0.15139	-0.00976139	3	4.17303	13	-1.47778e-06
2	0	0	0	0	432.929	0.161557	0.161403	-0.00884961	3	4.17302	13	-1.42835e-06
2	0	0	1	0	433.829	0.170559	0.170124	-0.00762962	3	4.17301	13	-1.29798e-06
2	0	0	0	0	434.729	0.179561	0.179303	-0.00631961	3	4.17301	13	-1.13313e-06
2	0	0	1	0	435.629	0.188563	0.18817	-0.00520836	3	4.173	13	-9.80055e-07
2	0	0	0	0	436.53	0.197566	0.197017	-0.00416889	3	4.173	13	-8.21342e-07
2	0	0	1	0	437.43	0.206568	0.205668	-0.00311334	3	4.173	13	-6.40313e-07
2	0	0	1	0	438.33	0.21557	0.214948	-0.00161073	3	4.17299	13	-3.46224e-07
2	0	0	1	0	439.23	0.224571	0.224545	0.000184096	3	4.17299	13	4.13378e-08
2	1	0	1	0	440.131	0.233574	0.233296	0.00208831	3	4.17299	13	4.87193e-07
2	1	0	0	0	441.031	0.242576	0.242287	0.00385027	3	4.173	13	9.32871e-07
2	1	0	1	0	441.931	0.251578	0.251062	0.005716	3	4.173	13	1.43507e-06
2	1	0	0	0	442.831	0.26058	0.260054	0.00786115	3	4.17301	13	2.04432e-06
2	1	0	1	0	443.731	0.269583	0.269251	0.0106306	3	4.17302	13	2.86231e-06
2	1	0	0	0	444.632	0.278585	0.278516	0.0137395	3	4.17303	13	3.82668e-06
2	1	0	1	0	445.532	0.287587	0.28704	0.017008	3	4.17304	13	4.88199e-06
2	1	0	0	0	446.432	0.296589	0.295921	0.0203254	3	4.17306	13	6.0147e-06
2	1	0	1	0	447.332	0.305591	0.304898	0.0237988	3	4.17308	13	7.25619e-06
2	1	0	0	0	448.232	0.314593	0.314548	0.0278885	3	4.17311	13	8.77228e-06
2	1	0	1	0	449.133	0.323595	0.323744	0.0326253	3	4.17314	13	1.05623e-05
2	1	0	0	0	450.033	0.332597	0.332342	0.0377618	3	4.17317	13	1.25498e-05
2	1	0	1	0	450.933	0.341599	0.341196	0.0430778	3	4.17321	13	1.4698e-05
2	1	0	0	0	451.833	0.350602	0.350337	0.0484401	3	4.17325	13	1.69703e-05
2	1	0	1	0	452.733	0.359604	0.35881	0.0542066	3	4.1733	13	1.94499e-05
2	1	0	0	0	453.634	0.368606	0.368036	0.0607726	3	4.17335	13	2.23665e-05
2	1	0	1	0	454.534	0.377608	0.37769	0.0683422	3	4.17341	13	2.58122e-05
2	1	0	1	0	455.434	0.38661	0.386305	0.0767984	3	4.17348	13	2.96676e-05
2	1	0	0	0	456.334	0.395612	0.394893	0.085948	3	4.17355	13	3.39403e-05
2	1	0	1	0	457.235	0.404614	0.404071	0.0959086	3	4.17363	13	3.87538e-05
2	1	0	0	0	458.165	0.413916	0.413643	0.108187	3	4.17373	12	4.47507e-05
2	1	0	1	0	459.065	0.422918	0.422305	0.119406	3	4.17383	12	5.04256e-05
2	1	0	0	0	459.965	0.431921	0.431968	0.129758	3	4.17395	12	5.60513e-05
2	1	0	1	0	460.865	0.440923	0.440314	0.139395	3	4.17407	12	6.13774e-05
2	1	0	0	0	461.766	0.449925	0.44944	0.148219	3	4.1742	12	6.66153e-05
2	1	0	1	0	462.666	0.458927	0.458354	0.157139	3	4.17434	12	7.20253e-05
2	1	0	0	0	463.566	0.467929	0.467624	0.165959	3	4.17449	12	7.76064e-05
2	1	0	1	0	464.466	0.476931	0.476451	0.174674	3	4.17464	12	8.32237e-05
2	1	0	0	0	465.366	0.485933	0.485501	0.182862	3	4.1748	12	8.87798e-05
2	1	0	1	0	466.267	0.494935	0.494402	0.190471	3	4.17497	12	9.41694e-05
2	1	0	0	0	467.167	0.503938	0.503469	0.198443	3	4.17515	12	9.991e-05
2	1	0	1	0	468.067	0.51294	0.512577	0.206556	3	4.17533	12	0.000105876
2	1	0	1	0	468.967	0.521942	0.521457	0.21537	3	4.17553	12	0.000112306
2	1	0	1	0	469.867	0.530944	0.53112	0.224153	3	4.17573	12	0.000119052
2	1	0	1	0	470.768	0.539946	0.539383	0.233129	3	4.17593	12	0.000125746
2	1	0	0	0	471.668	0.548948	0.548958	0.242305	3	4.17615	12	0.000133015
2	1	0	1	0	472.568	0.55795	0.556935	0.253353	3	4.17638	12	0.000141101
2	1	0	0	0	473.468	0.566952	0.566568	0.267836	3	4.17661	12	0.000151747
2	1	0	1	0	474.369	0.575954	0.575481	0.28635	3	4.17686	12	0.000164789
2	1	0	0	0	475.269	0.584956	0.584699	0.312434	3	4.17713	12	0.00018268
2	1	0	1	0	476.169	0.593959	0.593333	0.351331	3	4.17743	12	0.000208456
2	1	0	0	0	477.069	0.602961	0.602824	0.410807	3	4.17778	12	0.000247645
2	1	0	1	0	477.969	0.611963	0.611464	0.502661	3	4.17819	12	0.000307359
2	1	0	0	0	478.87	0.620965	0.62035	0.637315	3	4.1787	12	0.000395359
2	1	0	1	0	479.77	0.629967	0.62978	0.829987	3	4.17936	12	0.000522709
2	1	0	0	0	480.685	0.639119	0.638437	1.09316	3	4.18024	12	0.000697914
2	1	0	1	0	481.6	0.648271	0.647777	1.44169	3	4.1814	11	0.000933893
2	1	0	0	0	482.5	0.657273	0.656856	1.86983	3	4.18289	11	0.00122821
2	1	0	1	0	483.401	0.666276	0.665948	2.39069	3	4.1848	11	0.00159208
2	1	0	1	0	484.301	0.675278	0.674775	3.00661	3	4.18723	11	0.00202879
2	1	0	1	0	485.201	0.684279	0.6838	3.72316	3	4.19026	11	0.0025459
2	1	0	1	0	486.101	0.693282	0.692939	4.54038	3	4.19397	11	0.00314621
2	1	0	0	0	487.002	0.702284	0.701464	5.4583	3	4.19847	11	0.0038288
2	1	0	1	0	487.902	0.711286	0.710464	6.47825	3	4.20385	11	0.00460256
2	1	0	0	0	488.802	0.720288	0.720038	7.60126	3	4.21018	11	0.0054732
2	1	0	1	0	489.702	0.72929	0.728935	8.81763	3	4.21757	11	0.00642748
2	1	0	0	0	490.602	0.738293	0.737791	10.1261	3	4.2261	11	0.00747098
2	1	0	1	0	491.533	0.747595	0.74757	11.588	3	4.2362	10	0.00866281
2	1	0	0	0	492.433	0.756597	0.756021	13.0899	3	4.24731	10	0.00989625
2	1	0	1	0	493.333	0.765599	0.765165	14.6759	3	4.2598	10	0.0112295
2	1	0	0	0	494.233	0.774601	0.774465	16.3397	3	4.27377	10	0.0126545
2	1	0	1	0	495.133	0.783603	0.783291	18.0995	3	4.28927	10	0.0141772
2	1	0	0	0	496.034	0.792605	0.791739	19.939	3	4.30639	10	0.0157865
2	1	0	1	0	496.934	0.801607	0.801277	21.8517	3	4.32521	10	0.0175093
2	1	0	0	0	497.834	0.810609	0.810309	23.8529	3	4.34579	10	0.0193282
2	1	0	1	0	498.734	0.819611	0.818923	26.0426	3	4.36824	10	0.0213269
2	1	0	1	0	499.634	0.828613	0.828753	28.2131	3	4.39267	10	0.0233817
2	1	0	0	0	500.535	0.837616	0.837529	30.4171	3	4.41907	10	0.0254753
2	1	0	1	0	501.435	0.846618	0.846139	32.6521	3	4.44746	10	0.0276283
2	1	0	0	0	502.335	0.85562	0.855384	35.0005	3	4.47792	10	0.0299389
2	1	0	1	0	503.235	0.864622	0.864257	37.3742	3	4.51049	10	0.0323009
2	1	0	0	0	504.136	0.873624	0.872965	39.7896	3	4.54524	10	0.0347349
2	1	0	1	0	505.036	0.882626	0.88254	42.2638	3	4.58218	10	0.0372995
2	1	0	0	0	505.936	0.891628	0.891388	44.7506	3	4.62135	10	0.0398902
2	1	0	1	0	506.836	0.900631	0.900428	47.2848	3	4.6628	10	0.0425765
2	1	0	0	0	507.736	0.909633	0.909049	49.824	3	4.70651	10	0.0452925
2	1	0	1	0	508.637	0.918635	0.918021	52.682	3	4.75257	10	0.0483632
2	1	0	0	0	509.537	0.927637	0.927454	55.4293	3	4.80125	10	0.0514081
2	1	0	1	0	510.437	0.936639	0.936317	58.3735	3	4.85252	10	0.0546561
2	1	0	0	0	511.337	0.945641	0.945745	61.0078	3	4.90625	10	0.0576978
2	1	0	1	0	512.237	0.954643	0.954066	63.6833	3	4.96239	10	0.060758
2	1	0	0	0	513.138	0.963645	0.963073	66.4689	3	5.021	10	0.0640144
2	1	0	1	0	514.038	0.972647	0.972346	69.1299	3	5.08204	10	0.0672181
2	1	0	1	0	514.938	0.98165	0.981069	71.7992	3	5.14544	10	0.07044
2	1	0	1	0	515.838	0.990651	0.990802	74.5673	3	5.21134	10	0.0738814
2	1	0	1	0	516.729	0.999554	0.999402	77.3401	3	5.27899	10	0.0772938
2	1	0	0	0	517.529	0.992452	0.992026	74.6591	3	5.33993	10	0.0740637
2	1	0	1	0	518.429	0.98345	0.982668	71.4668	3	5.40564	10	0.0702282
2	1	0	0	0	519.33	0.974448	0.974132	68.6939	3	5.46865	10	0.0669169
2	1	0	1	0	520.23	0.965446	0.965415	65.9127	3	5.52933	10	0.0636332
2	1	0	1	0	521.13	0.956443	0.955925	62.8522	3	5.58728	10	0.060082
2	1	0	1	0	522.03	0.947442	0.947629	59.9214	3	5.64252	10	0.0567833
2	1	0	1	0	522.931	0.938439	0.938359	57.0857	3	5.6952	10	0.0535669
2	1	0	0	0	523.831	0.929437	0.929013	54.3208	3	5.7453	10	0.0504648
2	1	0	1	0	524.731	0.920435	0.920165	51.5989	3	5.79297	10	0.0474795
2	1	0	0	0	525.631	0.911433	0.911125	48.9766	3	5.83821	10	0.0446238
2	1	0	1	0	526.531	0.902431	0.901992	46.3124	3	5.88106	10	0.0417734
2	1	0	0	0	527.432	0.893429	0.893221	43.773	3	5.9216	10	0.039099
2	1	0	1	0	528.332	0.884427	0.884158	41.2569	3	5.95986	10	0.0364776
2	1	0	0	0	529.232	0.875425	0.874266	38.8109	3	5.99586	10	0.033931
2	1	0	1	0	530.132	0.866422	0.865758	36.3625	3	6.02969	10	0.0314811
2	1	0	0	0	531.032	0.85742	0.857289	34.0535	3	6.06138	10	0.0291937
2	1	0	1	0	531.933	0.848418	0.847829	31.8315	3	6.09101	10	0.0269877
2	1	0	0	0	532.833	0.839416	0.839075	29.6607	3	6.11866	10	0.0248876
2	1	0	1	0	533.733	0.830414	0.830222	27.5747	3	6.14439	10	0.0228932
2	1	0	0	0	534.633	0.821412	0.820514	25.51	3	6.16827	10	0.0209313
2	1	0	1	0	535.533	0.81241	0.811692	23.5792	3	6.19035	10	0.019139
2	1	0	1	0	536.434	0.803407	0.802919	21.6643	3	6.21069	10	0.0173947
2	1	0	1	0	537.334	0.794406	0.793997	19.8398	3	6.22936	10	0.0157527
2	1	0	1	0	538.234	0.785403	0.784537	18.1103	3	6.24642	10	0.0142082
2	1	0	0	0	539.134	0.776402	0.775626	16.4464	3	6.26196	10	0.0127562
2	1	0	1	0	540.035	0.767399	0.767211	14.8642	3	6.27603	10	0.011404
2	1	0	0	0	540.935	0.758397	0.757516	13.3808	3	6.28873	10	0.0101362
2	1	0	1	0	541.835	0.749395	0.748878	11.9816	3	6.30013	10	0.00897277
2	1	0	0	0	542.735	0.740393	0.740385	10.6538	3	6.31031	10	0.00788794
2	1	0	1	0	543.635	0.731391	0.730867	9.41521	3	6.31933	10	0.00688127
2	1	0	0	0	544.536	0.722389	0.721542	8.27569	3	6.32728	10	0.00597126
2	1	0	1	0	545.436	0.713387	0.712923	7.20039	3	6.33423	10	0.00513332
2	1	0	0	0	546.336	0.704385	0.703956	6.21563	3	6.34025	10	0.00437553
2	1	0	1	0	547.236	0.695382	0.695082	5.31632	3	6.34543	10	0.00369527
2	1	0	0	0	548.136	0.68638	0.685985	4.50113	3	6.34984	10	0.0030877
2	1	0	1	0	549.067	0.677078	0.676879	3.73583	3	6.35366	11	0.00252871
2	1	0	0	0	549.967	0.668076	0.667339	3.08577	3	6.35672	11	0.00205925
2	1	0	1	0	550.867	0.659073	0.659115	2.51226	3	6.35922	11	0.00165587
2	1	0	1	0	551.767	0.650072	0.649611	2.01374	3	6.36125	11	0.00130815
2	1	0	0	0	552.668	0.64107	0.640495	1.58737	3	6.36286	11	0.0010167
2	1	0	1	0	553.568	0.632068	0.631521	1.22693	3	6.36412	11	0.000774832
2	1	0	0	0	554.468	0.623065	0.622681	0.927693	3	6.36508	11	0.000577656
2	1	0	1	0	555.368	0.614063	0.613452	0.68649	3	6.3658	11	0.000421128
2	1	0	0	0	556.268	0.605061	0.604553	0.490184	3	6.36632	11	0.000296342
2	1	0	1	0	557.199	0.595759	0.595409	0.332423	3	6.3667	12	0.000197928
2	1	0	0	0	558.099	0.586757	0.586301	0.217942	3	6.36694	12	0.00012778
2	1	0	1	0	558.999	0.577755	0.577565	0.131933	3	6.36709	12	7.61997e-05
2	1	0	0	0	559.899	0.568753	0.567714	0.0677129	3	6.36718	12	3.84416e-05
2	1	0	1	0	560.829	0.55945	0.559126	0.0169095	3	6.36721	13	9.45455e-06
2	0	0	0	0	561.73	0.550448	0.550044	-0.016715	3	6.36721	13	-9.19398e-06
2	0	0	1	0	562.63	0.541446	0.541451	-0.0406795	3	6.36718	13	-2.20259e-05
2	0	0	0	0	563.53	0.532444	0.531448	-0.0589602	3	6.36714	13	-3.13343e-05
2	0	0	1	0	564.43	0.523442	0.523043	-0.0723501	3	6.36708	13	-3.78423e-05
2	0	0	0	0	565.33	0.51444	0.513849	-0.0826771	3	6.36701	13	-4.24836e-05
2	0	0	1	0	566.231	0.505437	0.504869	-0.090687	3	6.36693	13	-4.5785e-05
2	0	0	1	0	567.131	0.496437	0.496508	-0.0970393	3	6.36684	13	-4.81808e-05
2	0	0	0	0	568.061	0.487133	0.486498	-0.0996684	3	6.36675	12	-4.84885e-05
2	0	0	1	0	568.961	0.478131	0.477858	-0.10399	3	6.36665	12	-4.96923e-05
2	0	0	0	0	569.862	0.469129	0.468685	-0.107456	3	6.36656	12	-5.03628e-05
2	0	0	1	0	570.762	0.460127	0.459683	-0.109907	3	6.36646	12	-5.05225e-05
2	0	0	0	0	571.662	0.451125	0.450823	-0.111626	3	6.36635	12	-5.03235e-05
2	0	0	1	0	572.562	0.442123	0.44109	-0.113078	3	6.36625	12	-4.98774e-05
2	0	0	0	0	573.462	0.433121	0.432403	-0.114822	3	6.36615	12	-4.96493e-05
2	0	0	1	0	574.363	0.424119	0.423085	-0.116339	3	6.36604	12	-4.92213e-05
2	0	0	0	0	575.263	0.415117	0.414586	-0.117319	3	6.36593	12	-4.8639e-05
2	0	0	1	0	576.163	0.406115	0.405309	-0.118101	3	6.36583	12	-4.78673e-05
2	0	0	0	0	577.063	0.397112	0.396494	-0.118614	3	6.36572	12	-4.70296e-05
2	0	0	1	0	577.963	0.38811	0.38779	-0.119321	3	6.36561	12	-4.62715e-05
2	0	0	0	0	578.864	0.379108	0.378389	-0.119915	3	6.3655	12	-4.53745e-05
2	0	0	1	0	579.764	0.370106	0.369825	-0.120298	3	6.36539	12	-4.44892e-05
2	0	0	0	0	580.664	0.361104	0.360157	-0.120072	3	6.36528	12	-4.32449e-05
2	0	0	1	0	581.564	0.352102	0.351686	-0.119588	3	6.36517	12	-4.20573e-05
2	0	0	1	0	582.465	0.3431	0.342758	-0.119313	3	6.36506	12	-4.08956e-05
2	0	0	0	0	583.365	0.334098	0.333324	-0.119236	3	6.36495	12	-3.97442e-05
2	0	0	1	0	584.265	0.325095	0.324685	-0.118619	3	6.36485	12	-3.85138e-05
2	0	0	0	0	585.165	0.316093	0.315646	-0.117149	3	6.36474	12	-3.69776e-05
2	0	0	1	0	586.065	0.307091	0.306233	-0.11475	3	6.36463	12	-3.51402e-05
2	0	0	0	0	586.966	0.298089	0.297718	-0.111797	3	6.36453	12	-3.3284e-05
2	0	0	1	0	587.866	0.289087	0.288508	-0.109099	3	6.36443	12	-3.1476e-05
2	0	0	0	0	588.766	0.280085	0.279688	-0.106207	3	6.36433	12	-2.9705e-05
2	0	0	1	0	589.666	0.271083	0.27075	-0.103046	3	6.36424	12	-2.78996e-05
2	0	0	0	0	590.566	0.262081	0.261331	-0.099538	3	6.36415	12	-2.60124e-05
2	0	0	1	0	591.467	0.253079	0.252519	-0.0959578	3	6.36406	12	-2.42311e-05
2	0	0	0	0	592.367	0.244077	0.243792	-0.0925234	3	6.36397	12	-2.25565e-05
2	0	0	1	0	593.267	0.235074	0.234252	-0.0893577	3	6.36389	12	-2.09323e-05
2	0	0	0	0	594.167	0.226072	0.225532	-0.0861165	3	6.36381	12	-1.94221e-05
2	0	0	1	0	595.067	0.21707	0.216345	-0.0826018	3	6.36373	12	-1.78705e-05
2	0	0	0	0	595.968	0.208068	0.207594	-0.0791223	3	6.36366	12	-1.64253e-05
2	0	0	1	0	596.868	0.199066	0.198571	-0.0758018	3	6.36359	12	-1.5052e-05
2	0	0	1	0	597.768	0.190065	0.189747	-0.072793	3	6.36352	12	-1.38123e-05
2	0	0	0	0	598.668	0.181062	0.180335	-0.0697518	3	6.36346	12	-1.25787e-05
2	0	0	1	0	599.569	0.17206	0.171467	-0.0668225	3	6.3634	12	-1.14578e-05
2	0	0	0	0	600.469	0.163058	0.162596	-0.0638239	3	6.36334	12	-1.03775e-05
2	0	0	1	0	601.369	0.154055	0.154328	-0.060869	3	6.36328	12	-9.3938e-06
2	0	0	0	0	602.269	0.145053	0.144331	-0.0583608	3	6.36322	12	-8.42328e-06
2	0	0	1	0	603.169	0.136051	0.135834	-0.0562904	3	6.36317	12	-7.64614e-06
2	0	0	0	0	604.07	0.127049	0.126817	-0.0541061	3	6.36312	12	-6.86156e-06
2	0	0	1	0	604.97	0.118047	0.117782	-0.0518662	3	6.36307	12	-6.1089e-06
2	0	0	0	0	605.87	0.109045	0.108643	-0.0499795	3	6.36303	12	-5.42992e-06
2	0	0	1	0	606.77	0.100043	0.100067	-0.0479969	3	6.36298	12	-4.80292e-06
2	0	0	0	0	607.67	0.0910406	0.0906949	-0.0464166	3	6.36294	12	-4.20975e-06
2	0	0	1	0	608.601	0.0817385	0.0811848	-0.0454165	3	6.3629	13	-3.68713e-06
2	0	0	0	0	609.501	0.0727363	0.0723386	-0.0438981	3	6.36286	13	-3.17552e-06
2	0	0	1	0	610.401	0.0637342	0.0630872	-0.0423765	3	6.36282	13	-2.67341e-06
2	0	0	0	0	611.301	0.0547321	0.0542177	-0.0410251	3	6.36278	13	-2.22428e-06
2	0	0	1	0	612.201	0.0457298	0.0456042	-0.039961	3	6.36274	13	-1.82239e-06
2	0	0	1	0	613.102	0.0367288	0.0364719	-0.0390975	3	6.36271	13	-1.42596e-06
2	0	0	0	0	614.002	0.0277258	0.0272283	-0.0380544	3	6.36267	13	-1.03616e-06
2	0	0	1	0	614.902	0.0187237	0.0182803	-0.0369635	3	6.36264	13	-6.75704e-07
2	0	0	0	0	615.802	0.00972156	0.00953172	-0.0359643	3	6.36261	13	-3.42802e-07
2	0	0	1	0	616.703	0.000719453	0.000528548	-0.0351301	3	6.36257	13	-1.85679e-08
2	0	0	1	1	617.433	-0.00658226	-0.00677221	-0.0344488	3	6.36255	13	2.33295e-07
2	0	0	0	1	618.334	-0.0155844	-0.015944	-0.0337717	3	6.36252	13	5.38457e-07
2	0	0	1	1	619.234	-0.0245865	-0.0248889	-0.0332533	3	6.36249	13	8.27638e-07
2	0	0	0	1	620.134	-0.0335886	-0.0339589	-0.0327053	3	6.36246	13	1.11064e-06
2	0	0	1	1	621.034	-0.0425907	-0.0428061	-0.0320138	3	6.36243	13	1.37039e-06
2	0	0	0	1	621.934	-0.0515928	-0.0516884	-0.0312504	3	6.3624	13	1.61528e-06
2	0	0	1	1	622.835	-0.060595	-0.0611084	-0.0306842	3	6.36237	13	1.87506e-06
2	0	0	0	1	623.735	-0.0695971	-0.0703279	-0.0303013	3	6.36234	13	2.13103e-06
2	0	0	1	1	624.635	-0.0785992	-0.0789196	-0.0300031	3	6.36232	13	2.36783e-06
2	0	0	0	1	625.535	-0.0876013	-0.0881837	-0.0295864	3	6.36229	13	2.60904e-06
2	0	0	1	1	626.435	-0.0966034	-0.0969609	-0.0290031	3	6.36226	13	2.81216e-06
2	0	0	0	1	627.336	-0.105606	-0.106481	-0.0284811	3	6.36224	13	3.03268e-06
2	0	0	1	1	628.236	-0.114608	-0.115169	-0.028179	3	6.36221	13	3.24534e-06
2	0	0	0	1	629.136	-0.12361	-0.12406	-0.0280481	3	6.36219	13	3.47964e-06
2	0	0	1	1	630.036	-0.132612	-0.133102	-0.0278533	3	6.36216	13	3.70732e-06
2	0	0	1	1	630.936	-0.141614	-0.142058	-0.0274817	3	6.36214	13	3.904e-06
2	0	0	1	1	631.837	-0.150615	-0.151315	-0.0270951	3	6.36211	13	4.09989e-06
2	0	0	1	1	632.737	-0.159618	-0.159882	-0.0268951	3	6.36209	13	4.30006e-06
2	0	0	0	1	633.529	-0.16757	-0.167856	-0.0252834	3	6.36207	13	4.24395e-06