File: Data_Lola/CoNiFeNx_400ºC_24h_13102022/Electrodes_20012023/Set 2/2023_01_23_CoNiFeNx_400ºC_24h_electrode1__set2_20012023_1_03_CP_C01.mpt
EC-Lab ASCII FILE
Nb header lines : 52

Chronopotentiometry

Run on channel : 1 (SN 21648)
User :
CE vs. WE compliance from -10 V to 10 V
Electrode connection : standard
Potential control : Ewe
Ewe ctrl range : min = -2.50 V, max = 2.50 V
Safety Limits :
	Do not start on E overload
Acquisition started on : 01/23/2023 11:53:57.913
Loaded Setting File :  C:\Users\grupogalan\Documents\EC-Lab\Data\Lole Jurado\2023_01_20_CoNiFeNx_400ºC_24h_electrode2_19012023_1.mps
Saved on :
	File : 2023_01_23_CoNiFeNx_400ºC_24h_electrode1__set2_20012023_1_03_CP_C01.mpr
	Directory : C:\Users\grupogalan\Documents\EC-Lab\Data\Lole Jurado\
	Host : 169.254.104.159
Device : VSP (SN 1176)
Address : USB
EC-Lab for windows v11.46 (software)
Internet server v11.40 (firmware)
Command interpretor v11.40 (firmware)
Electrode material :
Initial state :
Electrolyte :
Comments :
Electrode surface area : 0.000 cm²
Characteristic mass : 0.001 g
Equivalent Weight : 0.000 g/eq.
Density : 0.000 g/cm3
Volume (V) : 0.001 cm³
Cycle Definition : Charge/Discharge alternance
Is                  10.000
unit Is             mA
vs.                 <None>
ts (h:m:s)          2:00:0.0000
EM (V)              pass
dQM                 20.000
unit dQM            mA.h
record              <Ewe>
dEs (mV)            0.00
dts (s)             1.0000
E range min (V)     -2.500
E range max (V)     2.500
I Range             10 mA
Bandwidth           5
goto Ns'            0
nc cycles           0

mode	ox/red	error	control changes	Ns changes	counter inc.	Ns	time/s	control/mA	<Ewe>/V	I/mA	dQ/C	(Q-Qo)/C	half cycle	Q charge/discharge/mA.h	I Range	Energy charge/W.h	Energy discharge/W.h	Capacitance charge/µF	Capacitance discharge/µF	Q discharge/mA.h	Q charge/mA.h	Capacity/mA.h	Efficiency/%	cycle number	P/W
1	1	0	1	0	0	0	679.184	10	0.752204	9.99948	0.00947621	0.00947621	0	0.00263228	11	1.98001e-06	0.000000000000000E+000	0.000000000000000E+000	0.000000000000000E+000	0.000000000000000E+000	0.00263228	0.00263228	0.0000000E+000	0.000000000000000E+000	0.00752165
1	1	0	1	0	0	0	712.184	10	0.753355	10.0004	0.339483	0.339483	0	0.0943009	11	7.11787e-05	0.000000000000000E+000	2.9494e+08	0.000000000000000E+000	0.000000000000000E+000	0.0943009	0.0943009	0.0000000E+000	0.000000000000000E+000	0.00753383
1	1	0	1	0	0	0	745.184	10	0.752774	10.0002	0.66949	0.66949	0	0.185969	11	0.00014021	0.000000000000000E+000	1.17442e+09	0.000000000000000E+000	0.000000000000000E+000	0.185969	0.185969	0.0000000E+000	0.000000000000000E+000	0.00752788
1	1	0	1	0	0	0	778.184	10	0.752429	10.0002	0.999496	0.999496	0	0.277638	11	0.000209196	0.000000000000000E+000	4.44323e+09	0.000000000000000E+000	0.000000000000000E+000	0.277638	0.277638	0.0000000E+000	0.000000000000000E+000	0.00752447
1	1	0	1	0	0	0	811.184	10	0.752591	9.99986	1.3295	1.3295	0	0.369306	11	0.000278181	0.000000000000000E+000	3.43688e+09	0.000000000000000E+000	0.000000000000000E+000	0.369306	0.369306	0.0000000E+000	0.000000000000000E+000	0.00752581
1	1	0	1	0	0	0	844.184	10	0.752554	10.0007	1.65951	1.65951	0	0.460974	11	0.000347159	0.000000000000000E+000	4.7439e+09	0.000000000000000E+000	0.000000000000000E+000	0.460974	0.460974	0.0000000E+000	0.000000000000000E+000	0.00752606
1	1	0	1	0	0	0	877.184	10	0.752495	10.0002	1.98951	1.98951	0	0.552643	11	0.000416145	0.000000000000000E+000	6.83565e+09	0.000000000000000E+000	0.000000000000000E+000	0.552643	0.552643	0.0000000E+000	0.000000000000000E+000	0.00752513
1	1	0	1	0	0	0	910.184	10	0.752748	10.0006	2.31952	2.31952	0	0.644311	11	0.000485154	0.000000000000000E+000	4.26794e+09	0.000000000000000E+000	0.000000000000000E+000	0.644311	0.644311	0.0000000E+000	0.000000000000000E+000	0.0075279
1	1	0	1	0	0	0	943.184	10	0.753154	10.0004	2.64952	2.64952	0	0.735979	11	0.000554166	0.000000000000000E+000	2.78973e+09	0.000000000000000E+000	0.000000000000000E+000	0.735979	0.735979	0.0000000E+000	0.000000000000000E+000	0.00753182
1	1	0	1	0	0	0	976.184	10	0.753295	9.99973	2.97953	2.97953	0	0.827647	11	0.000623198	0.000000000000000E+000	2.73145e+09	0.000000000000000E+000	0.000000000000000E+000	0.827647	0.827647	0.0000000E+000	0.000000000000000E+000	0.00753275
1	1	0	1	0	0	0	1009.18	10	0.753488	10.0007	3.30953	3.30953	0	0.919315	11	0.000692263	0.000000000000000E+000	2.57859e+09	0.000000000000000E+000	0.000000000000000E+000	0.919315	0.919315	0.0000000E+000	0.000000000000000E+000	0.00753539
1	1	0	1	0	0	0	1042.18	10	0.753622	10.0005	3.63954	3.63954	0	1.01098	11	0.000761346	0.000000000000000E+000	2.56798e+09	0.000000000000000E+000	0.000000000000000E+000	1.01098	1.01098	0.0000000E+000	0.000000000000000E+000	0.00753659
1	1	0	1	0	0	0	1075.18	10	0.753991	10.0003	3.96954	3.96954	0	1.10265	11	0.000830445	0.000000000000000E+000	2.22223e+09	0.000000000000000E+000	0.000000000000000E+000	1.10265	1.10265	0.0000000E+000	0.000000000000000E+000	0.00754014
1	1	0	1	0	0	0	1108.18	10	0.754195	9.99992	4.29955	4.29955	0	1.19432	11	0.000899566	0.000000000000000E+000	2.15939e+09	0.000000000000000E+000	0.000000000000000E+000	1.19432	1.19432	0.0000000E+000	0.000000000000000E+000	0.0075419
1	1	0	1	0	0	0	1141.18	10	0.754538	10.0007	4.62956	4.62956	0	1.28599	11	0.000968719	0.000000000000000E+000	1.98358e+09	0.000000000000000E+000	0.000000000000000E+000	1.28599	1.28599	0.0000000E+000	0.000000000000000E+000	0.00754595
1	1	0	1	0	0	0	1174.18	10	0.754863	10.0002	4.95956	4.95956	0	1.37766	11	0.00103791	0.000000000000000E+000	1.8656e+09	0.000000000000000E+000	0.000000000000000E+000	1.37766	1.37766	0.0000000E+000	0.000000000000000E+000	0.00754881
1	1	0	1	0	0	0	1207.18	10	0.75545	10.0007	5.28957	5.28957	0	1.46932	11	0.00110714	0.000000000000000E+000	1.62953e+09	0.000000000000000E+000	0.000000000000000E+000	1.46932	1.46932	0.0000000E+000	0.000000000000000E+000	0.00755507
1	1	0	1	0	0	0	1240.18	10	0.755895	9.99961	5.61958	5.61958	0	1.56099	11	0.00117641	0.000000000000000E+000	1.52282e+09	0.000000000000000E+000	0.000000000000000E+000	1.56099	1.56099	0.0000000E+000	0.000000000000000E+000	0.00755865
1	1	0	1	0	0	0	1273.18	10	0.756303	9.99986	5.94958	5.94958	0	1.65266	11	0.00124571	0.000000000000000E+000	1.45174e+09	0.000000000000000E+000	0.000000000000000E+000	1.65266	1.65266	0.0000000E+000	0.000000000000000E+000	0.00756292
1	1	0	1	0	0	0	1306.18	10	0.756806	10.0003	6.27959	6.27959	0	1.74433	11	0.00131507	0.000000000000000E+000	1.36467e+09	0.000000000000000E+000	0.000000000000000E+000	1.74433	1.74433	0.0000000E+000	0.000000000000000E+000	0.00756829
1	1	0	1	0	0	0	1339.18	10	0.75719	10	6.60959	6.60959	0	1.836	11	0.00138445	0.000000000000000E+000	1.32567e+09	0.000000000000000E+000	0.000000000000000E+000	1.836	1.836	0.0000000E+000	0.000000000000000E+000	0.00757194
1	1	0	1	0	0	0	1372.18	10	0.757811	10.0002	6.9396	6.9396	0	1.92767	11	0.00145389	0.000000000000000E+000	1.23772e+09	0.000000000000000E+000	0.000000000000000E+000	1.92767	1.92767	0.0000000E+000	0.000000000000000E+000	0.00757824
1	1	0	1	0	0	0	1405.18	10	0.757969	10.0001	7.26961	7.26961	0	2.01934	11	0.00152336	0.000000000000000E+000	1.26113e+09	0.000000000000000E+000	0.000000000000000E+000	2.01934	2.01934	0.0000000E+000	0.000000000000000E+000	0.00757977
1	1	0	1	0	0	0	1438.18	10	0.758589	10.0007	7.59961	7.59961	0	2.111	11	0.00159288	0.000000000000000E+000	1.19031e+09	0.000000000000000E+000	0.000000000000000E+000	2.111	2.111	0.0000000E+000	0.000000000000000E+000	0.00758646
1	1	0	1	0	0	0	1471.18	10	0.759164	9.99999	7.92962	7.92962	0	2.20267	11	0.00166244	0.000000000000000E+000	1.1393e+09	0.000000000000000E+000	0.000000000000000E+000	2.20267	2.20267	0.0000000E+000	0.000000000000000E+000	0.00759163
1	1	0	1	0	0	0	1504.18	10	0.759801	10	8.25963	8.25963	0	2.29434	11	0.00173207	0.000000000000000E+000	1.08725e+09	0.000000000000000E+000	0.000000000000000E+000	2.29434	2.29434	0.0000000E+000	0.000000000000000E+000	0.00759805
1	1	0	1	0	0	0	1537.18	10	0.760408	10.0013	8.58963	8.58963	0	2.38601	11	0.00180176	0.000000000000000E+000	1.04705e+09	0.000000000000000E+000	0.000000000000000E+000	2.38601	2.38601	0.0000000E+000	0.000000000000000E+000	0.00760503
1	1	0	1	0	0	0	1570.18	10	0.760896	9.99999	8.91964	8.91964	0	2.47768	11	0.00187149	0.000000000000000E+000	1.02617e+09	0.000000000000000E+000	0.000000000000000E+000	2.47768	2.47768	0.0000000E+000	0.000000000000000E+000	0.00760895
1	1	0	1	0	0	0	1603.18	10	0.761587	10.0002	9.24965	9.24965	0	2.56935	11	0.00194128	0.000000000000000E+000	9.85829e+08	0.000000000000000E+000	0.000000000000000E+000	2.56935	2.56935	0.0000000E+000	0.000000000000000E+000	0.007616
1	1	0	1	0	0	0	1636.18	10	0.76204	9.99903	9.57965	9.57965	0	2.66101	11	0.00201111	0.000000000000000E+000	9.74007e+08	0.000000000000000E+000	0.000000000000000E+000	2.66101	2.66101	0.0000000E+000	0.000000000000000E+000	0.00761966
1	1	0	1	0	0	0	1669.18	10	0.76277	9.99973	9.90966	9.90966	0	2.75268	11	0.002081	0.000000000000000E+000	9.37935e+08	0.000000000000000E+000	0.000000000000000E+000	2.75268	2.75268	0.0000000E+000	0.000000000000000E+000	0.00762749
1	1	0	1	0	0	0	1702.18	10	0.763551	10.0005	10.2397	10.2397	0	2.84435	11	0.00215096	0.000000000000000E+000	9.02464e+08	0.000000000000000E+000	0.000000000000000E+000	2.84435	2.84435	0.0000000E+000	0.000000000000000E+000	0.00763588
1	1	0	1	0	0	0	1735.18	10	0.764196	9.99973	10.5697	10.5697	0	2.93602	11	0.00222098	0.000000000000000E+000	8.81448e+08	0.000000000000000E+000	0.000000000000000E+000	2.93602	2.93602	0.0000000E+000	0.000000000000000E+000	0.00764175
1	1	0	1	0	0	0	1768.18	10	0.764617	10.0008	10.8997	10.8997	0	3.02769	11	0.00229105	0.000000000000000E+000	8.78096e+08	0.000000000000000E+000	0.000000000000000E+000	3.02769	3.02769	0.0000000E+000	0.000000000000000E+000	0.00764679
1	1	0	1	0	0	0	1801.18	10	0.76551	9.99948	11.2297	11.2297	0	3.11936	11	0.00236119	0.000000000000000E+000	8.43985e+08	0.000000000000000E+000	0.000000000000000E+000	3.11936	3.11936	0.0000000E+000	0.000000000000000E+000	0.0076547
1	1	0	1	0	0	0	1834.18	10	0.765991	9.99973	11.5597	11.5597	0	3.21102	11	0.0024314	0.000000000000000E+000	8.38439e+08	0.000000000000000E+000	0.000000000000000E+000	3.21102	3.21102	0.0000000E+000	0.000000000000000E+000	0.00765971
1	1	0	1	0	0	0	1867.18	10	0.766602	10.0003	11.8897	11.8897	0	3.30269	11	0.00250165	0.000000000000000E+000	8.25806e+08	0.000000000000000E+000	0.000000000000000E+000	3.30269	3.30269	0.0000000E+000	0.000000000000000E+000	0.00766625
1	1	0	1	0	0	0	1900.18	10	0.767298	10.0003	12.2197	12.2197	0	3.39436	11	0.00257196	0.000000000000000E+000	8.09581e+08	0.000000000000000E+000	0.000000000000000E+000	3.39436	3.39436	0.0000000E+000	0.000000000000000E+000	0.00767322
1	1	0	1	0	0	0	1933.18	10	0.76825	9.99986	12.5497	12.5497	0	3.48603	11	0.00264235	0.000000000000000E+000	7.82103e+08	0.000000000000000E+000	0.000000000000000E+000	3.48603	3.48603	0.0000000E+000	0.000000000000000E+000	0.0076824
1	1	0	1	0	0	0	1966.18	10	0.769104	9.99992	12.8797	12.8797	0	3.5777	11	0.00271281	0.000000000000000E+000	7.62108e+08	0.000000000000000E+000	0.000000000000000E+000	3.5777	3.5777	0.0000000E+000	0.000000000000000E+000	0.00769099
1	1	0	1	0	0	0	1999.18	10	0.769679	10.0014	13.2097	13.2097	0	3.66937	11	0.00278332	0.000000000000000E+000	7.55941e+08	0.000000000000000E+000	0.000000000000000E+000	3.66937	3.66937	0.0000000E+000	0.000000000000000E+000	0.0076979
1	1	0	1	0	0	0	2032.18	10	0.770474	10.0007	13.5397	13.5397	0	3.76104	11	0.00285391	0.000000000000000E+000	7.41119e+08	0.000000000000000E+000	0.000000000000000E+000	3.76104	3.76104	0.0000000E+000	0.000000000000000E+000	0.00770531
1	1	0	1	0	0	0	2065.18	10	0.771312	10.0004	13.8697	13.8697	0	3.8527	11	0.00292457	0.000000000000000E+000	7.25865e+08	0.000000000000000E+000	0.000000000000000E+000	3.8527	3.8527	0.0000000E+000	0.000000000000000E+000	0.00771345
1	1	0	1	0	0	0	2098.18	10	0.771996	9.9998	14.1997	14.1997	0	3.94437	11	0.00299531	0.000000000000000E+000	7.17476e+08	0.000000000000000E+000	0.000000000000000E+000	3.94437	3.94437	0.0000000E+000	0.000000000000000E+000	0.0077198
1	1	0	1	0	0	0	2131.18	10	0.772797	9.99999	14.5297	14.5297	0	4.03604	11	0.0030661	0.000000000000000E+000	7.05568e+08	0.000000000000000E+000	0.000000000000000E+000	4.03604	4.03604	0.0000000E+000	0.000000000000000E+000	0.00772796
1	1	0	1	0	0	0	2164.18	10	0.773334	9.99954	14.8598	14.8598	0	4.12771	11	0.00313696	0.000000000000000E+000	7.03265e+08	0.000000000000000E+000	0.000000000000000E+000	4.12771	4.12771	0.0000000E+000	0.000000000000000E+000	0.00773299
1	1	0	1	0	0	0	2197.18	10	0.774125	10.0005	15.1898	15.1898	0	4.21938	11	0.00320788	0.000000000000000E+000	6.92933e+08	0.000000000000000E+000	0.000000000000000E+000	4.21938	4.21938	0.0000000E+000	0.000000000000000E+000	0.00774164
1	1	0	1	0	0	0	2230.18	10	0.774922	10.0003	15.5198	15.5198	0	4.31105	11	0.00327888	0.000000000000000E+000	6.83163e+08	0.000000000000000E+000	0.000000000000000E+000	4.31105	4.31105	0.0000000E+000	0.000000000000000E+000	0.00774945
1	1	0	1	0	0	0	2263.18	10	0.775671	9.99999	15.8498	15.8498	0	4.40272	11	0.00334995	0.000000000000000E+000	6.75429e+08	0.000000000000000E+000	0.000000000000000E+000	4.40272	4.40272	0.0000000E+000	0.000000000000000E+000	0.0077567
1	1	0	1	0	0	0	2296.18	10	0.776422	9.99967	16.1798	16.1798	0	4.49438	11	0.00342108	0.000000000000000E+000	6.68108e+08	0.000000000000000E+000	0.000000000000000E+000	4.49438	4.49438	0.0000000E+000	0.000000000000000E+000	0.00776396
1	1	0	1	0	0	0	2329.18	10	0.777134	10.0004	16.5098	16.5098	0	4.58605	11	0.00349229	0.000000000000000E+000	6.62249e+08	0.000000000000000E+000	0.000000000000000E+000	4.58605	4.58605	0.0000000E+000	0.000000000000000E+000	0.00777168
1	1	0	1	0	0	0	2362.18	10	0.777919	10.0009	16.8398	16.8398	0	4.67772	11	0.00356356	0.000000000000000E+000	6.54858e+08	0.000000000000000E+000	0.000000000000000E+000	4.67772	4.67772	0.0000000E+000	0.000000000000000E+000	0.00777988
1	1	0	1	0	0	0	2395.18	10	0.778433	10.0006	17.1698	17.1698	0	4.76939	11	0.0036349	0.000000000000000E+000	6.54629e+08	0.000000000000000E+000	0.000000000000000E+000	4.76939	4.76939	0.0000000E+000	0.000000000000000E+000	0.00778481
1	1	0	1	0	0	0	2428.18	10	0.779157	9.99999	17.4998	17.4998	0	4.86106	11	0.00370631	0.000000000000000E+000	6.49279e+08	0.000000000000000E+000	0.000000000000000E+000	4.86106	4.86106	0.0000000E+000	0.000000000000000E+000	0.00779156
1	1	0	1	0	0	0	2461.18	10	0.779888	10	17.8298	17.8298	0	4.95273	11	0.00377778	0.000000000000000E+000	6.44062e+08	0.000000000000000E+000	0.000000000000000E+000	4.95273	4.95273	0.0000000E+000	0.000000000000000E+000	0.00779892
1	1	0	1	0	0	0	2494.18	10	0.780632	9.99973	18.1598	18.1598	0	5.0444	11	0.00384931	0.000000000000000E+000	6.38806e+08	0.000000000000000E+000	0.000000000000000E+000	5.0444	5.0444	0.0000000E+000	0.000000000000000E+000	0.00780611
1	1	0	1	0	0	0	2527.18	10	0.781428	9.99935	18.4898	18.4898	0	5.13606	11	0.00392091	0.000000000000000E+000	6.32702e+08	0.000000000000000E+000	0.000000000000000E+000	5.13606	5.13606	0.0000000E+000	0.000000000000000E+000	0.00781377
1	1	0	1	0	0	0	2560.18	10	0.782189	10	18.8198	18.8198	0	5.22773	11	0.00399258	0.000000000000000E+000	6.27658e+08	0.000000000000000E+000	0.000000000000000E+000	5.22773	5.22773	0.0000000E+000	0.000000000000000E+000	0.00782192
1	1	0	1	0	0	0	2593.18	10	0.782855	9.99999	19.1498	19.1498	0	5.3194	11	0.00406431	0.000000000000000E+000	6.24774e+08	0.000000000000000E+000	0.000000000000000E+000	5.3194	5.3194	0.0000000E+000	0.000000000000000E+000	0.00782854
1	1	0	1	0	0	0	2626.18	10	0.783646	10.0008	19.4798	19.4798	0	5.41107	11	0.00413612	0.000000000000000E+000	6.19564e+08	0.000000000000000E+000	0.000000000000000E+000	5.41107	5.41107	0.0000000E+000	0.000000000000000E+000	0.00783709
1	1	0	1	0	0	0	2659.18	10	0.784088	9.99897	19.8099	19.8099	0	5.50274	11	0.00420798	0.000000000000000E+000	6.2132e+08	0.000000000000000E+000	0.000000000000000E+000	5.50274	5.50274	0.0000000E+000	0.000000000000000E+000	0.00784007
1	1	0	1	0	0	0	2692.18	10	0.783819	10.0003	20.1399	20.1399	0	5.59441	11	0.00427986	0.000000000000000E+000	6.37046e+08	0.000000000000000E+000	0.000000000000000E+000	5.59441	5.59441	0.0000000E+000	0.000000000000000E+000	0.00783843
1	1	0	1	0	0	0	2725.18	10	0.784165	10	20.4699	20.4699	0	5.68607	11	0.00435173	0.000000000000000E+000	6.40468e+08	0.000000000000000E+000	0.000000000000000E+000	5.68607	5.68607	0.0000000E+000	0.000000000000000E+000	0.00784169
1	1	0	1	0	0	0	2758.18	10	0.784914	9.99942	20.7999	20.7999	0	5.77774	11	0.00442366	0.000000000000000E+000	6.359e+08	0.000000000000000E+000	0.000000000000000E+000	5.77774	5.77774	0.0000000E+000	0.000000000000000E+000	0.00784868
1	1	0	1	0	0	0	2791.18	10	0.78552	10.0007	21.1299	21.1299	0	5.86941	11	0.00449565	0.000000000000000E+000	6.3424e+08	0.000000000000000E+000	0.000000000000000E+000	5.86941	5.86941	0.0000000E+000	0.000000000000000E+000	0.00785573
1	1	0	1	0	0	0	2824.18	10	0.78614	9.99954	21.4599	21.4599	0	5.96108	11	0.0045677	0.000000000000000E+000	6.32365e+08	0.000000000000000E+000	0.000000000000000E+000	5.96108	5.96108	0.0000000E+000	0.000000000000000E+000	0.00786104
1	1	0	1	0	0	0	2857.18	10	0.786924	10.0009	21.7899	21.7899	0	6.05275	11	0.00463981	0.000000000000000E+000	6.27593e+08	0.000000000000000E+000	0.000000000000000E+000	6.05275	6.05275	0.0000000E+000	0.000000000000000E+000	0.00786993
1	1	0	1	0	0	0	2890.18	10	0.787691	10.0004	22.1199	22.1199	0	6.14442	11	0.004712	0.000000000000000E+000	6.23335e+08	0.000000000000000E+000	0.000000000000000E+000	6.14442	6.14442	0.0000000E+000	0.000000000000000E+000	0.00787725
1	1	0	1	0	0	0	2923.18	10	0.788408	10.0006	22.4499	22.4499	0	6.23609	11	0.00478424	0.000000000000000E+000	6.20096e+08	0.000000000000000E+000	0.000000000000000E+000	6.23609	6.23609	0.0000000E+000	0.000000000000000E+000	0.00788452
1	1	0	1	0	0	0	2956.18	10	0.788902	9.99999	22.7799	22.7799	0	6.32776	11	0.00485653	0.000000000000000E+000	6.20749e+08	0.000000000000000E+000	0.000000000000000E+000	6.32776	6.32776	0.0000000E+000	0.000000000000000E+000	0.00788901
1	1	0	1	0	0	0	2989.18	10	0.789655	9.9998	23.1099	23.1099	0	6.41942	11	0.00492888	0.000000000000000E+000	6.17073e+08	0.000000000000000E+000	0.000000000000000E+000	6.41942	6.41942	0.0000000E+000	0.000000000000000E+000	0.00789639
1	1	0	1	0	0	0	3022.18	10	0.790307	10.0005	23.4399	23.4399	0	6.51109	11	0.00500129	0.000000000000000E+000	6.15185e+08	0.000000000000000E+000	0.000000000000000E+000	6.51109	6.51109	0.0000000E+000	0.000000000000000E+000	0.00790346
1	1	0	1	0	0	0	3055.18	10	0.790803	9.99935	23.7699	23.7699	0	6.60276	11	0.00507376	0.000000000000000E+000	6.15823e+08	0.000000000000000E+000	0.000000000000000E+000	6.60276	6.60276	0.0000000E+000	0.000000000000000E+000	0.00790752
1	1	0	1	0	0	0	3088.18	10	0.791623	10.0006	24.0999	24.0999	0	6.69443	11	0.0051463	0.000000000000000E+000	6.11382e+08	0.000000000000000E+000	0.000000000000000E+000	6.69443	6.69443	0.0000000E+000	0.000000000000000E+000	0.00791667
1	1	0	1	0	0	0	3121.18	10	0.792234	10.001	24.43	24.43	0	6.7861	11	0.00521889	0.000000000000000E+000	6.10301e+08	0.000000000000000E+000	0.000000000000000E+000	6.7861	6.7861	0.0000000E+000	0.000000000000000E+000	0.00792313
1	1	0	1	0	0	0	3154.18	10	0.792782	10.0007	24.76	24.76	0	6.87777	11	0.00529154	0.000000000000000E+000	6.10191e+08	0.000000000000000E+000	0.000000000000000E+000	6.87777	6.87777	0.0000000E+000	0.000000000000000E+000	0.00792836
1	1	0	1	0	0	0	3187.18	10	0.793306	9.99999	25.09	25.09	0	6.96943	11	0.00536424	0.000000000000000E+000	6.10442e+08	0.000000000000000E+000	0.000000000000000E+000	6.96943	6.96943	0.0000000E+000	0.000000000000000E+000	0.00793305
1	1	0	1	0	0	0	3220.18	10	0.793859	10.0001	25.42	25.42	0	7.0611	11	0.005437	0.000000000000000E+000	6.1025e+08	0.000000000000000E+000	0.000000000000000E+000	7.0611	7.0611	0.0000000E+000	0.000000000000000E+000	0.00793868
1	1	0	1	0	0	0	3253.18	10	0.794474	9.99954	25.75	25.75	0	7.15277	11	0.00550979	0.000000000000000E+000	6.09184e+08	0.000000000000000E+000	0.000000000000000E+000	7.15277	7.15277	0.0000000E+000	0.000000000000000E+000	0.00794438
1	1	0	1	0	0	0	3286.18	10	0.795016	9.9998	26.08	26.08	0	7.24444	11	0.00558264	0.000000000000000E+000	6.09183e+08	0.000000000000000E+000	0.000000000000000E+000	7.24444	7.24444	0.0000000E+000	0.000000000000000E+000	0.00795
1	1	0	1	0	0	0	3319.18	10	0.79565	10.0006	26.41	26.41	0	7.33611	11	0.00565555	0.000000000000000E+000	6.07883e+08	0.000000000000000E+000	0.000000000000000E+000	7.33611	7.33611	0.0000000E+000	0.000000000000000E+000	0.00795694
1	1	0	1	0	0	0	3352.18	10	0.796269	9.99935	26.74	26.74	0	7.42778	11	0.00572852	0.000000000000000E+000	6.0683e+08	0.000000000000000E+000	0.000000000000000E+000	7.42778	7.42778	0.0000000E+000	0.000000000000000E+000	0.00796218
1	1	0	1	0	0	0	3385.18	10	0.796797	9.99973	27.07	27.07	0	7.51944	11	0.00580155	0.000000000000000E+000	6.0705e+08	0.000000000000000E+000	0.000000000000000E+000	7.51944	7.51944	0.0000000E+000	0.000000000000000E+000	0.00796776
1	1	0	1	0	0	0	3418.18	10	0.79761	10.0002	27.4	27.4	0	7.61111	11	0.00587463	0.000000000000000E+000	6.03454e+08	0.000000000000000E+000	0.000000000000000E+000	7.61111	7.61111	0.0000000E+000	0.000000000000000E+000	0.00797629
1	1	0	1	0	0	0	3451.18	10	0.79791	10.0009	27.73	27.73	0	7.70278	11	0.00594775	0.000000000000000E+000	6.06702e+08	0.000000000000000E+000	0.000000000000000E+000	7.70278	7.70278	0.0000000E+000	0.000000000000000E+000	0.0079798
1	1	0	1	0	0	0	3484.18	10	0.798761	10.0008	28.06	28.06	0	7.79445	11	0.00602094	0.000000000000000E+000	6.02709e+08	0.000000000000000E+000	0.000000000000000E+000	7.79445	7.79445	0.0000000E+000	0.000000000000000E+000	0.00798826
1	1	0	1	0	0	0	3517.18	10	0.799255	10.0011	28.39	28.39	0	7.88612	11	0.00609419	0.000000000000000E+000	6.03387e+08	0.000000000000000E+000	0.000000000000000E+000	7.88612	7.88612	0.0000000E+000	0.000000000000000E+000	0.00799341
1	1	0	1	0	0	0	3550.18	10	0.79985	9.9998	28.72	28.72	0	7.97779	11	0.00616748	0.000000000000000E+000	6.02788e+08	0.000000000000000E+000	0.000000000000000E+000	7.97779	7.97779	0.0000000E+000	0.000000000000000E+000	0.00799833
1	1	0	1	0	0	0	3583.18	10	0.800301	9.99961	29.05	29.05	0	8.06945	11	0.00624082	0.000000000000000E+000	6.0399e+08	0.000000000000000E+000	0.000000000000000E+000	8.06945	8.06945	0.0000000E+000	0.000000000000000E+000	0.0080027
1	1	0	1	0	0	0	3616.18	10	0.801021	10.0006	29.38	29.38	0	8.16112	11	0.00631422	0.000000000000000E+000	6.01845e+08	0.000000000000000E+000	0.000000000000000E+000	8.16112	8.16112	0.0000000E+000	0.000000000000000E+000	0.00801071
1	1	0	1	0	0	0	3649.18	10	0.801577	10.0006	29.71	29.71	0	8.25279	11	0.00638767	0.000000000000000E+000	6.01752e+08	0.000000000000000E+000	0.000000000000000E+000	8.25279	8.25279	0.0000000E+000	0.000000000000000E+000	0.00801627
1	1	0	1	0	0	0	3682.18	10	0.802082	9.99973	30.0401	30.0401	0	8.34446	11	0.00646117	0.000000000000000E+000	6.02273e+08	0.000000000000000E+000	0.000000000000000E+000	8.34446	8.34446	0.0000000E+000	0.000000000000000E+000	0.00802061
1	1	0	1	0	0	0	3715.18	10	0.802684	10.0001	30.3701	30.3701	0	8.43613	11	0.00653472	0.000000000000000E+000	6.01626e+08	0.000000000000000E+000	0.000000000000000E+000	8.43613	8.43613	0.0000000E+000	0.000000000000000E+000	0.00802693
1	1	0	1	0	0	0	3748.18	10	0.803059	9.99992	30.7001	30.7001	0	8.52779	11	0.00660832	0.000000000000000E+000	6.03678e+08	0.000000000000000E+000	0.000000000000000E+000	8.52779	8.52779	0.0000000E+000	0.000000000000000E+000	0.00803053
1	1	0	1	0	0	0	3781.18	10	0.803868	9.99935	31.0301	31.0301	0	8.61946	11	0.00668197	0.000000000000000E+000	6.00614e+08	0.000000000000000E+000	0.000000000000000E+000	8.61946	8.61946	0.0000000E+000	0.000000000000000E+000	0.00803816
1	1	0	1	0	0	0	3814.18	10	0.804373	9.9998	31.3601	31.3601	0	8.71113	11	0.00675569	0.000000000000000E+000	6.01133e+08	0.000000000000000E+000	0.000000000000000E+000	8.71113	8.71113	0.0000000E+000	0.000000000000000E+000	0.00804356
1	1	0	1	0	0	0	3847.18	10	0.804776	9.99986	31.6901	31.6901	0	8.8028	11	0.00682945	0.000000000000000E+000	6.02793e+08	0.000000000000000E+000	0.000000000000000E+000	8.8028	8.8028	0.0000000E+000	0.000000000000000E+000	0.00804765
1	1	0	1	0	0	0	3880.18	10	0.805296	9.99961	32.0201	32.0201	0	8.89447	11	0.00690325	0.000000000000000E+000	6.0311e+08	0.000000000000000E+000	0.000000000000000E+000	8.89447	8.89447	0.0000000E+000	0.000000000000000E+000	0.00805264
1	1	0	1	0	0	0	3913.18	10	0.80589	10.0002	32.3501	32.3501	0	8.98614	11	0.0069771	0.000000000000000E+000	6.02588e+08	0.000000000000000E+000	0.000000000000000E+000	8.98614	8.98614	0.0000000E+000	0.000000000000000E+000	0.00805904
1	1	0	1	0	0	0	3946.18	10	0.806263	10.0004	32.6801	32.6801	0	9.0778	11	0.00705098	0.000000000000000E+000	6.04531e+08	0.000000000000000E+000	0.000000000000000E+000	9.0778	9.0778	0.0000000E+000	0.000000000000000E+000	0.00806298
1	1	0	1	0	0	0	3979.18	10	0.806827	9.99973	33.0101	33.0101	0	9.16947	11	0.00712492	0.000000000000000E+000	6.04331e+08	0.000000000000000E+000	0.000000000000000E+000	9.16947	9.16947	0.0000000E+000	0.000000000000000E+000	0.00806805
1	1	0	1	0	0	0	4012.18	10	0.807332	9.99986	33.3401	33.3401	0	9.26114	11	0.00719891	0.000000000000000E+000	6.04778e+08	0.000000000000000E+000	0.000000000000000E+000	9.26114	9.26114	0.0000000E+000	0.000000000000000E+000	0.00807321
1	1	0	1	0	0	0	4045.18	10	0.807931	10.0007	33.6701	33.6701	0	9.35281	11	0.00727294	0.000000000000000E+000	6.04203e+08	0.000000000000000E+000	0.000000000000000E+000	9.35281	9.35281	0.0000000E+000	0.000000000000000E+000	0.00807991
1	1	0	1	0	0	0	4078.18	10	0.808409	9.99967	34.0001	34.0001	0	9.44448	11	0.00734702	0.000000000000000E+000	6.04932e+08	0.000000000000000E+000	0.000000000000000E+000	9.44448	9.44448	0.0000000E+000	0.000000000000000E+000	0.00808382
1	1	0	1	0	0	0	4111.18	10	0.808883	9.99973	34.3301	34.3301	0	9.53614	11	0.00742115	0.000000000000000E+000	6.05692e+08	0.000000000000000E+000	0.000000000000000E+000	9.53614	9.53614	0.0000000E+000	0.000000000000000E+000	0.00808862
1	1	0	1	0	0	0	4144.18	10	0.809592	10.0003	34.6601	34.6601	0	9.62781	11	0.00749534	0.000000000000000E+000	6.03965e+08	0.000000000000000E+000	0.000000000000000E+000	9.62781	9.62781	0.0000000E+000	0.000000000000000E+000	0.00809617
1	1	0	1	0	0	0	4177.18	10	0.810017	10.0002	34.9901	34.9901	0	9.71948	11	0.00756958	0.000000000000000E+000	6.05231e+08	0.000000000000000E+000	0.000000000000000E+000	9.71948	9.71948	0.0000000E+000	0.000000000000000E+000	0.00810031
1	1	0	1	0	0	0	4210.18	10	0.810552	10.0004	35.3201	35.3201	0	9.81115	11	0.00764386	0.000000000000000E+000	6.0534e+08	0.000000000000000E+000	0.000000000000000E+000	9.81115	9.81115	0.0000000E+000	0.000000000000000E+000	0.00810582
1	1	0	1	0	0	0	4243.18	10	0.810859	9.99986	35.6501	35.6501	0	9.90282	11	0.00771817	0.000000000000000E+000	6.07795e+08	0.000000000000000E+000	0.000000000000000E+000	9.90282	9.90282	0.0000000E+000	0.000000000000000E+000	0.00810848
1	1	0	1	0	0	0	4276.18	10	0.811315	10	35.9801	35.9801	0	9.99448	11	0.00779253	0.000000000000000E+000	6.08695e+08	0.000000000000000E+000	0.000000000000000E+000	9.99448	9.99448	0.0000000E+000	0.000000000000000E+000	0.00811319
1	1	0	1	0	0	0	4309.18	10	0.811757	10.0002	36.3102	36.3102	0	10.0862	11	0.00786692	0.000000000000000E+000	6.09713e+08	0.000000000000000E+000	0.000000000000000E+000	10.0862	10.0862	0.0000000E+000	0.000000000000000E+000	0.00811777
1	1	0	1	0	0	0	4342.18	10	0.812173	10.0005	36.6402	36.6402	0	10.1778	11	0.00794135	0.000000000000000E+000	6.10986e+08	0.000000000000000E+000	0.000000000000000E+000	10.1778	10.1778	0.0000000E+000	0.000000000000000E+000	0.00812213
1	1	0	1	0	0	0	4375.18	10	0.812786	10.0005	36.9702	36.9702	0	10.2695	11	0.00801583	0.000000000000000E+000	6.10257e+08	0.000000000000000E+000	0.000000000000000E+000	10.2695	10.2695	0.0000000E+000	0.000000000000000E+000	0.00812826
1	1	0	1	0	0	0	4408.18	10	0.81354	10.0002	37.3002	37.3002	0	10.3612	11	0.00809037	0.000000000000000E+000	6.08127e+08	0.000000000000000E+000	0.000000000000000E+000	10.3612	10.3612	0.0000000E+000	0.000000000000000E+000	0.00813555
1	1	0	1	0	0	0	4441.18	10	0.814123	9.99999	37.6302	37.6302	0	10.4528	11	0.00816497	0.000000000000000E+000	6.07735e+08	0.000000000000000E+000	0.000000000000000E+000	10.4528	10.4528	0.0000000E+000	0.000000000000000E+000	0.00814122
1	1	0	1	0	0	0	4474.18	10	0.814412	10.0006	37.9602	37.9602	0	10.5445	11	0.00823961	0.000000000000000E+000	6.10216e+08	0.000000000000000E+000	0.000000000000000E+000	10.5445	10.5445	0.0000000E+000	0.000000000000000E+000	0.00814457
1	1	0	1	0	0	0	4507.18	10	0.814893	10.0004	38.2902	38.2902	0	10.6362	11	0.00831429	0.000000000000000E+000	6.10797e+08	0.000000000000000E+000	0.000000000000000E+000	10.6362	10.6362	0.0000000E+000	0.000000000000000E+000	0.00814928
1	1	0	1	0	0	0	4540.18	10	0.815571	10.0004	38.6202	38.6202	0	10.7278	11	0.00838903	0.000000000000000E+000	6.09468e+08	0.000000000000000E+000	0.000000000000000E+000	10.7278	10.7278	0.0000000E+000	0.000000000000000E+000	0.00815606
1	1	0	1	0	0	0	4573.18	10	0.815852	10.0009	38.9502	38.9502	0	10.8195	11	0.0084638	0.000000000000000E+000	6.11967e+08	0.000000000000000E+000	0.000000000000000E+000	10.8195	10.8195	0.0000000E+000	0.000000000000000E+000	0.00815928
1	1	0	1	0	0	0	4606.18	10	0.816173	10.0004	39.2802	39.2802	0	10.9112	11	0.0085386	0.000000000000000E+000	6.14055e+08	0.000000000000000E+000	0.000000000000000E+000	10.9112	10.9112	0.0000000E+000	0.000000000000000E+000	0.00816208
1	1	0	1	0	0	0	4639.18	10	0.816691	10.0004	39.6102	39.6102	0	11.0028	11	0.00861345	0.000000000000000E+000	6.14243e+08	0.000000000000000E+000	0.000000000000000E+000	11.0028	11.0028	0.0000000E+000	0.000000000000000E+000	0.00816721
1	1	0	1	0	0	0	4672.18	10	0.816976	10.0006	39.9402	39.9402	0	11.0945	11	0.00868832	0.000000000000000E+000	6.16627e+08	0.000000000000000E+000	0.000000000000000E+000	11.0945	11.0945	0.0000000E+000	0.000000000000000E+000	0.00817022
1	1	0	1	0	0	0	4705.18	10	0.818648	10.0007	40.2702	40.2702	0	11.1862	11	0.00876335	0.000000000000000E+000	6.06083e+08	0.000000000000000E+000	0.000000000000000E+000	11.1862	11.1862	0.0000000E+000	0.000000000000000E+000	0.00818704
1	1	0	1	0	0	0	4738.18	10	0.819028	9.99961	40.6002	40.6002	0	11.2778	11	0.0088384	0.000000000000000E+000	6.07574e+08	0.000000000000000E+000	0.000000000000000E+000	11.2778	11.2778	0.0000000E+000	0.000000000000000E+000	0.00818995
1	1	0	1	0	0	0	4771.18	10	0.819506	10.0006	40.9302	40.9302	0	11.3695	11	0.0089135	0.000000000000000E+000	6.08156e+08	0.000000000000000E+000	0.000000000000000E+000	11.3695	11.3695	0.0000000E+000	0.000000000000000E+000	0.00819552
1	1	0	1	0	0	0	4804.18	10	0.819973	10.0004	41.2602	41.2602	0	11.4612	11	0.00898865	0.000000000000000E+000	6.08835e+08	0.000000000000000E+000	0.000000000000000E+000	11.4612	11.4612	0.0000000E+000	0.000000000000000E+000	0.00820004
1	1	0	1	0	0	0	4837.18	10	0.820583	10.0003	41.5902	41.5902	0	11.5528	11	0.00906384	0.000000000000000E+000	6.08236e+08	0.000000000000000E+000	0.000000000000000E+000	11.5528	11.5528	0.0000000E+000	0.000000000000000E+000	0.00820608
1	1	0	1	0	0	0	4870.18	10	0.820807	10.0001	41.9202	41.9202	0	11.6445	11	0.00913908	0.000000000000000E+000	6.11057e+08	0.000000000000000E+000	0.000000000000000E+000	11.6445	11.6445	0.0000000E+000	0.000000000000000E+000	0.00820816
1	1	0	1	0	0	0	4903.18	10	0.821398	10.0001	42.2503	42.2503	0	11.7362	11	0.00921435	0.000000000000000E+000	6.10606e+08	0.000000000000000E+000	0.000000000000000E+000	11.7362	11.7362	0.0000000E+000	0.000000000000000E+000	0.00821408
1	1	0	1	0	0	0	4936.18	10	0.821832	10.0003	42.5803	42.5803	0	11.8278	11	0.00928967	0.000000000000000E+000	6.11545e+08	0.000000000000000E+000	0.000000000000000E+000	11.8278	11.8278	0.0000000E+000	0.000000000000000E+000	0.00821857
1	1	0	1	0	0	0	4969.18	10	0.822403	9.99986	42.9103	42.9103	0	11.9195	11	0.00936503	0.000000000000000E+000	6.11264e+08	0.000000000000000E+000	0.000000000000000E+000	11.9195	11.9195	0.0000000E+000	0.000000000000000E+000	0.00822392
1	1	0	1	0	0	0	5002.18	10	0.822913	9.99948	43.2403	43.2403	0	12.0112	11	0.00944044	0.000000000000000E+000	6.11523e+08	0.000000000000000E+000	0.000000000000000E+000	12.0112	12.0112	0.0000000E+000	0.000000000000000E+000	0.00822871
1	1	0	1	0	0	0	5035.18	10	0.823281	10.0002	43.5703	43.5703	0	12.1029	11	0.0095159	0.000000000000000E+000	6.13003e+08	0.000000000000000E+000	0.000000000000000E+000	12.1029	12.1029	0.0000000E+000	0.000000000000000E+000	0.00823301
1	1	0	1	0	0	0	5068.18	10	0.823746	10	43.9003	43.9003	0	12.1945	11	0.00959139	0.000000000000000E+000	6.13635e+08	0.000000000000000E+000	0.000000000000000E+000	12.1945	12.1945	0.0000000E+000	0.000000000000000E+000	0.0082375
1	1	0	1	0	0	0	5101.18	10	0.824219	10.0006	44.2303	44.2303	0	12.2862	11	0.00966693	0.000000000000000E+000	6.14182e+08	0.000000000000000E+000	0.000000000000000E+000	12.2862	12.2862	0.0000000E+000	0.000000000000000E+000	0.00824265
1	1	0	1	0	0	0	5134.18	10	0.824889	10.0004	44.5603	44.5603	0	12.3779	11	0.00974251	0.000000000000000E+000	6.1306e+08	0.000000000000000E+000	0.000000000000000E+000	12.3779	12.3779	0.0000000E+000	0.000000000000000E+000	0.0082492
1	1	0	1	0	0	0	5167.18	10	0.825207	10.0003	44.8903	44.8903	0	12.4695	11	0.00981814	0.000000000000000E+000	6.14909e+08	0.000000000000000E+000	0.000000000000000E+000	12.4695	12.4695	0.0000000E+000	0.000000000000000E+000	0.00825233
1	1	0	1	0	0	0	5200.18	10	0.825677	9.99967	45.2203	45.2203	0	12.5612	11	0.00989381	0.000000000000000E+000	6.15468e+08	0.000000000000000E+000	0.000000000000000E+000	12.5612	12.5612	0.0000000E+000	0.000000000000000E+000	0.0082565
1	1	0	1	0	0	0	5233.18	10	0.826449	10.0001	45.5503	45.5503	0	12.6529	11	0.00996952	0.000000000000000E+000	6.13519e+08	0.000000000000000E+000	0.000000000000000E+000	12.6529	12.6529	0.0000000E+000	0.000000000000000E+000	0.00826458
1	1	0	1	0	0	0	5266.18	10	0.826682	9.99973	45.8803	45.8803	0	12.7445	11	0.0100453	0.000000000000000E+000	6.16026e+08	0.000000000000000E+000	0.000000000000000E+000	12.7445	12.7445	0.0000000E+000	0.000000000000000E+000	0.0082666
1	1	0	1	0	0	0	5299.18	10	0.827147	10.0002	46.2103	46.2103	0	12.8362	11	0.0101211	0.000000000000000E+000	6.16606e+08	0.000000000000000E+000	0.000000000000000E+000	12.8362	12.8362	0.0000000E+000	0.000000000000000E+000	0.00827162
1	1	0	1	0	0	0	5332.18	10	0.827529	10.0002	46.5403	46.5403	0	12.9279	11	0.0101969	0.000000000000000E+000	6.1786e+08	0.000000000000000E+000	0.000000000000000E+000	12.9279	12.9279	0.0000000E+000	0.000000000000000E+000	0.00827544
1	1	0	1	0	0	0	5365.18	10	0.827846	10.0006	46.8703	46.8703	0	13.0195	11	0.0102728	0.000000000000000E+000	6.1964e+08	0.000000000000000E+000	0.000000000000000E+000	13.0195	13.0195	0.0000000E+000	0.000000000000000E+000	0.00827892
1	1	0	1	0	0	0	5398.18	10	0.828223	9.99992	47.2004	47.2004	0	13.1112	11	0.0103487	0.000000000000000E+000	6.20906e+08	0.000000000000000E+000	0.000000000000000E+000	13.1112	13.1112	0.0000000E+000	0.000000000000000E+000	0.00828216
1	1	0	1	0	0	0	5431.18	10	0.828607	10.0002	47.5304	47.5304	0	13.2029	11	0.0104247	0.000000000000000E+000	6.22101e+08	0.000000000000000E+000	0.000000000000000E+000	13.2029	13.2029	0.0000000E+000	0.000000000000000E+000	0.00828622
1	1	0	1	0	0	0	5464.18	10	0.82916	10	47.8604	47.8604	0	13.2945	11	0.0105007	0.000000000000000E+000	6.21925e+08	0.000000000000000E+000	0.000000000000000E+000	13.2945	13.2945	0.0000000E+000	0.000000000000000E+000	0.00829164
1	1	0	1	0	0	0	5497.18	10	0.829724	10.0006	48.1904	48.1904	0	13.3862	11	0.0105767	0.000000000000000E+000	6.21656e+08	0.000000000000000E+000	0.000000000000000E+000	13.3862	13.3862	0.0000000E+000	0.000000000000000E+000	0.00829775
1	1	0	1	0	0	0	5530.18	10	0.830165	10	48.5204	48.5204	0	13.4779	11	0.0106528	0.000000000000000E+000	6.22372e+08	0.000000000000000E+000	0.000000000000000E+000	13.4779	13.4779	0.0000000E+000	0.000000000000000E+000	0.00830169
1	1	0	1	0	0	0	5563.18	10	0.830628	10.0006	48.8504	48.8504	0	13.5696	11	0.0107289	0.000000000000000E+000	6.229e+08	0.000000000000000E+000	0.000000000000000E+000	13.5696	13.5696	0.0000000E+000	0.000000000000000E+000	0.0083068
1	1	0	1	0	0	0	5596.18	10	0.831242	10.0006	49.1804	49.1804	0	13.6612	11	0.0108051	0.000000000000000E+000	6.22243e+08	0.000000000000000E+000	0.000000000000000E+000	13.6612	13.6612	0.0000000E+000	0.000000000000000E+000	0.00831288
1	1	0	1	0	0	0	5629.18	10	0.831557	9.99973	49.5104	49.5104	0	13.7529	11	0.0108813	0.000000000000000E+000	6.23931e+08	0.000000000000000E+000	0.000000000000000E+000	13.7529	13.7529	0.0000000E+000	0.000000000000000E+000	0.00831535
1	1	0	1	0	0	0	5662.18	10	0.831918	9.9998	49.8404	49.8404	0	13.8446	11	0.0109575	0.000000000000000E+000	6.25244e+08	0.000000000000000E+000	0.000000000000000E+000	13.8446	13.8446	0.0000000E+000	0.000000000000000E+000	0.00831901
1	1	0	1	0	0	0	5695.18	10	0.832401	10.0003	50.1704	50.1704	0	13.9362	11	0.0110338	0.000000000000000E+000	6.25595e+08	0.000000000000000E+000	0.000000000000000E+000	13.9362	13.9362	0.0000000E+000	0.000000000000000E+000	0.00832426
1	1	0	1	0	0	0	5728.18	10	0.832922	9.99986	50.5004	50.5004	0	14.0279	11	0.0111102	0.000000000000000E+000	6.25645e+08	0.000000000000000E+000	0.000000000000000E+000	14.0279	14.0279	0.0000000E+000	0.000000000000000E+000	0.0083291
1	1	0	1	0	0	0	5761.18	10	0.833487	10.0004	50.8304	50.8304	0	14.1196	11	0.0111865	0.000000000000000E+000	6.25357e+08	0.000000000000000E+000	0.000000000000000E+000	14.1196	14.1196	0.0000000E+000	0.000000000000000E+000	0.00833517
1	1	0	1	0	0	0	5794.18	10	0.834005	10.0009	51.1604	51.1604	0	14.2112	11	0.011263	0.000000000000000E+000	6.25431e+08	0.000000000000000E+000	0.000000000000000E+000	14.2112	14.2112	0.0000000E+000	0.000000000000000E+000	0.00834077
1	1	0	1	0	0	0	5827.18	10	0.834436	10.0006	51.4904	51.4904	0	14.3029	11	0.0113394	0.000000000000000E+000	6.26161e+08	0.000000000000000E+000	0.000000000000000E+000	14.3029	14.3029	0.0000000E+000	0.000000000000000E+000	0.00834483
1	1	0	1	0	0	0	5860.18	10	0.834977	10.0002	51.8204	51.8204	0	14.3946	11	0.0114159	0.000000000000000E+000	6.26056e+08	0.000000000000000E+000	0.000000000000000E+000	14.3946	14.3946	0.0000000E+000	0.000000000000000E+000	0.00834992
1	1	0	1	0	0	0	5893.18	10	0.835171	10.0013	52.1504	52.1504	0	14.4862	11	0.0114925	0.000000000000000E+000	6.28572e+08	0.000000000000000E+000	0.000000000000000E+000	14.4862	14.4862	0.0000000E+000	0.000000000000000E+000	0.00835281
1	1	0	1	0	0	0	5926.18	10	0.835617	10.0002	52.4805	52.4805	0	14.5779	11	0.0115691	0.000000000000000E+000	6.29166e+08	0.000000000000000E+000	0.000000000000000E+000	14.5779	14.5779	0.0000000E+000	0.000000000000000E+000	0.00835632
1	1	0	1	0	0	0	5959.18	10	0.836136	10.0002	52.8105	52.8105	0	14.6696	11	0.0116457	0.000000000000000E+000	6.29208e+08	0.000000000000000E+000	0.000000000000000E+000	14.6696	14.6696	0.0000000E+000	0.000000000000000E+000	0.00836156
1	1	0	1	0	0	0	5992.18	10	0.836598	9.99986	53.1405	53.1405	0	14.7612	11	0.0117224	0.000000000000000E+000	6.29676e+08	0.000000000000000E+000	0.000000000000000E+000	14.7612	14.7612	0.0000000E+000	0.000000000000000E+000	0.00836586
1	1	0	1	0	0	0	6025.18	10	0.837212	10.0003	53.4705	53.4705	0	14.8529	11	0.0117991	0.000000000000000E+000	6.29007e+08	0.000000000000000E+000	0.000000000000000E+000	14.8529	14.8529	0.0000000E+000	0.000000000000000E+000	0.00837238
1	1	0	1	0	0	0	6058.18	10	0.837663	9.99922	53.8005	53.8005	0	14.9446	11	0.0118759	0.000000000000000E+000	6.29546e+08	0.000000000000000E+000	0.000000000000000E+000	14.9446	14.9446	0.0000000E+000	0.000000000000000E+000	0.00837598
1	1	0	1	0	0	0	6091.18	10	0.838058	10.0004	54.1305	54.1305	0	15.0362	11	0.0119527	0.000000000000000E+000	6.30496e+08	0.000000000000000E+000	0.000000000000000E+000	15.0362	15.0362	0.0000000E+000	0.000000000000000E+000	0.00838094
1	1	0	1	0	0	0	6124.18	10	0.838537	10.0004	54.4605	54.4605	0	15.1279	11	0.0120295	0.000000000000000E+000	6.30818e+08	0.000000000000000E+000	0.000000000000000E+000	15.1279	15.1279	0.0000000E+000	0.000000000000000E+000	0.00838568
1	1	0	1	0	0	0	6157.18	10	0.838957	10.0003	54.7905	54.7905	0	15.2196	11	0.0121064	0.000000000000000E+000	6.31573e+08	0.000000000000000E+000	0.000000000000000E+000	15.2196	15.2196	0.0000000E+000	0.000000000000000E+000	0.00838982
1	1	0	1	0	0	0	6190.18	10	0.839535	9.99954	55.1205	55.1205	0	15.3113	11	0.0121833	0.000000000000000E+000	6.31173e+08	0.000000000000000E+000	0.000000000000000E+000	15.3113	15.3113	0.0000000E+000	0.000000000000000E+000	0.00839496
1	1	0	1	0	0	0	6223.18	10	0.839904	9.9998	55.4505	55.4505	0	15.4029	11	0.0122603	0.000000000000000E+000	6.32274e+08	0.000000000000000E+000	0.000000000000000E+000	15.4029	15.4029	0.0000000E+000	0.000000000000000E+000	0.00839887
1	1	0	1	0	0	0	6256.18	10	0.840164	10.0001	55.7805	55.7805	0	15.4946	11	0.0123373	0.000000000000000E+000	6.34161e+08	0.000000000000000E+000	0.000000000000000E+000	15.4946	15.4946	0.0000000E+000	0.000000000000000E+000	0.00840173
1	1	0	1	0	0	0	6289.18	10	0.840585	10.0003	56.1105	56.1105	0	15.5863	11	0.0124144	0.000000000000000E+000	6.34877e+08	0.000000000000000E+000	0.000000000000000E+000	15.5863	15.5863	0.0000000E+000	0.000000000000000E+000	0.0084061
1	1	0	1	0	0	0	6322.18	10	0.84088	10.0008	56.4405	56.4405	0	15.6779	11	0.0124914	0.000000000000000E+000	6.36482e+08	0.000000000000000E+000	0.000000000000000E+000	15.6779	15.6779	0.0000000E+000	0.000000000000000E+000	0.00840948
1	1	0	1	0	0	0	6355.18	10	0.841561	10.0006	56.7705	56.7705	0	15.7696	11	0.0125685	0.000000000000000E+000	6.35322e+08	0.000000000000000E+000	0.000000000000000E+000	15.7696	15.7696	0.0000000E+000	0.000000000000000E+000	0.00841608
1	1	0	1	0	0	0	6388.18	10	0.841656	10.0011	57.1006	57.1006	0	15.8613	11	0.0126457	0.000000000000000E+000	6.38341e+08	0.000000000000000E+000	0.000000000000000E+000	15.8613	15.8613	0.0000000E+000	0.000000000000000E+000	0.00841745
1	1	0	1	0	0	0	6421.18	10	0.841931	10.0004	57.4306	57.4306	0	15.9529	11	0.0127229	0.000000000000000E+000	6.40058e+08	0.000000000000000E+000	0.000000000000000E+000	15.9529	15.9529	0.0000000E+000	0.000000000000000E+000	0.00841968
1	1	0	1	0	0	0	6454.18	10	0.842417	9.99986	57.7606	57.7606	0	16.0446	11	0.0128001	0.000000000000000E+000	6.40273e+08	0.000000000000000E+000	0.000000000000000E+000	16.0446	16.0446	0.0000000E+000	0.000000000000000E+000	0.00842405
1	1	0	1	0	0	0	6487.18	10	0.842843	10.0003	58.0906	58.0906	0	16.1363	11	0.0128773	0.000000000000000E+000	6.409e+08	0.000000000000000E+000	0.000000000000000E+000	16.1363	16.1363	0.0000000E+000	0.000000000000000E+000	0.00842869
1	1	0	1	0	0	0	6520.18	10	0.843115	10.0005	58.4206	58.4206	0	16.2279	11	0.0129546	0.000000000000000E+000	6.42613e+08	0.000000000000000E+000	0.000000000000000E+000	16.2279	16.2279	0.0000000E+000	0.000000000000000E+000	0.00843157
1	1	0	1	0	0	0	6553.18	10	0.843534	10.0002	58.7506	58.7506	0	16.3196	11	0.0130319	0.000000000000000E+000	6.43281e+08	0.000000000000000E+000	0.000000000000000E+000	16.3196	16.3196	0.0000000E+000	0.000000000000000E+000	0.00843549
1	1	0	1	0	0	0	6586.18	10	0.844067	10	59.0806	59.0806	0	16.4113	11	0.0131092	0.000000000000000E+000	6.43143e+08	0.000000000000000E+000	0.000000000000000E+000	16.4113	16.4113	0.0000000E+000	0.000000000000000E+000	0.00844071
1	1	0	1	0	0	0	6619.18	10	0.844212	10.0005	59.4106	59.4106	0	16.5029	11	0.0131866	0.000000000000000E+000	6.45714e+08	0.000000000000000E+000	0.000000000000000E+000	16.5029	16.5029	0.0000000E+000	0.000000000000000E+000	0.00844254
1	1	0	1	0	0	0	6652.18	10	0.844853	9.99967	59.7406	59.7406	0	16.5946	11	0.013264	0.000000000000000E+000	6.44809e+08	0.000000000000000E+000	0.000000000000000E+000	16.5946	16.5946	0.0000000E+000	0.000000000000000E+000	0.00844825
1	1	0	1	0	0	0	6685.18	10	0.844871	10	60.0706	60.0706	0	16.6863	11	0.0133415	0.000000000000000E+000	6.48246e+08	0.000000000000000E+000	0.000000000000000E+000	16.6863	16.6863	0.0000000E+000	0.000000000000000E+000	0.00844875
1	1	0	1	0	0	0	6718.18	10	0.845604	10.0002	60.4006	60.4006	0	16.7779	11	0.013419	0.000000000000000E+000	6.46688e+08	0.000000000000000E+000	0.000000000000000E+000	16.7779	16.7779	0.0000000E+000	0.000000000000000E+000	0.00845625
1	1	0	1	0	0	0	6751.18	10	0.845808	10.0009	60.7306	60.7306	0	16.8696	11	0.0134965	0.000000000000000E+000	6.48807e+08	0.000000000000000E+000	0.000000000000000E+000	16.8696	16.8696	0.0000000E+000	0.000000000000000E+000	0.00845887
1	1	0	1	0	0	0	6784.18	10	0.846383	9.99986	61.0606	61.0606	0	16.9613	11	0.013574	0.000000000000000E+000	6.48349e+08	0.000000000000000E+000	0.000000000000000E+000	16.9613	16.9613	0.0000000E+000	0.000000000000000E+000	0.00846371
1	1	0	1	0	0	0	6817.18	10	0.846456	10.0003	61.3906	61.3906	0	17.053	11	0.0136516	0.000000000000000E+000	6.51349e+08	0.000000000000000E+000	0.000000000000000E+000	17.053	17.053	0.0000000E+000	0.000000000000000E+000	0.00846482
1	1	0	1	0	0	0	6850.18	10	0.847045	10.0004	61.7206	61.7206	0	17.1446	11	0.0137292	0.000000000000000E+000	6.5078e+08	0.000000000000000E+000	0.000000000000000E+000	17.1446	17.1446	0.0000000E+000	0.000000000000000E+000	0.00847076
1	1	0	1	0	0	0	6883.18	10	0.84716	10.0005	62.0507	62.0507	0	17.2363	11	0.0138069	0.000000000000000E+000	6.53467e+08	0.000000000000000E+000	0.000000000000000E+000	17.2363	17.2363	0.0000000E+000	0.000000000000000E+000	0.00847202
1	1	0	1	0	0	0	6916.18	10	0.847861	9.99948	62.3807	62.3807	0	17.328	11	0.0138846	0.000000000000000E+000	6.52127e+08	0.000000000000000E+000	0.000000000000000E+000	17.328	17.328	0.0000000E+000	0.000000000000000E+000	0.00847817
1	1	0	1	0	0	0	6949.18	10	0.848076	9.99992	62.7107	62.7107	0	17.4196	11	0.0139623	0.000000000000000E+000	6.54112e+08	0.000000000000000E+000	0.000000000000000E+000	17.4196	17.4196	0.0000000E+000	0.000000000000000E+000	0.00848069
1	1	0	1	0	0	0	6982.18	10	0.848671	10.0006	63.0407	63.0407	0	17.5113	11	0.0140401	0.000000000000000E+000	6.53495e+08	0.000000000000000E+000	0.000000000000000E+000	17.5113	17.5113	0.0000000E+000	0.000000000000000E+000	0.00848719
1	1	0	1	0	0	0	7015.18	10	0.8489	9.99992	63.3707	63.3707	0	17.603	11	0.0141179	0.000000000000000E+000	6.55365e+08	0.000000000000000E+000	0.000000000000000E+000	17.603	17.603	0.0000000E+000	0.000000000000000E+000	0.00848893
1	1	0	1	0	0	0	7048.18	10	0.849451	10.0002	63.7007	63.7007	0	17.6946	11	0.0141957	0.000000000000000E+000	6.55043e+08	0.000000000000000E+000	0.000000000000000E+000	17.6946	17.6946	0.0000000E+000	0.000000000000000E+000	0.00849466
1	1	0	1	0	0	0	7081.18	10	0.84948	10.0004	64.0307	64.0307	0	17.7863	11	0.0142736	0.000000000000000E+000	6.5824e+08	0.000000000000000E+000	0.000000000000000E+000	17.7863	17.7863	0.0000000E+000	0.000000000000000E+000	0.00849511
1	1	0	1	0	0	0	7114.18	10	0.849979	9.9998	64.3607	64.3607	0	17.878	11	0.0143515	0.000000000000000E+000	6.58254e+08	0.000000000000000E+000	0.000000000000000E+000	17.878	17.878	0.0000000E+000	0.000000000000000E+000	0.00849962
1	1	0	1	0	0	0	7147.18	10	0.850229	10.0009	64.6907	64.6907	0	17.9696	11	0.0144294	0.000000000000000E+000	6.59941e+08	0.000000000000000E+000	0.000000000000000E+000	17.9696	17.9696	0.0000000E+000	0.000000000000000E+000	0.00850309
1	1	0	1	0	0	0	7180.18	10	0.850602	10	65.0207	65.0207	0	18.0613	11	0.0145074	0.000000000000000E+000	6.60794e+08	0.000000000000000E+000	0.000000000000000E+000	18.0613	18.0613	0.0000000E+000	0.000000000000000E+000	0.00850606
1	1	0	1	0	0	0	7213.18	10	0.850789	10.0004	65.3507	65.3507	0	18.153	11	0.0145854	0.000000000000000E+000	6.62892e+08	0.000000000000000E+000	0.000000000000000E+000	18.153	18.153	0.0000000E+000	0.000000000000000E+000	0.00850825
1	1	0	1	0	0	0	7246.18	10	0.851211	10.0004	65.6807	65.6807	0	18.2446	11	0.0146634	0.000000000000000E+000	6.63397e+08	0.000000000000000E+000	0.000000000000000E+000	18.2446	18.2446	0.0000000E+000	0.000000000000000E+000	0.00851242
1	1	0	1	0	0	0	7279.18	10	0.851405	10	66.0107	66.0107	0	18.3363	11	0.0147414	0.000000000000000E+000	6.65424e+08	0.000000000000000E+000	0.000000000000000E+000	18.3363	18.3363	0.0000000E+000	0.000000000000000E+000	0.0085141
1	1	0	1	0	0	0	7312.18	10	0.85173	10.0009	66.3407	66.3407	0	18.428	11	0.0148195	0.000000000000000E+000	6.66566e+08	0.000000000000000E+000	0.000000000000000E+000	18.428	18.428	0.0000000E+000	0.000000000000000E+000	0.00851805
1	1	0	1	0	0	0	7345.18	10	0.852237	10.0009	66.6707	66.6707	0	18.5196	11	0.0148976	0.000000000000000E+000	6.66492e+08	0.000000000000000E+000	0.000000000000000E+000	18.5196	18.5196	0.0000000E+000	0.000000000000000E+000	0.00852311
1	1	0	1	0	0	0	7378.18	10	0.85256	10.0003	67.0007	67.0007	0	18.6113	11	0.0149757	0.000000000000000E+000	6.67635e+08	0.000000000000000E+000	0.000000000000000E+000	18.6113	18.6113	0.0000000E+000	0.000000000000000E+000	0.00852586
1	1	0	1	0	0	0	7411.18	10	0.852776	10.0001	67.3308	67.3308	0	18.703	11	0.0150539	0.000000000000000E+000	6.69481e+08	0.000000000000000E+000	0.000000000000000E+000	18.703	18.703	0.0000000E+000	0.000000000000000E+000	0.00852786
1	1	0	1	0	0	0	7444.18	10	0.853149	10.0001	67.6608	67.6608	0	18.7947	11	0.0151321	0.000000000000000E+000	6.70274e+08	0.000000000000000E+000	0.000000000000000E+000	18.7947	18.7947	0.0000000E+000	0.000000000000000E+000	0.00853159
1	1	0	1	0	0	0	7477.18	10	0.85321	9.99948	67.9908	67.9908	0	18.8863	11	0.0152103	0.000000000000000E+000	6.73135e+08	0.000000000000000E+000	0.000000000000000E+000	18.8863	18.8863	0.0000000E+000	0.000000000000000E+000	0.00853166
1	1	0	1	0	0	0	7510.18	10	0.853589	10.0002	68.3208	68.3208	0	18.978	11	0.0152885	0.000000000000000E+000	6.73879e+08	0.000000000000000E+000	0.000000000000000E+000	18.978	18.978	0.0000000E+000	0.000000000000000E+000	0.00853609
1	1	0	1	0	0	0	7543.18	10	0.854098	10	68.6508	68.6508	0	19.0697	11	0.0153668	0.000000000000000E+000	6.7375e+08	0.000000000000000E+000	0.000000000000000E+000	19.0697	19.0697	0.0000000E+000	0.000000000000000E+000	0.00854102
1	1	0	1	0	0	0	7576.18	10	0.854183	10.0009	68.9808	68.9808	0	19.1613	11	0.0154451	0.000000000000000E+000	6.76422e+08	0.000000000000000E+000	0.000000000000000E+000	19.1613	19.1613	0.0000000E+000	0.000000000000000E+000	0.00854258
1	1	0	1	0	0	0	7609.18	10	0.854797	10.0003	69.3108	69.3108	0	19.253	11	0.0155234	0.000000000000000E+000	6.75595e+08	0.000000000000000E+000	0.000000000000000E+000	19.253	19.253	0.0000000E+000	0.000000000000000E+000	0.00854823
1	1	0	1	0	0	0	7642.18	10	0.854928	9.9998	69.6408	69.6408	0	19.3447	11	0.0156018	0.000000000000000E+000	6.77942e+08	0.000000000000000E+000	0.000000000000000E+000	19.3447	19.3447	0.0000000E+000	0.000000000000000E+000	0.00854911
1	1	0	1	0	0	0	7675.18	10	0.85537	10.0002	69.9708	69.9708	0	19.4363	11	0.0156802	0.000000000000000E+000	6.78238e+08	0.000000000000000E+000	0.000000000000000E+000	19.4363	19.4363	0.0000000E+000	0.000000000000000E+000	0.0085539
1	1	0	1	0	0	0	7708.18	10	0.855467	10.0011	70.3008	70.3008	0	19.528	11	0.0157586	0.000000000000000E+000	6.80795e+08	0.000000000000000E+000	0.000000000000000E+000	19.528	19.528	0.0000000E+000	0.000000000000000E+000	0.00855564
1	1	0	1	0	0	0	7741.18	10	0.85593	9.99992	70.6308	70.6308	0	19.6197	11	0.015837	0.000000000000000E+000	6.8094e+08	0.000000000000000E+000	0.000000000000000E+000	19.6197	19.6197	0.0000000E+000	0.000000000000000E+000	0.00855923
1	1	0	1	0	0	0	7774.18	10	0.856245	9.99948	70.9608	70.9608	0	19.7113	11	0.0159155	0.000000000000000E+000	6.82049e+08	0.000000000000000E+000	0.000000000000000E+000	19.7113	19.7113	0.0000000E+000	0.000000000000000E+000	0.008562
1	1	0	1	0	0	0	7807.18	10	0.856383	9.99999	71.2908	71.2908	0	19.803	11	0.015994	0.000000000000000E+000	6.84311e+08	0.000000000000000E+000	0.000000000000000E+000	19.803	19.803	0.0000000E+000	0.000000000000000E+000	0.00856382
1	1	0	1	0	0	0	7840.18	10	0.856796	9.99973	71.6208	71.6208	0	19.8947	11	0.0160725	0.000000000000000E+000	6.84769e+08	0.000000000000000E+000	0.000000000000000E+000	19.8947	19.8947	0.0000000E+000	0.000000000000000E+000	0.00856773
1	1	0	1	0	0	0	7873.18	10	0.856923	10.0002	71.9508	71.9508	0	19.9863	11	0.0161511	0.000000000000000E+000	6.87089e+08	0.000000000000000E+000	0.000000000000000E+000	19.9863	19.9863	0.0000000E+000	0.000000000000000E+000	0.00856943
1	1	0	1	0	0	0	7878.24	10	0.857721	10.0005	72.0014	72.0014	0	20.0004	11	0.0161631	0.000000000000000E+000	6.82368e+08	0.000000000000000E+000	0.000000000000000E+000	20.0004	20.0004	0.0000000E+000	0.000000000000000E+000	0.00857764