File: Data_Lola/CoNiFeNx_400ºC_24h_13102022/Electrodes_20012023/Set 2/2023_01_23_CoNiFeNx_400ºC_24h_electrode2_set2_20012023_1_03_CP_C02.mpt
EC-Lab ASCII FILE
Nb header lines : 52

Chronopotentiometry

Run on channel : 2 (SN 12477)
User :
CE vs. WE compliance from -10 V to 10 V
Electrode connection : standard
Potential control : Ewe
Ewe ctrl range : min = -2.50 V, max = 2.50 V
Safety Limits :
	Do not start on E overload
Acquisition started on : 01/23/2023 12:38:23.307
Loaded Setting File :  C:\Users\grupogalan\Documents\EC-Lab\Data\Lole Jurado\2023_01_23_CoNiFeNx_400ºC_24h_electrode1__set2_20012023_1.mps
Saved on :
	File : 2023_01_23_CoNiFeNx_400ºC_24h_electrode2_set2_20012023_1_03_CP_C02.mpr
	Directory : C:\Users\grupogalan\Documents\EC-Lab\Data\Lole Jurado\
	Host : 169.254.104.159
Device : VSP (SN 1176)
Address : USB
EC-Lab for windows v11.46 (software)
Internet server v11.40 (firmware)
Command interpretor v11.40 (firmware)
Electrode material :
Initial state :
Electrolyte :
Comments :
Electrode surface area : 0.000 cm²
Characteristic mass : 0.001 g
Equivalent Weight : 0.000 g/eq.
Density : 0.000 g/cm3
Volume (V) : 0.001 cm³
Cycle Definition : Charge/Discharge alternance
Is                  10.000
unit Is             mA
vs.                 <None>
ts (h:m:s)          2:00:0.0000
EM (V)              pass
dQM                 20.000
unit dQM            mA.h
record              <Ewe>
dEs (mV)            0.00
dts (s)             1.0000
E range min (V)     -2.500
E range max (V)     2.500
I Range             10 mA
Bandwidth           5
goto Ns'            0
nc cycles           0

mode	ox/red	error	control changes	Ns changes	counter inc.	Ns	time/s	control/mA	<Ewe>/V	I/mA	dQ/C	(Q-Qo)/C	half cycle	Q charge/discharge/mA.h	I Range	Energy charge/W.h	Energy discharge/W.h	Capacitance charge/µF	Capacitance discharge/µF	Q discharge/mA.h	Q charge/mA.h	Capacity/mA.h	Efficiency/%	cycle number	P/W
1	1	0	1	0	0	0	2063.26	10	0.736139	10.0014	0.00947723	0.00947723	0	0.00263256	11	1.93793e-06	0.000000000000000E+000	0.000000000000000E+000	0.000000000000000E+000	0.000000000000000E+000	0.00263256	0.00263256	0.0000000E+000	0.000000000000000E+000	0.0073624
1	1	0	1	0	0	0	2096.26	10	0.770073	10.0022	0.339522	0.339522	0	0.0943116	11	7.26201e-05	0.000000000000000E+000	1.00055e+07	0.000000000000000E+000	0.000000000000000E+000	0.0943116	0.0943116	0.0000000E+000	0.000000000000000E+000	0.00770242
1	1	0	1	0	0	0	2129.26	10	0.770001	10.0012	0.669566	0.669566	0	0.18599	11	0.000143211	0.000000000000000E+000	1.97735e+07	0.000000000000000E+000	0.000000000000000E+000	0.18599	0.18599	0.0000000E+000	0.000000000000000E+000	0.00770092
1	1	0	1	0	0	0	2162.26	10	0.770223	10.0007	0.99961	0.99961	0	0.277669	11	0.000213814	0.000000000000000E+000	2.93278e+07	0.000000000000000E+000	0.000000000000000E+000	0.277669	0.277669	0.0000000E+000	0.000000000000000E+000	0.0077028
1	1	0	1	0	0	0	2195.26	10	0.770433	10.0016	1.32965	1.32965	0	0.369348	11	0.000284438	0.000000000000000E+000	3.87729e+07	0.000000000000000E+000	0.000000000000000E+000	0.369348	0.369348	0.0000000E+000	0.000000000000000E+000	0.00770553
1	1	0	1	0	0	0	2228.26	10	0.77078	10.0019	1.6597	1.6597	0	0.461027	11	0.000355088	0.000000000000000E+000	4.79119e+07	0.000000000000000E+000	0.000000000000000E+000	0.461027	0.461027	0.0000000E+000	0.000000000000000E+000	0.00770929
1	1	0	1	0	0	0	2261.26	10	0.771114	10.0021	1.98974	1.98974	0	0.552706	11	0.000425768	0.000000000000000E+000	5.68907e+07	0.000000000000000E+000	0.000000000000000E+000	0.552706	0.552706	0.0000000E+000	0.000000000000000E+000	0.00771278
1	1	0	1	0	0	0	2294.26	10	0.771463	10.0011	2.31979	2.31979	0	0.644385	11	0.00049648	0.000000000000000E+000	6.56728e+07	0.000000000000000E+000	0.000000000000000E+000	0.644385	0.644385	0.0000000E+000	0.000000000000000E+000	0.00771548
1	1	0	1	0	0	0	2327.26	10	0.771878	10.0015	2.64983	2.64983	0	0.736064	11	0.000567228	0.000000000000000E+000	7.41453e+07	0.000000000000000E+000	0.000000000000000E+000	0.736064	0.736064	0.0000000E+000	0.000000000000000E+000	0.00771993
1	1	0	1	0	0	0	2360.26	10	0.772261	10.0012	2.97988	2.97988	0	0.827743	11	0.00063801	0.000000000000000E+000	8.24955e+07	0.000000000000000E+000	0.000000000000000E+000	0.827743	0.827743	0.0000000E+000	0.000000000000000E+000	0.00772352
1	1	0	1	0	0	0	2393.26	10	0.772595	10.0014	3.30992	3.30992	0	0.919422	11	0.000708828	0.000000000000000E+000	9.07942e+07	0.000000000000000E+000	0.000000000000000E+000	0.919422	0.919422	0.0000000E+000	0.000000000000000E+000	0.00772705
1	1	0	1	0	0	0	2426.26	10	0.772953	10.0008	3.63996	3.63996	0	1.0111	11	0.00077967	0.000000000000000E+000	9.88756e+07	0.000000000000000E+000	0.000000000000000E+000	1.0111	1.0111	0.0000000E+000	0.000000000000000E+000	0.00773014
1	1	0	1	0	0	0	2459.26	10	0.773357	10.0017	3.97001	3.97001	0	1.10278	11	0.00085055	0.000000000000000E+000	1.06669e+08	0.000000000000000E+000	0.000000000000000E+000	1.10278	1.10278	0.0000000E+000	0.000000000000000E+000	0.00773487
1	1	0	1	0	0	0	2492.26	10	0.773663	10.0018	4.30005	4.30005	0	1.19446	11	0.000921466	0.000000000000000E+000	1.14594e+08	0.000000000000000E+000	0.000000000000000E+000	1.19446	1.19446	0.0000000E+000	0.000000000000000E+000	0.00773804
1	1	0	1	0	0	0	2525.26	10	0.774004	10.0007	4.6301	4.6301	0	1.28614	11	0.000992417	0.000000000000000E+000	1.2228e+08	0.000000000000000E+000	0.000000000000000E+000	1.28614	1.28614	0.0000000E+000	0.000000000000000E+000	0.00774056
1	1	0	1	0	0	0	2558.26	10	0.77448	10.0011	4.96014	4.96014	0	1.37782	11	0.0010634	0.000000000000000E+000	1.29371e+08	0.000000000000000E+000	0.000000000000000E+000	1.37782	1.37782	0.0000000E+000	0.000000000000000E+000	0.00774566
1	1	0	1	0	0	0	2591.26	10	0.774951	10.0011	5.29019	5.29019	0	1.4695	11	0.00113442	0.000000000000000E+000	1.36303e+08	0.000000000000000E+000	0.000000000000000E+000	1.4695	1.4695	0.0000000E+000	0.000000000000000E+000	0.00775037
1	1	0	1	0	0	0	2624.26	10	0.775379	10.0011	5.62023	5.62023	0	1.56118	11	0.00120549	0.000000000000000E+000	1.43227e+08	0.000000000000000E+000	0.000000000000000E+000	1.56118	1.56118	0.0000000E+000	0.000000000000000E+000	0.00775465
1	1	0	1	0	0	0	2657.26	10	0.775662	10.0015	5.95028	5.95028	0	1.65285	11	0.00127659	0.000000000000000E+000	1.50553e+08	0.000000000000000E+000	0.000000000000000E+000	1.65285	1.65285	0.0000000E+000	0.000000000000000E+000	0.00775778
1	1	0	1	0	0	0	2690.26	10	0.776253	10.0014	6.28032	6.28032	0	1.74453	11	0.00134773	0.000000000000000E+000	1.56565e+08	0.000000000000000E+000	0.000000000000000E+000	1.74453	1.74453	0.0000000E+000	0.000000000000000E+000	0.00776359
1	1	0	1	0	0	0	2723.26	10	0.776731	10.0012	6.61036	6.61036	0	1.83621	11	0.00141892	0.000000000000000E+000	1.62849e+08	0.000000000000000E+000	0.000000000000000E+000	1.83621	1.83621	0.0000000E+000	0.000000000000000E+000	0.00776823
1	1	0	1	0	0	0	2756.26	10	0.777063	10.001	6.94041	6.94041	0	1.92789	11	0.00149014	0.000000000000000E+000	1.69593e+08	0.000000000000000E+000	0.000000000000000E+000	1.92789	1.92789	0.0000000E+000	0.000000000000000E+000	0.0077714
1	1	0	1	0	0	0	2789.26	10	0.777467	10.0018	7.27045	7.27045	0	2.01957	11	0.00156141	0.000000000000000E+000	1.75923e+08	0.000000000000000E+000	0.000000000000000E+000	2.01957	2.01957	0.0000000E+000	0.000000000000000E+000	0.00777608
1	1	0	1	0	0	0	2822.26	10	0.778053	10.0011	7.6005	7.6005	0	2.11125	11	0.00163271	0.000000000000000E+000	1.81339e+08	0.000000000000000E+000	0.000000000000000E+000	2.11125	2.11125	0.0000000E+000	0.000000000000000E+000	0.00778139
1	1	0	1	0	0	0	2855.26	10	0.778733	10.001	7.93054	7.93054	0	2.20293	11	0.00170408	0.000000000000000E+000	1.8619e+08	0.000000000000000E+000	0.000000000000000E+000	2.20293	2.20293	0.0000000E+000	0.000000000000000E+000	0.00778815
1	1	0	1	0	0	0	2888.26	10	0.779001	10.0013	8.26058	8.26058	0	2.29461	11	0.00177548	0.000000000000000E+000	1.92728e+08	0.000000000000000E+000	0.000000000000000E+000	2.29461	2.29461	0.0000000E+000	0.000000000000000E+000	0.00779102
1	1	0	1	0	0	0	2921.26	10	0.779608	10.0016	8.59063	8.59063	0	2.38629	11	0.00184693	0.000000000000000E+000	1.9763e+08	0.000000000000000E+000	0.000000000000000E+000	2.38629	2.38629	0.0000000E+000	0.000000000000000E+000	0.00779729
1	1	0	1	0	0	0	2954.26	10	0.780085	10.0015	8.92067	8.92067	0	2.47796	11	0.00191843	0.000000000000000E+000	2.02994e+08	0.000000000000000E+000	0.000000000000000E+000	2.47796	2.47796	0.0000000E+000	0.000000000000000E+000	0.00780201
1	1	0	1	0	0	0	2987.26	10	0.780434	10.0007	9.25072	9.25072	0	2.56964	11	0.00198997	0.000000000000000E+000	2.08843e+08	0.000000000000000E+000	0.000000000000000E+000	2.56964	2.56964	0.0000000E+000	0.000000000000000E+000	0.00780491
1	1	0	1	0	0	0	3020.26	10	0.78111	10.0012	9.58076	9.58076	0	2.66132	11	0.00206155	0.000000000000000E+000	2.13043e+08	0.000000000000000E+000	0.000000000000000E+000	2.66132	2.66132	0.0000000E+000	0.000000000000000E+000	0.00781202
1	1	0	1	0	0	0	3053.26	10	0.781664	10.0006	9.9108	9.9108	0	2.753	11	0.00213318	0.000000000000000E+000	2.177e+08	0.000000000000000E+000	0.000000000000000E+000	2.753	2.753	0.0000000E+000	0.000000000000000E+000	0.00781711
1	1	0	1	0	0	0	3086.26	10	0.782179	10.0011	10.2408	10.2408	0	2.84468	11	0.00220487	0.000000000000000E+000	2.22434e+08	0.000000000000000E+000	0.000000000000000E+000	2.84468	2.84468	0.0000000E+000	0.000000000000000E+000	0.00782266
1	1	0	1	0	0	0	3119.26	10	0.782709	10.0017	10.5709	10.5709	0	2.93636	11	0.00227661	0.000000000000000E+000	2.2699e+08	0.000000000000000E+000	0.000000000000000E+000	2.93636	2.93636	0.0000000E+000	0.000000000000000E+000	0.00782841
1	1	0	1	0	0	0	3152.26	10	0.783211	10.001	10.9009	10.9009	0	3.02804	11	0.00234838	0.000000000000000E+000	2.31583e+08	0.000000000000000E+000	0.000000000000000E+000	3.02804	3.02804	0.0000000E+000	0.000000000000000E+000	0.00783293
1	1	0	1	0	0	0	3185.26	10	0.783672	10.0015	11.231	11.231	0	3.11972	11	0.00242021	0.000000000000000E+000	2.36281e+08	0.000000000000000E+000	0.000000000000000E+000	3.11972	3.11972	0.0000000E+000	0.000000000000000E+000	0.00783789
1	1	0	1	0	0	0	3218.26	10	0.784151	10.0017	11.561	11.561	0	3.2114	11	0.00249208	0.000000000000000E+000	2.40798e+08	0.000000000000000E+000	0.000000000000000E+000	3.2114	3.2114	0.0000000E+000	0.000000000000000E+000	0.00784283
1	1	0	1	0	0	0	3251.26	10	0.784699	10.0017	11.8911	11.8911	0	3.30307	11	0.002564	0.000000000000000E+000	2.44878e+08	0.000000000000000E+000	0.000000000000000E+000	3.30307	3.30307	0.0000000E+000	0.000000000000000E+000	0.00784831
1	1	0	1	0	0	0	3284.26	10	0.785228	10.0009	12.2211	12.2211	0	3.39475	11	0.00263596	0.000000000000000E+000	2.48957e+08	0.000000000000000E+000	0.000000000000000E+000	3.39475	3.39475	0.0000000E+000	0.000000000000000E+000	0.00785296
1	1	0	1	0	0	0	3317.26	10	0.785769	10.001	12.5512	12.5512	0	3.48643	11	0.00270797	0.000000000000000E+000	2.52898e+08	0.000000000000000E+000	0.000000000000000E+000	3.48643	3.48643	0.0000000E+000	0.000000000000000E+000	0.00785851
1	1	0	1	0	0	0	3350.26	10	0.786309	10.0014	12.8812	12.8812	0	3.57811	11	0.00278003	0.000000000000000E+000	2.56751e+08	0.000000000000000E+000	0.000000000000000E+000	3.57811	3.57811	0.0000000E+000	0.000000000000000E+000	0.00786422
1	1	0	1	0	0	0	3383.26	10	0.786864	10.0009	13.2112	13.2112	0	3.66979	11	0.00285215	0.000000000000000E+000	2.6045e+08	0.000000000000000E+000	0.000000000000000E+000	3.66979	3.66979	0.0000000E+000	0.000000000000000E+000	0.00786932
1	1	0	1	0	0	0	3416.26	10	0.787351	10.0016	13.5413	13.5413	0	3.76147	11	0.00292431	0.000000000000000E+000	2.64415e+08	0.000000000000000E+000	0.000000000000000E+000	3.76147	3.76147	0.0000000E+000	0.000000000000000E+000	0.00787479
1	1	0	1	0	0	0	3449.26	10	0.787928	10.0009	13.8713	13.8713	0	3.85315	11	0.00299652	0.000000000000000E+000	2.67844e+08	0.000000000000000E+000	0.000000000000000E+000	3.85315	3.85315	0.0000000E+000	0.000000000000000E+000	0.00788001
1	1	0	1	0	0	0	3482.26	10	0.788476	10.0017	14.2014	14.2014	0	3.94483	11	0.00306878	0.000000000000000E+000	2.71346e+08	0.000000000000000E+000	0.000000000000000E+000	3.94483	3.94483	0.0000000E+000	0.000000000000000E+000	0.00788614
1	1	0	1	0	0	0	3515.26	10	0.789024	10.0007	14.5314	14.5314	0	4.03651	11	0.00314109	0.000000000000000E+000	2.74776e+08	0.000000000000000E+000	0.000000000000000E+000	4.03651	4.03651	0.0000000E+000	0.000000000000000E+000	0.00789081
1	1	0	1	0	0	0	3548.26	10	0.789475	10.0009	14.8615	14.8615	0	4.12818	11	0.00321345	0.000000000000000E+000	2.78639e+08	0.000000000000000E+000	0.000000000000000E+000	4.12818	4.12818	0.0000000E+000	0.000000000000000E+000	0.00789543
1	1	0	1	0	0	0	3581.26	10	0.789943	10.0016	15.1915	15.1915	0	4.21986	11	0.00328585	0.000000000000000E+000	2.82352e+08	0.000000000000000E+000	0.000000000000000E+000	4.21986	4.21986	0.0000000E+000	0.000000000000000E+000	0.00790071
1	1	0	1	0	0	0	3614.26	10	0.790464	10.0012	15.5216	15.5216	0	4.31154	11	0.0033583	0.000000000000000E+000	2.8572e+08	0.000000000000000E+000	0.000000000000000E+000	4.31154	4.31154	0.0000000E+000	0.000000000000000E+000	0.00790562
1	1	0	1	0	0	0	3647.26	10	0.791007	10.0014	15.8516	15.8516	0	4.40322	11	0.00343079	0.000000000000000E+000	2.88908e+08	0.000000000000000E+000	0.000000000000000E+000	4.40322	4.40322	0.0000000E+000	0.000000000000000E+000	0.00791115
1	1	0	1	0	0	0	3680.26	10	0.791429	10.0015	16.1816	16.1816	0	4.4949	11	0.00350333	0.000000000000000E+000	2.9267e+08	0.000000000000000E+000	0.000000000000000E+000	4.4949	4.4949	0.0000000E+000	0.000000000000000E+000	0.00791547
1	1	0	1	0	0	0	3713.26	10	0.79188	10.001	16.5117	16.5117	0	4.58658	11	0.00357591	0.000000000000000E+000	2.96226e+08	0.000000000000000E+000	0.000000000000000E+000	4.58658	4.58658	0.0000000E+000	0.000000000000000E+000	0.00791963
1	1	0	1	0	0	0	3746.26	10	0.792405	10.0003	16.8417	16.8417	0	4.67826	11	0.00364853	0.000000000000000E+000	2.99326e+08	0.000000000000000E+000	0.000000000000000E+000	4.67826	4.67826	0.0000000E+000	0.000000000000000E+000	0.00792433
1	1	0	1	0	0	0	3779.26	10	0.792889	10.001	17.1718	17.1718	0	4.76994	11	0.0037212	0.000000000000000E+000	3.02589e+08	0.000000000000000E+000	0.000000000000000E+000	4.76994	4.76994	0.0000000E+000	0.000000000000000E+000	0.00792972
1	1	0	1	0	0	0	3812.26	10	0.793436	10.0015	17.5018	17.5018	0	4.86162	11	0.00379392	0.000000000000000E+000	3.05459e+08	0.000000000000000E+000	0.000000000000000E+000	4.86162	4.86162	0.0000000E+000	0.000000000000000E+000	0.00793555
1	1	0	1	0	0	0	3845.26	10	0.793808	10.0011	17.8319	17.8319	0	4.9533	11	0.00386668	0.000000000000000E+000	3.09215e+08	0.000000000000000E+000	0.000000000000000E+000	4.9533	4.9533	0.0000000E+000	0.000000000000000E+000	0.00793896
1	1	0	1	0	0	0	3878.26	10	0.794259	10.0018	18.1619	18.1619	0	5.04497	11	0.00393948	0.000000000000000E+000	3.12491e+08	0.000000000000000E+000	0.000000000000000E+000	5.04497	5.04497	0.0000000E+000	0.000000000000000E+000	0.00794403
1	1	0	1	0	0	0	3911.26	10	0.794748	10.0012	18.492	18.492	0	5.13665	11	0.00401232	0.000000000000000E+000	3.15517e+08	0.000000000000000E+000	0.000000000000000E+000	5.13665	5.13665	0.0000000E+000	0.000000000000000E+000	0.00794841
1	1	0	1	0	0	0	3944.26	10	0.795246	10.0015	18.822	18.822	0	5.22833	11	0.00408521	0.000000000000000E+000	3.18443e+08	0.000000000000000E+000	0.000000000000000E+000	5.22833	5.22833	0.0000000E+000	0.000000000000000E+000	0.00795365
1	1	0	1	0	0	0	3977.26	10	0.795715	10.0016	19.152	19.152	0	5.32001	11	0.00415814	0.000000000000000E+000	3.21475e+08	0.000000000000000E+000	0.000000000000000E+000	5.32001	5.32001	0.0000000E+000	0.000000000000000E+000	0.00795839
1	1	0	1	0	0	0	4010.26	10	0.796092	10.0008	19.4821	19.4821	0	5.41169	11	0.00423111	0.000000000000000E+000	3.2496e+08	0.000000000000000E+000	0.000000000000000E+000	5.41169	5.41169	0.0000000E+000	0.000000000000000E+000	0.00796155
1	1	0	1	0	0	0	4043.26	10	0.796569	10.0012	19.8121	19.8121	0	5.50337	11	0.00430412	0.000000000000000E+000	3.27856e+08	0.000000000000000E+000	0.000000000000000E+000	5.50337	5.50337	0.0000000E+000	0.000000000000000E+000	0.00796667
1	1	0	1	0	0	0	4076.26	10	0.797025	10.0014	20.1422	20.1422	0	5.59505	11	0.00437717	0.000000000000000E+000	3.30821e+08	0.000000000000000E+000	0.000000000000000E+000	5.59505	5.59505	0.0000000E+000	0.000000000000000E+000	0.00797134
1	1	0	1	0	0	0	4109.26	10	0.797465	10.0008	20.4722	20.4722	0	5.68673	11	0.00445026	0.000000000000000E+000	3.3383e+08	0.000000000000000E+000	0.000000000000000E+000	5.68673	5.68673	0.0000000E+000	0.000000000000000E+000	0.00797528
1	1	0	1	0	0	0	4142.26	10	0.797952	10.0008	20.8023	20.8023	0	5.77841	11	0.00452339	0.000000000000000E+000	3.36538e+08	0.000000000000000E+000	0.000000000000000E+000	5.77841	5.77841	0.0000000E+000	0.000000000000000E+000	0.00798015
1	1	0	1	0	0	0	4175.26	10	0.798398	10.0021	21.1323	21.1323	0	5.87008	11	0.00459657	0.000000000000000E+000	3.39426e+08	0.000000000000000E+000	0.000000000000000E+000	5.87008	5.87008	0.0000000E+000	0.000000000000000E+000	0.00798568
1	1	0	1	0	0	0	4208.26	10	0.798995	10.001	21.4623	21.4623	0	5.96176	11	0.00466979	0.000000000000000E+000	3.41456e+08	0.000000000000000E+000	0.000000000000000E+000	5.96176	5.96176	0.0000000E+000	0.000000000000000E+000	0.00799073
1	1	0	1	0	0	0	4241.26	10	0.799336	10.0011	21.7924	21.7924	0	6.05344	11	0.00474306	0.000000000000000E+000	3.44832e+08	0.000000000000000E+000	0.000000000000000E+000	6.05344	6.05344	0.0000000E+000	0.000000000000000E+000	0.00799425
1	1	0	1	0	0	0	4274.26	10	0.799661	10.0004	22.1224	22.1224	0	6.14512	11	0.00481636	0.000000000000000E+000	3.48265e+08	0.000000000000000E+000	0.000000000000000E+000	6.14512	6.14512	0.0000000E+000	0.000000000000000E+000	0.00799694
1	1	0	1	0	0	0	4307.26	10	0.80008	10.0017	22.4525	22.4525	0	6.2368	11	0.00488969	0.000000000000000E+000	3.51145e+08	0.000000000000000E+000	0.000000000000000E+000	6.2368	6.2368	0.0000000E+000	0.000000000000000E+000	0.00800215
1	1	0	1	0	0	0	4340.26	10	0.800496	10.0007	22.7825	22.7825	0	6.32848	11	0.00496306	0.000000000000000E+000	3.54002e+08	0.000000000000000E+000	0.000000000000000E+000	6.32848	6.32848	0.0000000E+000	0.000000000000000E+000	0.00800555
1	1	0	1	0	0	0	4373.26	10	0.800813	10.0012	23.1126	23.1126	0	6.42016	11	0.00503646	0.000000000000000E+000	3.57372e+08	0.000000000000000E+000	0.000000000000000E+000	6.42016	6.42016	0.0000000E+000	0.000000000000000E+000	0.00800907
1	1	0	1	0	0	0	4406.26	10	0.801273	10.0019	23.4426	23.4426	0	6.51184	11	0.0051099	0.000000000000000E+000	3.59913e+08	0.000000000000000E+000	0.000000000000000E+000	6.51184	6.51184	0.0000000E+000	0.000000000000000E+000	0.00801424
1	1	0	1	0	0	0	4439.26	10	0.801758	10.001	23.7727	23.7727	0	6.60352	11	0.00518338	0.000000000000000E+000	3.62284e+08	0.000000000000000E+000	0.000000000000000E+000	6.60352	6.60352	0.0000000E+000	0.000000000000000E+000	0.00801842
1	1	0	1	0	0	0	4472.26	10	0.802047	10.0018	24.1027	24.1027	0	6.6952	11	0.00525689	0.000000000000000E+000	3.65701e+08	0.000000000000000E+000	0.000000000000000E+000	6.6952	6.6952	0.0000000E+000	0.000000000000000E+000	0.00802193
1	1	0	1	0	0	0	4505.26	10	0.802448	10.0023	24.4327	24.4327	0	6.78687	11	0.00533044	0.000000000000000E+000	3.68471e+08	0.000000000000000E+000	0.000000000000000E+000	6.78687	6.78687	0.0000000E+000	0.000000000000000E+000	0.00802634
1	1	0	1	0	0	0	4538.26	10	0.802849	10.0012	24.7628	24.7628	0	6.87855	11	0.00540403	0.000000000000000E+000	3.71201e+08	0.000000000000000E+000	0.000000000000000E+000	6.87855	6.87855	0.0000000E+000	0.000000000000000E+000	0.00802949
1	1	0	1	0	0	0	4571.26	10	0.803254	10.0014	25.0928	25.0928	0	6.97023	11	0.00547765	0.000000000000000E+000	3.73878e+08	0.000000000000000E+000	0.000000000000000E+000	6.97023	6.97023	0.0000000E+000	0.000000000000000E+000	0.00803364
1	1	0	1	0	0	0	4604.26	10	0.8037	10.0013	25.4229	25.4229	0	7.06191	11	0.00555131	0.000000000000000E+000	3.76297e+08	0.000000000000000E+000	0.000000000000000E+000	7.06191	7.06191	0.0000000E+000	0.000000000000000E+000	0.00803805
1	1	0	1	0	0	0	4637.26	10	0.804065	10.0014	25.7529	25.7529	0	7.15359	11	0.00562501	0.000000000000000E+000	3.79135e+08	0.000000000000000E+000	0.000000000000000E+000	7.15359	7.15359	0.0000000E+000	0.000000000000000E+000	0.0080418
1	1	0	1	0	0	0	4670.26	10	0.804447	10.0016	26.083	26.083	0	7.24527	11	0.00569874	0.000000000000000E+000	3.81845e+08	0.000000000000000E+000	0.000000000000000E+000	7.24527	7.24527	0.0000000E+000	0.000000000000000E+000	0.00804577
1	1	0	1	0	0	0	4703.26	10	0.804766	10.0018	26.413	26.413	0	7.33695	11	0.00577251	0.000000000000000E+000	3.8488e+08	0.000000000000000E+000	0.000000000000000E+000	7.33695	7.33695	0.0000000E+000	0.000000000000000E+000	0.00804912
1	1	0	1	0	0	0	4736.26	10	0.805202	10.0016	26.7431	26.7431	0	7.42863	11	0.00584631	0.000000000000000E+000	3.8723e+08	0.000000000000000E+000	0.000000000000000E+000	7.42863	7.42863	0.0000000E+000	0.000000000000000E+000	0.00805327
1	1	0	1	0	0	0	4769.26	10	0.80553	10.0009	27.0731	27.0731	0	7.52031	11	0.00592015	0.000000000000000E+000	3.90153e+08	0.000000000000000E+000	0.000000000000000E+000	7.52031	7.52031	0.0000000E+000	0.000000000000000E+000	0.008056
1	1	0	1	0	0	0	4802.26	10	0.805917	10.0014	27.4031	27.4031	0	7.61198	11	0.00599402	0.000000000000000E+000	3.92722e+08	0.000000000000000E+000	0.000000000000000E+000	7.61198	7.61198	0.0000000E+000	0.000000000000000E+000	0.00806027
1	1	0	1	0	0	0	4835.26	10	0.80631	10.0014	27.7332	27.7332	0	7.70366	11	0.00606792	0.000000000000000E+000	3.95227e+08	0.000000000000000E+000	0.000000000000000E+000	7.70366	7.70366	0.0000000E+000	0.000000000000000E+000	0.0080642
1	1	0	1	0	0	0	4868.26	10	0.806674	10.0014	28.0632	28.0632	0	7.79534	11	0.00614186	0.000000000000000E+000	3.97864e+08	0.000000000000000E+000	0.000000000000000E+000	7.79534	7.79534	0.0000000E+000	0.000000000000000E+000	0.00806789
1	1	0	1	0	0	0	4901.26	10	0.807001	10.0013	28.3933	28.3933	0	7.88702	11	0.00621584	0.000000000000000E+000	4.00685e+08	0.000000000000000E+000	0.000000000000000E+000	7.88702	7.88702	0.0000000E+000	0.000000000000000E+000	0.00807106
1	1	0	1	0	0	0	4934.26	10	0.807315	10.0014	28.7233	28.7233	0	7.9787	11	0.00628984	0.000000000000000E+000	4.03557e+08	0.000000000000000E+000	0.000000000000000E+000	7.9787	7.9787	0.0000000E+000	0.000000000000000E+000	0.0080743
1	1	0	1	0	0	0	4967.26	10	0.807777	10.0012	29.0534	29.0534	0	8.07038	11	0.00636387	0.000000000000000E+000	4.05562e+08	0.000000000000000E+000	0.000000000000000E+000	8.07038	8.07038	0.0000000E+000	0.000000000000000E+000	0.00807871
1	1	0	1	0	0	0	5000.26	10	0.808143	10.0007	29.3834	29.3834	0	8.16206	11	0.00643795	0.000000000000000E+000	4.08081e+08	0.000000000000000E+000	0.000000000000000E+000	8.16206	8.16206	0.0000000E+000	0.000000000000000E+000	0.00808202
1	1	0	1	0	0	0	5033.26	10	0.808525	10.0009	29.7134	29.7134	0	8.25374	11	0.00651206	0.000000000000000E+000	4.10486e+08	0.000000000000000E+000	0.000000000000000E+000	8.25374	8.25374	0.0000000E+000	0.000000000000000E+000	0.008086
1	1	0	1	0	0	0	5066.26	10	0.8088	10.0016	30.0435	30.0435	0	8.34541	11	0.00658619	0.000000000000000E+000	4.13479e+08	0.000000000000000E+000	0.000000000000000E+000	8.34541	8.34541	0.0000000E+000	0.000000000000000E+000	0.00808926
1	1	0	1	0	0	0	5099.26	10	0.809145	10.0017	30.3735	30.3735	0	8.43709	11	0.00666036	0.000000000000000E+000	4.16043e+08	0.000000000000000E+000	0.000000000000000E+000	8.43709	8.43709	0.0000000E+000	0.000000000000000E+000	0.00809281
1	1	0	1	0	0	0	5132.26	10	0.809546	10.0016	30.7036	30.7036	0	8.52877	11	0.00673456	0.000000000000000E+000	4.18265e+08	0.000000000000000E+000	0.000000000000000E+000	8.52877	8.52877	0.0000000E+000	0.000000000000000E+000	0.00809672
1	1	0	1	0	0	0	5165.26	10	0.809959	10.001	31.0336	31.0336	0	8.62045	11	0.0068088	0.000000000000000E+000	4.20396e+08	0.000000000000000E+000	0.000000000000000E+000	8.62045	8.62045	0.0000000E+000	0.000000000000000E+000	0.00810044
1	1	0	1	0	0	0	5198.26	10	0.810213	10.0015	31.3637	31.3637	0	8.71213	11	0.00688306	0.000000000000000E+000	4.23412e+08	0.000000000000000E+000	0.000000000000000E+000	8.71213	8.71213	0.0000000E+000	0.000000000000000E+000	0.00810334
1	1	0	1	0	0	0	5231.26	10	0.810565	10.001	31.6937	31.6937	0	8.80381	11	0.00695736	0.000000000000000E+000	4.25845e+08	0.000000000000000E+000	0.000000000000000E+000	8.80381	8.80381	0.0000000E+000	0.000000000000000E+000	0.0081065
1	1	0	1	0	0	0	5264.26	10	0.810961	10.0012	32.0238	32.0238	0	8.89549	11	0.00703169	0.000000000000000E+000	4.28002e+08	0.000000000000000E+000	0.000000000000000E+000	8.89549	8.89549	0.0000000E+000	0.000000000000000E+000	0.00811061
1	1	0	1	0	0	0	5297.26	10	0.811349	10.0007	32.3538	32.3538	0	8.98717	11	0.00710605	0.000000000000000E+000	4.30183e+08	0.000000000000000E+000	0.000000000000000E+000	8.98717	8.98717	0.0000000E+000	0.000000000000000E+000	0.00811408
1	1	0	1	0	0	0	5330.26	10	0.811645	10.0009	32.6838	32.6838	0	9.07885	11	0.00718045	0.000000000000000E+000	4.32868e+08	0.000000000000000E+000	0.000000000000000E+000	9.07885	9.07885	0.0000000E+000	0.000000000000000E+000	0.00811719
1	1	0	1	0	0	0	5363.26	10	0.812003	10.0018	33.0139	33.0139	0	9.17052	11	0.00725487	0.000000000000000E+000	4.35173e+08	0.000000000000000E+000	0.000000000000000E+000	9.17052	9.17052	0.0000000E+000	0.000000000000000E+000	0.0081215
1	1	0	1	0	0	0	5396.26	10	0.812359	10.0014	33.3439	33.3439	0	9.2622	11	0.00732933	0.000000000000000E+000	4.37472e+08	0.000000000000000E+000	0.000000000000000E+000	9.2622	9.2622	0.0000000E+000	0.000000000000000E+000	0.00812475
1	1	0	1	0	0	0	5429.26	10	0.812666	10.001	33.674	33.674	0	9.35388	11	0.00740383	0.000000000000000E+000	4.40026e+08	0.000000000000000E+000	0.000000000000000E+000	9.35388	9.35388	0.0000000E+000	0.000000000000000E+000	0.00812746
1	1	0	1	0	0	0	5462.26	10	0.81295	10.0007	34.004	34.004	0	9.44556	11	0.00747834	0.000000000000000E+000	4.42701e+08	0.000000000000000E+000	0.000000000000000E+000	9.44556	9.44556	0.0000000E+000	0.000000000000000E+000	0.00813009
1	1	0	1	0	0	0	5495.26	10	0.813343	10.0016	34.3341	34.3341	0	9.53724	11	0.00755289	0.000000000000000E+000	4.44722e+08	0.000000000000000E+000	0.000000000000000E+000	9.53724	9.53724	0.0000000E+000	0.000000000000000E+000	0.00813475
1	1	0	1	0	0	0	5528.26	10	0.81367	10.001	34.6641	34.6641	0	9.62892	11	0.00762747	0.000000000000000E+000	4.471e+08	0.000000000000000E+000	0.000000000000000E+000	9.62892	9.62892	0.0000000E+000	0.000000000000000E+000	0.00813756
1	1	0	1	0	0	0	5561.26	10	0.813958	10.001	34.9942	34.9942	0	9.7206	11	0.00770208	0.000000000000000E+000	4.49687e+08	0.000000000000000E+000	0.000000000000000E+000	9.7206	9.7206	0.0000000E+000	0.000000000000000E+000	0.00814044
1	1	0	1	0	0	0	5594.26	10	0.814303	10.0012	35.3242	35.3242	0	9.81228	11	0.00777672	0.000000000000000E+000	4.51929e+08	0.000000000000000E+000	0.000000000000000E+000	9.81228	9.81228	0.0000000E+000	0.000000000000000E+000	0.00814404
1	1	0	1	0	0	0	5627.26	10	0.814643	10.0004	35.6542	35.6542	0	9.90396	11	0.00785139	0.000000000000000E+000	4.54175e+08	0.000000000000000E+000	0.000000000000000E+000	9.90396	9.90396	0.0000000E+000	0.000000000000000E+000	0.00814676
1	1	0	1	0	0	0	5660.26	10	0.815002	10.002	35.9843	35.9843	0	9.99563	11	0.0079261	0.000000000000000E+000	4.56292e+08	0.000000000000000E+000	0.000000000000000E+000	9.99563	9.99563	0.0000000E+000	0.000000000000000E+000	0.00815165
1	1	0	1	0	0	0	5693.26	10	0.815398	10.0012	36.3143	36.3143	0	10.0873	11	0.00800083	0.000000000000000E+000	4.58176e+08	0.000000000000000E+000	0.000000000000000E+000	10.0873	10.0873	0.0000000E+000	0.000000000000000E+000	0.00815499
1	1	0	1	0	0	0	5726.26	10	0.815633	10.0013	36.6444	36.6444	0	10.179	11	0.0080756	0.000000000000000E+000	4.6097e+08	0.000000000000000E+000	0.000000000000000E+000	10.179	10.179	0.0000000E+000	0.000000000000000E+000	0.0081574
1	1	0	1	0	0	0	5759.26	10	0.81593	10.001	36.9744	36.9744	0	10.2707	11	0.00815039	0.000000000000000E+000	4.63392e+08	0.000000000000000E+000	0.000000000000000E+000	10.2707	10.2707	0.0000000E+000	0.000000000000000E+000	0.00816016
1	1	0	1	0	0	0	5792.26	10	0.816293	10.0023	37.3045	37.3045	0	10.3623	11	0.00822521	0.000000000000000E+000	4.65412e+08	0.000000000000000E+000	0.000000000000000E+000	10.3623	10.3623	0.0000000E+000	0.000000000000000E+000	0.00816482
1	1	0	1	0	0	0	5825.26	10	0.816565	10.001	37.6345	37.6345	0	10.454	11	0.00830006	0.000000000000000E+000	4.67942e+08	0.000000000000000E+000	0.000000000000000E+000	10.454	10.454	0.0000000E+000	0.000000000000000E+000	0.0081665
1	1	0	1	0	0	0	5858.26	10	0.816965	10.0019	37.9646	37.9646	0	10.5457	11	0.00837494	0.000000000000000E+000	4.69706e+08	0.000000000000000E+000	0.000000000000000E+000	10.5457	10.5457	0.0000000E+000	0.000000000000000E+000	0.00817124
1	1	0	1	0	0	0	5891.26	10	0.817272	10.0007	38.2946	38.2946	0	10.6374	11	0.00844985	0.000000000000000E+000	4.71998e+08	0.000000000000000E+000	0.000000000000000E+000	10.6374	10.6374	0.0000000E+000	0.000000000000000E+000	0.00817332
1	1	0	1	0	0	0	5924.26	10	0.817518	10.001	38.6246	38.6246	0	10.7291	11	0.00852479	0.000000000000000E+000	4.74631e+08	0.000000000000000E+000	0.000000000000000E+000	10.7291	10.7291	0.0000000E+000	0.000000000000000E+000	0.00817598
1	1	0	1	0	0	0	5957.26	10	0.817869	10.0009	38.9547	38.9547	0	10.8207	11	0.00859975	0.000000000000000E+000	4.76628e+08	0.000000000000000E+000	0.000000000000000E+000	10.8207	10.8207	0.0000000E+000	0.000000000000000E+000	0.00817944
1	1	0	1	0	0	0	5990.26	10	0.818126	10.0012	39.2847	39.2847	0	10.9124	11	0.00867475	0.000000000000000E+000	4.79162e+08	0.000000000000000E+000	0.000000000000000E+000	10.9124	10.9124	0.0000000E+000	0.000000000000000E+000	0.00818227
1	1	0	1	0	0	0	6023.26	10	0.81839	10.0016	39.6148	39.6148	0	11.0041	11	0.00874977	0.000000000000000E+000	4.81633e+08	0.000000000000000E+000	0.000000000000000E+000	11.0041	11.0041	0.0000000E+000	0.000000000000000E+000	0.00818518
1	1	0	1	0	0	0	6056.26	10	0.818743	10.0007	39.9448	39.9448	0	11.0958	11	0.00882481	0.000000000000000E+000	4.83573e+08	0.000000000000000E+000	0.000000000000000E+000	11.0958	11.0958	0.0000000E+000	0.000000000000000E+000	0.00818803
1	1	0	1	0	0	0	6089.26	10	0.819026	10.0009	40.2749	40.2749	0	11.1875	11	0.00889989	0.000000000000000E+000	4.85902e+08	0.000000000000000E+000	0.000000000000000E+000	11.1875	11.1875	0.0000000E+000	0.000000000000000E+000	0.00819096
1	1	0	1	0	0	0	6122.26	10	0.819327	10.001	40.6049	40.6049	0	11.2791	11	0.00897499	0.000000000000000E+000	4.88109e+08	0.000000000000000E+000	0.000000000000000E+000	11.2791	11.2791	0.0000000E+000	0.000000000000000E+000	0.00819408
1	1	0	1	0	0	0	6155.26	10	0.819572	10.001	40.9349	40.9349	0	11.3708	11	0.00905012	0.000000000000000E+000	4.90637e+08	0.000000000000000E+000	0.000000000000000E+000	11.3708	11.3708	0.0000000E+000	0.000000000000000E+000	0.00819652
1	1	0	1	0	0	0	6188.26	10	0.81995	10.0015	41.265	41.265	0	11.4625	11	0.00912527	0.000000000000000E+000	4.92362e+08	0.000000000000000E+000	0.000000000000000E+000	11.4625	11.4625	0.0000000E+000	0.000000000000000E+000	0.00820072
1	1	0	1	0	0	0	6221.26	10	0.82024	10.0016	41.595	41.595	0	11.5542	11	0.00920046	0.000000000000000E+000	4.94587e+08	0.000000000000000E+000	0.000000000000000E+000	11.5542	11.5542	0.0000000E+000	0.000000000000000E+000	0.00820368
1	1	0	1	0	0	0	6254.26	10	0.820489	10.0017	41.9251	41.9251	0	11.6459	11	0.00927567	0.000000000000000E+000	4.97039e+08	0.000000000000000E+000	0.000000000000000E+000	11.6459	11.6459	0.0000000E+000	0.000000000000000E+000	0.00820632
1	1	0	1	0	0	0	6287.26	10	0.82081	10.0009	42.2551	42.2551	0	11.7375	11	0.00935091	0.000000000000000E+000	4.99053e+08	0.000000000000000E+000	0.000000000000000E+000	11.7375	11.7375	0.0000000E+000	0.000000000000000E+000	0.0082088
1	1	0	1	0	0	0	6320.26	10	0.821032	10.0019	42.5852	42.5852	0	11.8292	11	0.00942617	0.000000000000000E+000	5.01636e+08	0.000000000000000E+000	0.000000000000000E+000	11.8292	11.8292	0.0000000E+000	0.000000000000000E+000	0.00821191
1	1	0	1	0	0	0	6353.26	10	0.821301	10.0012	42.9152	42.9152	0	11.9209	11	0.00950145	0.000000000000000E+000	5.03928e+08	0.000000000000000E+000	0.000000000000000E+000	11.9209	11.9209	0.0000000E+000	0.000000000000000E+000	0.00821402
1	1	0	1	0	0	0	6386.26	10	0.821615	10.0016	43.2453	43.2453	0	12.0126	11	0.00957677	0.000000000000000E+000	5.05939e+08	0.000000000000000E+000	0.000000000000000E+000	12.0126	12.0126	0.0000000E+000	0.000000000000000E+000	0.00821748
1	1	0	1	0	0	0	6419.26	10	0.821983	10.0013	43.5753	43.5753	0	12.1043	11	0.00965211	0.000000000000000E+000	5.07609e+08	0.000000000000000E+000	0.000000000000000E+000	12.1043	12.1043	0.0000000E+000	0.000000000000000E+000	0.00822091
1	1	0	1	0	0	0	6452.26	10	0.822145	10.0018	43.9053	43.9053	0	12.1959	11	0.00972747	0.000000000000000E+000	5.10492e+08	0.000000000000000E+000	0.000000000000000E+000	12.1959	12.1959	0.0000000E+000	0.000000000000000E+000	0.00822294
1	1	0	1	0	0	0	6485.26	10	0.822496	10.0014	44.2354	44.2354	0	12.2876	11	0.00980286	0.000000000000000E+000	5.12243e+08	0.000000000000000E+000	0.000000000000000E+000	12.2876	12.2876	0.0000000E+000	0.000000000000000E+000	0.00822608
1	1	0	1	0	0	0	6518.26	10	0.822763	10.001	44.5654	44.5654	0	12.3793	11	0.00987828	0.000000000000000E+000	5.14473e+08	0.000000000000000E+000	0.000000000000000E+000	12.3793	12.3793	0.0000000E+000	0.000000000000000E+000	0.00822844
1	1	0	1	0	0	0	6551.26	10	0.823064	10.0013	44.8955	44.8955	0	12.471	11	0.00995372	0.000000000000000E+000	5.16485e+08	0.000000000000000E+000	0.000000000000000E+000	12.471	12.471	0.0000000E+000	0.000000000000000E+000	0.00823172
1	1	0	1	0	0	0	6584.26	10	0.823297	10.0016	45.2255	45.2255	0	12.5626	11	0.0100292	0.000000000000000E+000	5.18892e+08	0.000000000000000E+000	0.000000000000000E+000	12.5626	12.5626	0.0000000E+000	0.000000000000000E+000	0.00823431
1	1	0	1	0	0	0	6617.26	10	0.823577	10.0014	45.5556	45.5556	0	12.6543	11	0.0101047	0.000000000000000E+000	5.21004e+08	0.000000000000000E+000	0.000000000000000E+000	12.6543	12.6543	0.0000000E+000	0.000000000000000E+000	0.00823695
1	1	0	1	0	0	0	6650.26	10	0.823871	10.0009	45.8856	45.8856	0	12.746	11	0.0101802	0.000000000000000E+000	5.23022e+08	0.000000000000000E+000	0.000000000000000E+000	12.746	12.746	0.0000000E+000	0.000000000000000E+000	0.00823947
1	1	0	1	0	0	0	6683.26	10	0.824174	10.0016	46.2157	46.2157	0	12.8377	11	0.0102558	0.000000000000000E+000	5.24971e+08	0.000000000000000E+000	0.000000000000000E+000	12.8377	12.8377	0.0000000E+000	0.000000000000000E+000	0.00824302
1	1	0	1	0	0	0	6716.26	10	0.824395	10.0016	46.5457	46.5457	0	12.9294	11	0.0103313	0.000000000000000E+000	5.27394e+08	0.000000000000000E+000	0.000000000000000E+000	12.9294	12.9294	0.0000000E+000	0.000000000000000E+000	0.00824524
1	1	0	1	0	0	0	6749.26	10	0.82476	10.0016	46.8757	46.8757	0	13.021	11	0.0104069	0.000000000000000E+000	5.28947e+08	0.000000000000000E+000	0.000000000000000E+000	13.021	13.021	0.0000000E+000	0.000000000000000E+000	0.00824894
1	1	0	1	0	0	0	6782.26	10	0.825092	10.0023	47.2058	47.2058	0	13.1127	11	0.0104825	0.000000000000000E+000	5.30686e+08	0.000000000000000E+000	0.000000000000000E+000	13.1127	13.1127	0.0000000E+000	0.000000000000000E+000	0.00825278
1	1	0	1	0	0	0	6815.26	10	0.825304	10.0012	47.5358	47.5358	0	13.2044	11	0.0105582	0.000000000000000E+000	5.33122e+08	0.000000000000000E+000	0.000000000000000E+000	13.2044	13.2044	0.0000000E+000	0.000000000000000E+000	0.00825401
1	1	0	1	0	0	0	6848.26	10	0.825558	10.001	47.8659	47.8659	0	13.2961	11	0.0106339	0.000000000000000E+000	5.35303e+08	0.000000000000000E+000	0.000000000000000E+000	13.2961	13.2961	0.0000000E+000	0.000000000000000E+000	0.00825644
1	1	0	1	0	0	0	6881.26	10	0.825937	10.0007	48.1959	48.1959	0	13.3878	11	0.0107096	0.000000000000000E+000	5.36715e+08	0.000000000000000E+000	0.000000000000000E+000	13.3878	13.3878	0.0000000E+000	0.000000000000000E+000	0.00825998
1	1	0	1	0	0	0	6914.26	10	0.826142	10.0015	48.526	48.526	0	13.4794	11	0.0107853	0.000000000000000E+000	5.3916e+08	0.000000000000000E+000	0.000000000000000E+000	13.4794	13.4794	0.0000000E+000	0.000000000000000E+000	0.00826266
1	1	0	1	0	0	0	6947.26	10	0.826413	10.0012	48.856	48.856	0	13.5711	11	0.0108611	0.000000000000000E+000	5.41197e+08	0.000000000000000E+000	0.000000000000000E+000	13.5711	13.5711	0.0000000E+000	0.000000000000000E+000	0.00826511
1	1	0	1	0	0	0	6980.26	10	0.826659	10.0012	49.1861	49.1861	0	13.6628	11	0.0109368	0.000000000000000E+000	5.43373e+08	0.000000000000000E+000	0.000000000000000E+000	13.6628	13.6628	0.0000000E+000	0.000000000000000E+000	0.00826762
1	1	0	1	0	0	0	7013.26	10	0.826914	10.0012	49.5161	49.5161	0	13.7545	11	0.0110126	0.000000000000000E+000	5.45483e+08	0.000000000000000E+000	0.000000000000000E+000	13.7545	13.7545	0.0000000E+000	0.000000000000000E+000	0.00827016
1	1	0	1	0	0	0	7046.26	10	0.827252	10.0014	49.8461	49.8461	0	13.8462	11	0.0110885	0.000000000000000E+000	5.47084e+08	0.000000000000000E+000	0.000000000000000E+000	13.8462	13.8462	0.0000000E+000	0.000000000000000E+000	0.00827365
1	1	0	1	0	0	0	7079.26	10	0.827528	10.0014	50.1762	50.1762	0	13.9378	11	0.0111643	0.000000000000000E+000	5.4904e+08	0.000000000000000E+000	0.000000000000000E+000	13.9378	13.9378	0.0000000E+000	0.000000000000000E+000	0.00827647
1	1	0	1	0	0	0	7112.26	10	0.827771	10.0004	50.5062	50.5062	0	14.0295	11	0.0112402	0.000000000000000E+000	5.51187e+08	0.000000000000000E+000	0.000000000000000E+000	14.0295	14.0295	0.0000000E+000	0.000000000000000E+000	0.00827805
1	1	0	1	0	0	0	7145.26	10	0.828029	10.0009	50.8363	50.8363	0	14.1212	11	0.0113161	0.000000000000000E+000	5.5323e+08	0.000000000000000E+000	0.000000000000000E+000	14.1212	14.1212	0.0000000E+000	0.000000000000000E+000	0.008281
1	1	0	1	0	0	0	7178.26	10	0.828305	10.0012	51.1663	51.1663	0	14.2129	11	0.011392	0.000000000000000E+000	5.55156e+08	0.000000000000000E+000	0.000000000000000E+000	14.2129	14.2129	0.0000000E+000	0.000000000000000E+000	0.00828402
1	1	0	1	0	0	0	7211.26	10	0.828508	10.001	51.4964	51.4964	0	14.3045	11	0.011468	0.000000000000000E+000	5.57511e+08	0.000000000000000E+000	0.000000000000000E+000	14.3045	14.3045	0.0000000E+000	0.000000000000000E+000	0.00828595
1	1	0	1	0	0	0	7244.26	10	0.828853	10.001	51.8264	51.8264	0	14.3962	11	0.0115439	0.000000000000000E+000	5.58994e+08	0.000000000000000E+000	0.000000000000000E+000	14.3962	14.3962	0.0000000E+000	0.000000000000000E+000	0.00828935
1	1	0	1	0	0	0	7277.26	10	0.829039	10.0015	52.1565	52.1565	0	14.4879	11	0.0116199	0.000000000000000E+000	5.61427e+08	0.000000000000000E+000	0.000000000000000E+000	14.4879	14.4879	0.0000000E+000	0.000000000000000E+000	0.00829163
1	1	0	1	0	0	0	7310.26	10	0.829283	10.0007	52.4865	52.4865	0	14.5796	11	0.011696	0.000000000000000E+000	5.63502e+08	0.000000000000000E+000	0.000000000000000E+000	14.5796	14.5796	0.0000000E+000	0.000000000000000E+000	0.00829343
1	1	0	1	0	0	0	7343.26	10	0.829624	10.0015	52.8165	52.8165	0	14.6713	11	0.011772	0.000000000000000E+000	5.64975e+08	0.000000000000000E+000	0.000000000000000E+000	14.6713	14.6713	0.0000000E+000	0.000000000000000E+000	0.00829748
1	1	0	1	0	0	0	7376.26	10	0.829848	10.0018	53.1466	53.1466	0	14.7629	11	0.0118481	0.000000000000000E+000	5.67146e+08	0.000000000000000E+000	0.000000000000000E+000	14.7629	14.7629	0.0000000E+000	0.000000000000000E+000	0.00829999
1	1	0	1	0	0	0	7409.26	10	0.830157	10.0016	53.4766	53.4766	0	14.8546	11	0.0119242	0.000000000000000E+000	5.68792e+08	0.000000000000000E+000	0.000000000000000E+000	14.8546	14.8546	0.0000000E+000	0.000000000000000E+000	0.00830292
1	1	0	1	0	0	0	7442.26	10	0.830344	10.0014	53.8067	53.8067	0	14.9463	11	0.0120003	0.000000000000000E+000	5.71167e+08	0.000000000000000E+000	0.000000000000000E+000	14.9463	14.9463	0.0000000E+000	0.000000000000000E+000	0.00830463
1	1	0	1	0	0	0	7475.26	10	0.8307	10.0014	54.1367	54.1367	0	15.038	11	0.0120764	0.000000000000000E+000	5.72507e+08	0.000000000000000E+000	0.000000000000000E+000	15.038	15.038	0.0000000E+000	0.000000000000000E+000	0.00830814
1	1	0	1	0	0	0	7508.26	10	0.830932	10.0016	54.4668	54.4668	0	15.1297	11	0.0121526	0.000000000000000E+000	5.74589e+08	0.000000000000000E+000	0.000000000000000E+000	15.1297	15.1297	0.0000000E+000	0.000000000000000E+000	0.00831067
1	1	0	1	0	0	0	7541.26	10	0.831188	10.0011	54.7968	54.7968	0	15.2213	11	0.0122288	0.000000000000000E+000	5.7651e+08	0.000000000000000E+000	0.000000000000000E+000	15.2213	15.2213	0.0000000E+000	0.000000000000000E+000	0.00831281
1	1	0	1	0	0	0	7574.26	10	0.83148	10.0016	55.1269	55.1269	0	15.313	11	0.012305	0.000000000000000E+000	5.78206e+08	0.000000000000000E+000	0.000000000000000E+000	15.313	15.313	0.0000000E+000	0.000000000000000E+000	0.0083161
1	1	0	1	0	0	0	7607.26	10	0.831748	10.0005	55.4569	55.4569	0	15.4047	11	0.0123812	0.000000000000000E+000	5.80043e+08	0.000000000000000E+000	0.000000000000000E+000	15.4047	15.4047	0.0000000E+000	0.000000000000000E+000	0.00831793
1	1	0	1	0	0	0	7640.26	10	0.832024	10.0016	55.7869	55.7869	0	15.4964	11	0.0124575	0.000000000000000E+000	5.81811e+08	0.000000000000000E+000	0.000000000000000E+000	15.4964	15.4964	0.0000000E+000	0.000000000000000E+000	0.00832159
1	1	0	1	0	0	0	7673.26	10	0.832315	10.0016	56.117	56.117	0	15.5881	11	0.0125338	0.000000000000000E+000	5.83485e+08	0.000000000000000E+000	0.000000000000000E+000	15.5881	15.5881	0.0000000E+000	0.000000000000000E+000	0.00832444
1	1	0	1	0	0	0	7706.26	10	0.832632	10.0014	56.447	56.447	0	15.6797	11	0.0126101	0.000000000000000E+000	5.84989e+08	0.000000000000000E+000	0.000000000000000E+000	15.6797	15.6797	0.0000000E+000	0.000000000000000E+000	0.00832746
1	1	0	1	0	0	0	7739.26	10	0.832896	10.0013	56.7771	56.7771	0	15.7714	11	0.0126865	0.000000000000000E+000	5.86802e+08	0.000000000000000E+000	0.000000000000000E+000	15.7714	15.7714	0.0000000E+000	0.000000000000000E+000	0.00833005
1	1	0	1	0	0	0	7772.26	10	0.833088	10.0016	57.1071	57.1071	0	15.8631	11	0.0127628	0.000000000000000E+000	5.89046e+08	0.000000000000000E+000	0.000000000000000E+000	15.8631	15.8631	0.0000000E+000	0.000000000000000E+000	0.00833223
1	1	0	1	0	0	0	7805.26	10	0.833389	10.0017	57.4372	57.4372	0	15.9548	11	0.0128392	0.000000000000000E+000	5.90615e+08	0.000000000000000E+000	0.000000000000000E+000	15.9548	15.9548	0.0000000E+000	0.000000000000000E+000	0.00833535
1	1	0	1	0	0	0	7838.26	10	0.833599	10.0016	57.7672	57.7672	0	16.0464	11	0.0129156	0.000000000000000E+000	5.92729e+08	0.000000000000000E+000	0.000000000000000E+000	16.0464	16.0464	0.0000000E+000	0.000000000000000E+000	0.00833734
1	1	0	1	0	0	0	7871.26	10	0.83384	10.001	58.0973	58.0973	0	16.1381	11	0.0129921	0.000000000000000E+000	5.94642e+08	0.000000000000000E+000	0.000000000000000E+000	16.1381	16.1381	0.0000000E+000	0.000000000000000E+000	0.00833923
1	1	0	1	0	0	0	7904.26	10	0.834169	10.0012	58.4273	58.4273	0	16.2298	11	0.0130685	0.000000000000000E+000	5.96015e+08	0.000000000000000E+000	0.000000000000000E+000	16.2298	16.2298	0.0000000E+000	0.000000000000000E+000	0.00834267
1	1	0	1	0	0	0	7937.26	10	0.834452	10.0011	58.7573	58.7573	0	16.3215	11	0.013145	0.000000000000000E+000	5.97658e+08	0.000000000000000E+000	0.000000000000000E+000	16.3215	16.3215	0.0000000E+000	0.000000000000000E+000	0.00834545
1	1	0	1	0	0	0	7970.26	10	0.83476	10.0012	59.0874	59.0874	0	16.4132	11	0.0132215	0.000000000000000E+000	5.99141e+08	0.000000000000000E+000	0.000000000000000E+000	16.4132	16.4132	0.0000000E+000	0.000000000000000E+000	0.00834863
1	1	0	1	0	0	0	8003.26	10	0.835052	10.0014	59.4174	59.4174	0	16.5048	11	0.0132981	0.000000000000000E+000	6.00707e+08	0.000000000000000E+000	0.000000000000000E+000	16.5048	16.5048	0.0000000E+000	0.000000000000000E+000	0.00835171
1	1	0	1	0	0	0	8036.26	10	0.835366	10.0015	59.7475	59.7475	0	16.5965	11	0.0133747	0.000000000000000E+000	6.02129e+08	0.000000000000000E+000	0.000000000000000E+000	16.5965	16.5965	0.0000000E+000	0.000000000000000E+000	0.00835491
1	1	0	1	0	0	0	8069.26	10	0.835562	10.0016	60.0775	60.0775	0	16.6882	11	0.0134512	0.000000000000000E+000	6.04264e+08	0.000000000000000E+000	0.000000000000000E+000	16.6882	16.6882	0.0000000E+000	0.000000000000000E+000	0.00835692
1	1	0	1	0	0	0	8102.26	10	0.835846	10.0018	60.4076	60.4076	0	16.7799	11	0.0135279	0.000000000000000E+000	6.05852e+08	0.000000000000000E+000	0.000000000000000E+000	16.7799	16.7799	0.0000000E+000	0.000000000000000E+000	0.00835998
1	1	0	1	0	0	0	8135.26	10	0.836136	10.0012	60.7376	60.7376	0	16.8716	11	0.0136045	0.000000000000000E+000	6.07396e+08	0.000000000000000E+000	0.000000000000000E+000	16.8716	16.8716	0.0000000E+000	0.000000000000000E+000	0.00836234
1	1	0	1	0	0	0	8168.26	10	0.836411	10.0007	61.0677	61.0677	0	16.9632	11	0.0136812	0.000000000000000E+000	6.09019e+08	0.000000000000000E+000	0.000000000000000E+000	16.9632	16.9632	0.0000000E+000	0.000000000000000E+000	0.00836473
1	1	0	1	0	0	0	8201.26	10	0.836629	10.0016	61.3977	61.3977	0	17.0549	11	0.0137579	0.000000000000000E+000	6.10987e+08	0.000000000000000E+000	0.000000000000000E+000	17.0549	17.0549	0.0000000E+000	0.000000000000000E+000	0.00836764
1	1	0	1	0	0	0	8234.26	10	0.836898	10.001	61.7277	61.7277	0	17.1466	11	0.0138346	0.000000000000000E+000	6.1263e+08	0.000000000000000E+000	0.000000000000000E+000	17.1466	17.1466	0.0000000E+000	0.000000000000000E+000	0.00836986
1	1	0	1	0	0	0	8267.26	10	0.837246	10.0006	62.0578	62.0578	0	17.2383	11	0.0139113	0.000000000000000E+000	6.13786e+08	0.000000000000000E+000	0.000000000000000E+000	17.2383	17.2383	0.0000000E+000	0.000000000000000E+000	0.00837296
1	1	0	1	0	0	0	8300.26	10	0.837484	10.0014	62.3878	62.3878	0	17.33	11	0.0139881	0.000000000000000E+000	6.15603e+08	0.000000000000000E+000	0.000000000000000E+000	17.33	17.33	0.0000000E+000	0.000000000000000E+000	0.00837598
1	1	0	1	0	0	0	8333.26	10	0.837807	10.002	62.7179	62.7179	0	17.4216	11	0.0140649	0.000000000000000E+000	6.16888e+08	0.000000000000000E+000	0.000000000000000E+000	17.4216	17.4216	0.0000000E+000	0.000000000000000E+000	0.00837975
1	1	0	1	0	0	0	8366.26	10	0.838034	10.001	63.0479	63.0479	0	17.5133	11	0.0141417	0.000000000000000E+000	6.18756e+08	0.000000000000000E+000	0.000000000000000E+000	17.5133	17.5133	0.0000000E+000	0.000000000000000E+000	0.00838116
1	1	0	1	0	0	0	8399.26	10	0.838363	10.0015	63.378	63.378	0	17.605	11	0.0142185	0.000000000000000E+000	6.19991e+08	0.000000000000000E+000	0.000000000000000E+000	17.605	17.605	0.0000000E+000	0.000000000000000E+000	0.00838489
1	1	0	1	0	0	0	8432.26	10	0.838589	10.0017	63.708	63.708	0	17.6967	11	0.0142954	0.000000000000000E+000	6.21845e+08	0.000000000000000E+000	0.000000000000000E+000	17.6967	17.6967	0.0000000E+000	0.000000000000000E+000	0.00838731
1	1	0	1	0	0	0	8465.26	10	0.838985	10.0016	64.0381	64.0381	0	17.7883	11	0.0143723	0.000000000000000E+000	6.2266e+08	0.000000000000000E+000	0.000000000000000E+000	17.7883	17.7883	0.0000000E+000	0.000000000000000E+000	0.00839121
1	1	0	1	0	0	0	8498.26	10	0.8392	10.0014	64.3681	64.3681	0	17.88	11	0.0144492	0.000000000000000E+000	6.24565e+08	0.000000000000000E+000	0.000000000000000E+000	17.88	17.88	0.0000000E+000	0.000000000000000E+000	0.00839315
1	1	0	1	0	0	0	8531.26	10	0.839461	10.001	64.6981	64.6981	0	17.9717	11	0.0145262	0.000000000000000E+000	6.26181e+08	0.000000000000000E+000	0.000000000000000E+000	17.9717	17.9717	0.0000000E+000	0.000000000000000E+000	0.00839549
1	1	0	1	0	0	0	8564.26	10	0.839752	10.0012	65.0282	65.0282	0	18.0634	11	0.0146032	0.000000000000000E+000	6.27606e+08	0.000000000000000E+000	0.000000000000000E+000	18.0634	18.0634	0.0000000E+000	0.000000000000000E+000	0.00839851
1	1	0	1	0	0	0	8597.26	10	0.840012	10.0013	65.3582	65.3582	0	18.1551	11	0.0146802	0.000000000000000E+000	6.29212e+08	0.000000000000000E+000	0.000000000000000E+000	18.1551	18.1551	0.0000000E+000	0.000000000000000E+000	0.00840122
1	1	0	1	0	0	0	8630.26	10	0.840321	10.0021	65.6883	65.6883	0	18.2467	11	0.0147572	0.000000000000000E+000	6.30514e+08	0.000000000000000E+000	0.000000000000000E+000	18.2467	18.2467	0.0000000E+000	0.000000000000000E+000	0.00840495
1	1	0	1	0	0	0	8663.26	10	0.84057	10.0012	66.0183	66.0183	0	18.3384	11	0.0148343	0.000000000000000E+000	6.32171e+08	0.000000000000000E+000	0.000000000000000E+000	18.3384	18.3384	0.0000000E+000	0.000000000000000E+000	0.00840675
1	1	0	1	0	0	0	8696.26	10	0.840908	10.0013	66.3484	66.3484	0	18.4301	11	0.0149113	0.000000000000000E+000	6.33286e+08	0.000000000000000E+000	0.000000000000000E+000	18.4301	18.4301	0.0000000E+000	0.000000000000000E+000	0.00841017
1	1	0	1	0	0	0	8729.26	10	0.841243	10.0015	66.6784	66.6784	0	18.5218	11	0.0149884	0.000000000000000E+000	6.34408e+08	0.000000000000000E+000	0.000000000000000E+000	18.5218	18.5218	0.0000000E+000	0.000000000000000E+000	0.00841368
1	1	0	1	0	0	0	8762.26	10	0.841542	10.0012	67.0085	67.0085	0	18.6135	11	0.0150656	0.000000000000000E+000	6.35739e+08	0.000000000000000E+000	0.000000000000000E+000	18.6135	18.6135	0.0000000E+000	0.000000000000000E+000	0.00841641
1	1	0	1	0	0	0	8795.26	10	0.841776	10.0014	67.3385	67.3385	0	18.7051	11	0.0151427	0.000000000000000E+000	6.37452e+08	0.000000000000000E+000	0.000000000000000E+000	18.7051	18.7051	0.0000000E+000	0.000000000000000E+000	0.00841897
1	1	0	1	0	0	0	8828.26	10	0.842	10.0011	67.6685	67.6685	0	18.7968	11	0.0152199	0.000000000000000E+000	6.39222e+08	0.000000000000000E+000	0.000000000000000E+000	18.7968	18.7968	0.0000000E+000	0.000000000000000E+000	0.00842094
1	1	0	1	0	0	0	8861.26	10	0.842349	10.0012	67.9986	67.9986	0	18.8885	11	0.0152971	0.000000000000000E+000	6.40229e+08	0.000000000000000E+000	0.000000000000000E+000	18.8885	18.8885	0.0000000E+000	0.000000000000000E+000	0.00842448
1	1	0	1	0	0	0	8894.26	10	0.842661	10.0003	68.3286	68.3286	0	18.9802	11	0.0153744	0.000000000000000E+000	6.41455e+08	0.000000000000000E+000	0.000000000000000E+000	18.9802	18.9802	0.0000000E+000	0.000000000000000E+000	0.00842685
1	1	0	1	0	0	0	8927.26	10	0.842841	10.0009	68.6587	68.6587	0	19.0719	11	0.0154516	0.000000000000000E+000	6.43464e+08	0.000000000000000E+000	0.000000000000000E+000	19.0719	19.0719	0.0000000E+000	0.000000000000000E+000	0.00842919
1	1	0	1	0	0	0	8960.26	10	0.843147	10.0014	68.9887	68.9887	0	19.1635	11	0.0155289	0.000000000000000E+000	6.44708e+08	0.000000000000000E+000	0.000000000000000E+000	19.1635	19.1635	0.0000000E+000	0.000000000000000E+000	0.00843262
1	1	0	1	0	0	0	8993.26	10	0.843476	10.0013	69.3188	69.3188	0	19.2552	11	0.0156063	0.000000000000000E+000	6.45804e+08	0.000000000000000E+000	0.000000000000000E+000	19.2552	19.2552	0.0000000E+000	0.000000000000000E+000	0.00843586
1	1	0	1	0	0	0	9026.26	10	0.843674	10.001	69.6488	69.6488	0	19.3469	11	0.0156836	0.000000000000000E+000	6.47686e+08	0.000000000000000E+000	0.000000000000000E+000	19.3469	19.3469	0.0000000E+000	0.000000000000000E+000	0.00843757
1	1	0	1	0	0	0	9059.26	10	0.843975	10.0011	69.9789	69.9789	0	19.4386	11	0.0157609	0.000000000000000E+000	6.48937e+08	0.000000000000000E+000	0.000000000000000E+000	19.4386	19.4386	0.0000000E+000	0.000000000000000E+000	0.00844069
1	1	0	1	0	0	0	9092.26	10	0.844214	10.0013	70.3089	70.3089	0	19.5303	11	0.0158383	0.000000000000000E+000	6.50559e+08	0.000000000000000E+000	0.000000000000000E+000	19.5303	19.5303	0.0000000E+000	0.000000000000000E+000	0.00844324
1	1	0	1	0	0	0	9125.26	10	0.844469	10.0011	70.6389	70.6389	0	19.6219	11	0.0159157	0.000000000000000E+000	6.52074e+08	0.000000000000000E+000	0.000000000000000E+000	19.6219	19.6219	0.0000000E+000	0.000000000000000E+000	0.00844563
1	1	0	1	0	0	0	9158.26	10	0.84473	10.0019	70.969	70.969	0	19.7136	11	0.0159932	0.000000000000000E+000	6.53544e+08	0.000000000000000E+000	0.000000000000000E+000	19.7136	19.7136	0.0000000E+000	0.000000000000000E+000	0.00844889
1	1	0	1	0	0	0	9191.26	10	0.845026	10.0015	71.299	71.299	0	19.8053	11	0.0160706	0.000000000000000E+000	6.54798e+08	0.000000000000000E+000	0.000000000000000E+000	19.8053	19.8053	0.0000000E+000	0.000000000000000E+000	0.00845153
1	1	0	1	0	0	0	9224.26	10	0.845318	10.0014	71.6291	71.6291	0	19.897	11	0.0161481	0.000000000000000E+000	6.5607e+08	0.000000000000000E+000	0.000000000000000E+000	19.897	19.897	0.0000000E+000	0.000000000000000E+000	0.00845434
1	1	0	1	0	0	0	9257.26	10	0.845607	10.001	71.9591	71.9591	0	19.9886	11	0.0162256	0.000000000000000E+000	6.57354e+08	0.000000000000000E+000	0.000000000000000E+000	19.9886	19.9886	0.0000000E+000	0.000000000000000E+000	0.00845696
1	1	0	1	0	0	0	9262.31	10	0.845517	10.0019	72.0097	72.0097	0	20.0027	11	0.0162375	0.000000000000000E+000	6.5836e+08	0.000000000000000E+000	0.000000000000000E+000	20.0027	20.0027	0.0000000E+000	0.000000000000000E+000	0.00845675