File: Data_Lola/CoNiFeNx_400ºC_24h_13102022/Electrodes_20012023/Set 2/2023_01_23_CoNiFeNx_400ºC_24h_electrode1__set2_20012023_1_01_CV_C01.mpt
EC-Lab ASCII FILE
Nb header lines : 57

Cyclic Voltammetry

Run on channel : 1 (SN 21648)
User :
CE vs. WE compliance from -10 V to 10 V
Electrode connection : standard
Potential control : Ewe
Ewe ctrl range : min = -2.50 V, max = 2.50 V
Safety Limits :
	Do not start on E overload
Acquisition started on : 01/23/2023 11:53:57.913
Loaded Setting File :  C:\Users\grupogalan\Documents\EC-Lab\Data\Lole Jurado\2023_01_20_CoNiFeNx_400ºC_24h_electrode2_19012023_1.mps
Saved on :
	File : 2023_01_23_CoNiFeNx_400ºC_24h_electrode1__set2_20012023_1_01_CV_C01.mpr
	Directory : C:\Users\grupogalan\Documents\EC-Lab\Data\Lole Jurado\
	Host : 169.254.104.159
Device : VSP (SN 1176)
Address : USB
EC-Lab for windows v11.46 (software)
Internet server v11.40 (firmware)
Command interpretor v11.40 (firmware)
Electrode material :
Initial state :
Electrolyte :
Comments :
Electrode surface area : 0.000 cm²
Characteristic mass : 0.001 g
Equivalent Weight : 0.000 g/eq.
Density : 0.000 g/cm3
Volume (V) : 0.001 cm³
Cycle Definition : Charge/Discharge alternance
Ei (V)              0.000
vs.                 Eoc
dE/dt               10.000
dE/dt unit          mV/s
E1 (V)              1.000
vs.                 Ref
Step percent        50
N                   10
E range min (V)     -2.500
E range max (V)     2.500
I Range             Auto
I Range min         Unset
I Range max         Unset
I Range init        Unset
Bandwidth           5
E2 (V)              0.000
vs.                 Ref
nc cycles           2
Reverse Scan        1
Ef (V)              0.000
vs.                 Eoc

mode	ox/red	error	control changes	counter inc.	time/s	control/V	Ewe/V	<I>/mA	cycle number	(Q-Qo)/C	I Range	P/W
2	0	0	0	0	0.000000000000000E+000	-0.091002	-0.0921973	-0.00113689	1	0.0000000E+000	13	1.04818e-07
2	1	0	1	0	0.8552	-0.0824519	-0.0839851	0.000877581	1	8.01101e-07	13	-7.37037e-08
2	1	0	1	0	1.7552	-0.0734517	-0.0737574	0.00122655	1	2.09132e-06	13	-9.04672e-08
2	1	0	1	0	2.6552	-0.0644515	-0.0643031	0.00151408	1	3.66192e-06	13	-9.73603e-08
2	1	0	1	0	3.5552	-0.0554514	-0.0553547	0.00173328	1	5.46671e-06	13	-9.59451e-08
2	1	0	1	0	4.4552	-0.0464512	-0.0471753	0.00200458	1	7.50141e-06	13	-9.45666e-08
2	1	0	1	0	5.3552	-0.037451	-0.0379394	0.00224793	1	9.75344e-06	13	-8.52853e-08
2	1	0	1	0	6.2552	-0.0284509	-0.0286219	0.00247809	1	1.22196e-05	13	-7.09275e-08
2	1	0	1	0	7.1552	-0.0194507	-0.0177005	0.00270622	1	1.49084e-05	13	-4.79014e-08
2	1	0	1	0	8.0552	-0.0104505	-0.00993908	0.00291628	1	1.78075e-05	13	-2.89851e-08
2	1	0	1	0	8.9552	-0.00145034	-0.00236964	0.00313218	1	2.09141e-05	13	-7.42211e-09
2	1	0	1	0	9.8552	0.00754983	0.00549363	0.00344039	1	2.4271e-05	13	1.89002e-08
2	1	0	1	0	10.7552	0.01655	0.0163821	0.00372741	1	2.78853e-05	13	6.10629e-08
2	1	0	0	0	11.6554	0.0255502	0.0265164	0.0040156	1	3.17545e-05	13	1.06479e-07
2	1	0	0	0	12.5554	0.0345503	0.0350278	0.00437819	1	3.59153e-05	13	1.53358e-07
2	1	0	0	0	13.4554	0.0435505	0.0432867	0.0045984	1	4.03304e-05	13	1.9905e-07
2	1	0	0	0	14.3554	0.0525507	0.0508752	0.00490834	1	4.50075e-05	13	2.49713e-07
2	1	0	0	0	15.2554	0.0615508	0.0607921	0.0052164	1	4.99879e-05	13	3.17116e-07
2	1	0	0	0	16.1554	0.070551	0.0714186	0.00558911	1	5.5279e-05	13	3.99166e-07
2	1	0	0	0	17.0554	0.0795512	0.0809684	0.00596528	1	6.09176e-05	13	4.82999e-07
2	1	0	0	0	17.9554	0.0885513	0.0880637	0.00633681	1	6.69066e-05	13	5.58043e-07
2	1	0	0	0	18.8554	0.0975515	0.0952279	0.00678961	1	7.32819e-05	13	6.4656e-07
2	1	0	0	0	19.7554	0.106552	0.105001	0.00722958	1	8.00784e-05	13	7.5911e-07
2	1	0	0	0	20.6554	0.115552	0.115824	0.00788318	1	8.73856e-05	13	9.13064e-07
2	1	0	0	0	21.5554	0.124552	0.126115	0.00856605	1	9.53043e-05	13	1.0803e-06
2	1	0	1	0	22.4556	0.133552	0.134639	0.00953117	1	0.000103939	13	1.28326e-06
2	1	0	1	0	23.3556	0.142552	0.14207	0.0105546	1	0.000113463	13	1.49949e-06
2	1	0	1	0	24.2556	0.151553	0.150872	0.0117674	1	0.000124029	13	1.77537e-06
2	1	0	1	0	25.1556	0.160553	0.160275	0.0130497	1	0.000135749	13	2.09153e-06
2	1	0	1	0	26.0556	0.169553	0.169788	0.0144954	1	0.00014872	13	2.46115e-06
2	1	0	1	0	26.9556	0.178553	0.178804	0.0157836	1	0.000162946	13	2.82217e-06
2	1	0	1	0	27.8556	0.187553	0.18658	0.0170368	1	0.000178361	13	3.17872e-06
2	1	0	1	0	28.7556	0.196553	0.195948	0.018207	1	0.000194879	13	3.56763e-06
2	1	0	1	0	29.6556	0.205553	0.206179	0.0193174	1	0.000212432	13	3.98283e-06
2	1	0	1	0	30.5556	0.214554	0.214329	0.0202389	1	0.000230931	13	4.33779e-06
2	1	0	1	0	31.4556	0.223554	0.224615	0.0212356	1	0.000250349	13	4.76983e-06
2	1	0	0	0	32.3558	0.232554	0.232885	0.0222561	1	0.000270716	13	5.18313e-06
2	1	0	0	0	33.2558	0.241554	0.242694	0.0233234	1	0.000292073	13	5.66045e-06
2	1	0	0	0	34.1558	0.250554	0.250394	0.0245311	1	0.000314462	13	6.14243e-06
2	1	0	0	0	35.0558	0.259554	0.258432	0.0258522	1	0.000337965	13	6.68103e-06
2	1	0	0	0	35.9558	0.268555	0.268297	0.0272794	1	0.000362717	13	7.31897e-06
2	1	0	0	0	36.8558	0.277555	0.27833	0.0288235	1	0.00038885	13	8.02242e-06
2	1	0	0	0	37.7558	0.286555	0.287118	0.0306706	1	0.000416547	13	8.80608e-06
2	1	0	0	0	38.6558	0.295555	0.295797	0.032617	1	0.000445975	13	9.64801e-06
2	1	0	0	0	39.5558	0.304555	0.303096	0.0349652	1	0.000477384	13	1.05978e-05
2	1	0	0	0	40.4558	0.313556	0.314309	0.0376339	1	0.000511054	13	1.18287e-05
2	1	0	0	0	41.3558	0.322556	0.323661	0.040625	1	0.000547337	13	1.31487e-05
2	1	0	0	0	42.2558	0.331556	0.331144	0.0442736	1	0.000586694	13	1.46609e-05
2	1	0	1	0	43.156	0.340556	0.339263	0.0485398	1	0.000629632	13	1.64677e-05
2	1	0	1	0	44.056	0.349556	0.34912	0.0533966	1	0.000676695	13	1.86418e-05
2	1	0	1	0	44.956	0.358556	0.360241	0.0589691	1	0.00072854	13	2.12431e-05
2	1	0	1	0	45.856	0.367556	0.368076	0.0654868	1	0.000785893	13	2.41041e-05
2	1	0	1	0	46.756	0.376557	0.377459	0.0726785	1	0.000849473	13	2.74332e-05
2	1	0	1	0	47.686	0.385857	0.382791	0.0818721	1	0.000922602	12	3.13399e-05
2	1	0	1	0	48.586	0.394857	0.392632	0.091102	1	0.0010013	12	3.57695e-05
2	1	0	1	0	49.486	0.403857	0.404571	0.100923	1	0.00108864	12	4.08304e-05
2	1	0	1	0	50.386	0.412857	0.414778	0.112071	1	0.00118558	12	4.64844e-05
2	1	0	1	0	51.286	0.421858	0.423392	0.124726	1	0.00129312	12	5.28081e-05
2	1	0	1	0	52.186	0.430858	0.429364	0.138521	1	0.0014125	12	5.9476e-05
2	1	0	1	0	53.086	0.439858	0.439627	0.154154	1	0.00154512	12	6.777e-05
2	1	0	0	0	53.9862	0.448858	0.448288	0.171356	1	0.00169267	12	7.68167e-05
2	1	0	0	0	54.8862	0.457858	0.458609	0.191162	1	0.00185687	12	8.76684e-05
2	1	0	0	0	55.7862	0.466858	0.46642	0.213065	1	0.00203991	12	9.9378e-05
2	1	0	0	0	56.6862	0.475858	0.475109	0.236995	1	0.00224388	12	0.000112599
2	1	0	0	0	57.5862	0.484859	0.483437	0.262032	1	0.00246995	12	0.000126676
2	1	0	0	0	58.4862	0.493859	0.494386	0.286348	1	0.00271829	12	0.000141566
2	1	0	0	0	59.3862	0.502859	0.504337	0.311152	1	0.00298882	12	0.000156925
2	1	0	0	0	60.2862	0.511859	0.512057	0.335789	1	0.00328174	12	0.000171943
2	1	0	0	0	61.1862	0.520859	0.521008	0.361755	1	0.0035975	12	0.000188477
2	1	0	0	0	62.0862	0.529859	0.528389	0.388094	1	0.0039369	12	0.000205065
2	1	0	0	0	62.9862	0.53886	0.539731	0.415475	1	0.00430083	12	0.000224245
2	1	0	1	0	63.8864	0.54786	0.54765	0.444481	1	0.0046907	12	0.00024342
2	1	0	1	0	64.7864	0.55686	0.557368	0.474836	1	0.00510722	12	0.000264658
2	1	0	1	0	65.6864	0.56586	0.564915	0.507013	1	0.00555184	12	0.000286419
2	1	0	1	0	66.5864	0.57486	0.573601	0.541437	1	0.00602654	12	0.000310569
2	1	0	1	0	67.4864	0.58386	0.584251	0.579565	1	0.00653377	12	0.000338612
2	1	0	1	0	68.3864	0.592861	0.593875	0.623354	1	0.00707769	12	0.000370194
2	1	0	1	0	69.2864	0.601861	0.6029	0.676181	1	0.00766502	12	0.000407669
2	1	0	1	0	70.1864	0.610861	0.610518	0.7452	1	0.00830676	12	0.000454958
2	1	0	1	0	71.0864	0.619861	0.618378	0.839183	1	0.00902111	12	0.000518933
2	1	0	1	0	71.9864	0.628861	0.628781	0.972404	1	0.00983675	12	0.000611429
2	1	0	1	0	72.9164	0.638162	0.638501	1.16878	1	0.0108344	11	0.000746265
2	1	0	1	0	73.8164	0.647162	0.647081	1.43374	1	0.012004	11	0.000927746
2	1	0	0	0	74.7166	0.656162	0.655735	1.78335	1	0.0134496	11	0.00116941
2	1	0	0	0	75.6166	0.665162	0.664806	2.23016	1	0.0152531	11	0.00148262
2	1	0	0	0	76.5166	0.674162	0.674707	2.77885	1	0.0175052	11	0.00187491
2	1	0	0	0	77.4166	0.683162	0.683432	3.43424	1	0.0202996	11	0.00234707
2	1	0	0	0	78.3166	0.692163	0.69252	4.19349	1	0.0237299	11	0.00290407
2	1	0	0	0	79.2166	0.701163	0.700762	5.06358	1	0.0278947	11	0.00354836
2	1	0	0	0	80.1166	0.710163	0.710212	6.02687	1	0.0328849	11	0.00428035
2	1	0	0	0	81.0166	0.719163	0.718514	7.08863	1	0.0387874	11	0.00509328
2	1	0	0	0	81.9166	0.728163	0.727386	8.24674	1	0.0456887	11	0.00599857
2	1	0	0	0	82.8166	0.737163	0.736255	9.49762	1	0.0536741	11	0.00699267
2	1	0	0	0	83.7316	0.746314	0.746791	10.8349	1	0.0629926	11	0.00809137
2	1	0	0	0	84.6466	0.755464	0.756678	12.3331	1	0.0736164	10	0.00933219
2	1	0	1	0	85.5468	0.764464	0.766605	13.8497	1	0.0854041	10	0.0106173
2	1	0	1	0	86.4468	0.773464	0.773972	15.4328	1	0.0985851	10	0.0119445
2	1	0	1	0	87.3468	0.782464	0.780835	17.0893	1	0.113227	10	0.0133439
2	1	0	1	0	88.2468	0.791464	0.790187	18.8369	1	0.129401	10	0.0148846
2	1	0	1	0	89.1468	0.800464	0.798949	20.6412	1	0.14717	10	0.0164912
2	1	0	1	0	90.0468	0.809465	0.81054	22.4933	1	0.166588	10	0.0182317
2	1	0	1	0	90.9468	0.818465	0.818751	24.4055	1	0.187701	10	0.019982
2	1	0	1	0	91.8468	0.827465	0.827632	26.3926	1	0.210569	10	0.0218434
2	1	0	1	0	92.7468	0.836465	0.836539	28.4185	1	0.235238	10	0.0237732
2	1	0	1	0	93.6468	0.845465	0.844483	30.4619	1	0.261742	10	0.0257246
2	1	0	1	0	94.5468	0.854466	0.854549	32.6151	1	0.290132	10	0.0278712
2	1	0	1	0	95.447	0.863466	0.86171	34.791	1	0.320487	10	0.0299798
2	1	0	0	0	96.347	0.872466	0.872576	37.0244	1	0.352808	10	0.0323066
2	1	0	0	0	97.247	0.881466	0.882608	39.2864	1	0.387154	10	0.0346745
2	1	0	0	0	98.147	0.890466	0.891277	41.5907	1	0.423577	10	0.0370688
2	1	0	0	0	99.047	0.899466	0.899365	43.9045	1	0.462047	10	0.0394862
2	1	0	0	0	99.947	0.908467	0.908238	46.2885	1	0.50265	10	0.042041
2	1	0	0	0	100.847	0.917467	0.916103	48.8622	1	0.545488	10	0.0447629
2	1	0	0	0	101.747	0.926467	0.926505	51.406	1	0.590646	10	0.0476279
2	1	0	0	0	102.647	0.935467	0.936286	54.0188	1	0.638041	10	0.050577
2	1	0	0	0	103.547	0.944467	0.944941	56.4671	1	0.687767	10	0.0533581
2	1	0	0	0	104.447	0.953467	0.952468	59.1245	1	0.739821	10	0.0563142
2	1	0	0	0	105.347	0.962467	0.96158	61.5677	1	0.794149	10	0.0592023
2	1	0	1	0	106.247	0.971468	0.972305	64.4638	1	0.850949	10	0.0626785
2	1	0	1	0	107.147	0.980468	0.983048	67.3003	1	0.910337	10	0.0661594
2	1	0	1	0	108.047	0.989468	0.989219	70.0655	1	0.97215	10	0.0693101
2	1	0	1	0	108.947	0.998468	0.997067	72.6941	1	1.03634	10	0.0724809
2	1	0	1	0	109.758	0.993468	0.992964	70.6417	1	1.09471	10	0.0701446
2	1	0	1	0	110.658	0.984468	0.983486	67.5976	1	1.15692	10	0.0664813
2	1	0	1	0	111.558	0.975468	0.975201	64.6419	1	1.2164	10	0.0630389
2	1	0	0	0	112.458	0.966468	0.96683	61.6249	1	1.2732	10	0.0595808
2	1	0	0	0	113.358	0.957467	0.957681	58.7328	1	1.32733	10	0.0562473
2	1	0	0	0	114.258	0.948467	0.948305	55.9386	1	1.37896	10	0.0530468
2	1	0	0	0	115.158	0.939467	0.940097	53.1095	1	1.428	10	0.0499281
2	1	0	0	0	116.058	0.930467	0.930817	50.5457	1	1.47459	10	0.0470488
2	1	0	0	0	116.958	0.921467	0.922588	47.8779	1	1.51891	10	0.0441715
2	1	0	0	0	117.858	0.912467	0.912607	45.5675	1	1.56098	10	0.0415852
2	1	0	0	0	118.758	0.903466	0.901927	43.018	1	1.60082	10	0.0387991
2	1	0	0	0	119.658	0.894466	0.893165	40.537	1	1.63841	10	0.0362062
2	1	0	0	0	120.558	0.885466	0.88511	38.139	1	1.67379	10	0.0337572
2	1	0	0	0	121.458	0.876466	0.878065	35.8501	1	1.70707	10	0.0314787
2	1	0	0	0	122.358	0.867466	0.867881	33.5856	1	1.73829	10	0.0291483
2	1	0	1	0	123.258	0.858466	0.858314	31.4575	1	1.76755	10	0.0270005
2	1	0	1	0	124.158	0.849465	0.847778	29.381	1	1.79491	10	0.0249086
2	1	0	1	0	125.058	0.840465	0.840246	27.3286	1	1.82041	10	0.0229627
2	1	0	1	0	125.958	0.831465	0.833023	25.4292	1	1.84414	10	0.0211831
2	1	0	1	0	126.858	0.822465	0.821931	23.5435	1	1.86616	10	0.0193511
2	1	0	1	0	127.758	0.813465	0.812141	21.7431	1	1.88653	10	0.0176585
2	1	0	1	0	128.658	0.804465	0.803644	20.0053	1	1.9053	10	0.0160771
2	1	0	1	0	129.558	0.795464	0.795301	18.3639	1	1.92254	10	0.0146049
2	1	0	1	0	130.458	0.786464	0.787599	16.7957	1	1.93835	10	0.0132283
2	1	0	1	0	131.358	0.777464	0.778028	15.2916	1	1.95277	10	0.0118973
2	1	0	1	0	132.258	0.768464	0.768465	13.8589	1	1.96588	10	0.0106501
2	1	0	1	0	133.158	0.759463	0.758968	12.4983	1	1.97773	10	0.00948581
2	1	0	0	0	134.058	0.750464	0.749795	11.2161	1	1.98839	10	0.00840976
2	1	0	0	0	134.958	0.741463	0.741337	10.0012	1	1.99792	10	0.00741426
2	1	0	0	0	135.858	0.732463	0.731534	8.8715	1	2.0064	10	0.0064898
2	1	0	0	0	136.758	0.723463	0.723658	7.79943	1	2.01389	10	0.00564412
2	1	0	0	0	137.658	0.714463	0.714899	6.82205	1	2.02046	10	0.00487708
2	1	0	0	0	138.558	0.705463	0.706426	5.91496	1	2.02618	10	0.00417848
2	1	0	0	0	139.458	0.696463	0.695724	5.08487	1	2.03112	10	0.00353766
2	1	0	0	0	140.388	0.687162	0.687098	4.28066	1	2.03546	11	0.00294123
2	1	0	0	0	141.288	0.678162	0.679191	3.6	1	2.039	11	0.00244509
2	1	0	0	0	142.188	0.669162	0.670067	2.98599	1	2.04196	11	0.00200081
2	1	0	0	0	143.088	0.660162	0.659966	2.44444	1	2.04439	11	0.00161325
2	1	0	1	0	143.988	0.651162	0.650984	1.96797	1	2.04636	11	0.00128112
2	1	0	1	0	144.888	0.642162	0.642396	1.55372	1	2.04794	11	0.000998106
2	1	0	1	0	145.788	0.633161	0.632881	1.20529	1	2.04917	11	0.000762806
2	1	0	1	0	146.688	0.624161	0.622704	0.914257	1	2.05012	11	0.000569311
2	1	0	1	0	147.588	0.615161	0.614718	0.676338	1	2.05083	11	0.000415757
2	1	0	1	0	148.488	0.606161	0.604929	0.487664	1	2.05134	11	0.000295002
2	1	0	1	0	149.418	0.596861	0.595491	0.332972	1	2.05172	12	0.000198282
2	1	0	1	0	150.318	0.587861	0.58791	0.220234	1	2.05196	12	0.000129477
2	1	0	1	0	151.218	0.57886	0.578721	0.136008	1	2.05212	12	7.87106e-05
2	1	0	1	0	152.118	0.56986	0.569018	0.0737855	1	2.05221	12	4.19852e-05
2	1	0	1	0	153.018	0.56086	0.562599	0.0281521	1	2.05225	12	1.58384e-05
2	1	0	1	0	153.918	0.55186	0.551854	-0.00505343	1	2.05226	12	-2.78875e-06
2	1	0	0	0	154.819	0.54286	0.540789	-0.0293549	1	2.05224	12	-1.58748e-05
2	1	0	0	0	155.719	0.53386	0.53192	-0.0478395	1	2.0522	12	-2.54468e-05
2	1	0	0	0	156.619	0.524859	0.525953	-0.0611764	1	2.05215	12	-3.21759e-05
2	0	0	0	0	157.519	0.515859	0.517601	-0.0719792	1	2.05209	12	-3.72565e-05
2	0	0	0	0	158.419	0.506859	0.504915	-0.0799884	1	2.05201	12	-4.03874e-05
2	0	0	0	0	159.319	0.497859	0.498712	-0.0861659	1	2.05194	12	-4.2972e-05
2	0	0	0	0	160.219	0.488859	0.487571	-0.0920732	1	2.05186	12	-4.48922e-05
2	0	0	0	0	161.119	0.479859	0.481073	-0.0953587	1	2.05177	12	-4.58745e-05
2	0	0	0	0	162.019	0.470858	0.468333	-0.098689	1	2.05168	12	-4.62193e-05
2	0	0	0	0	162.919	0.461858	0.462317	-0.101267	1	2.05159	12	-4.68175e-05
2	0	0	0	0	163.819	0.452858	0.452719	-0.103031	1	2.05149	12	-4.66441e-05
2	0	0	0	0	164.719	0.443858	0.446399	-0.104932	1	2.0514	12	-4.68417e-05
2	0	0	1	0	165.619	0.434858	0.435897	-0.106084	1	2.0513	12	-4.62417e-05
2	0	0	1	0	166.519	0.425858	0.423577	-0.106686	1	2.0512	12	-4.51895e-05
2	0	0	1	0	167.419	0.416857	0.414635	-0.107825	1	2.0511	12	-4.47082e-05
2	0	0	1	0	168.319	0.407857	0.409539	-0.107907	1	2.05101	12	-4.41922e-05
2	0	0	1	0	169.219	0.398857	0.400057	-0.108465	1	2.05091	12	-4.33923e-05
2	0	0	1	0	170.119	0.389857	0.390786	-0.108471	1	2.05081	12	-4.2389e-05
2	0	0	1	0	171.019	0.380857	0.379668	-0.108842	1	2.05071	12	-4.13238e-05
2	0	0	1	0	171.919	0.371857	0.369646	-0.108992	1	2.05061	12	-4.02885e-05
2	0	0	1	0	172.819	0.362856	0.363137	-0.108727	1	2.05051	12	-3.94828e-05
2	0	0	1	0	173.719	0.353856	0.354313	-0.108617	1	2.05041	12	-3.84846e-05
2	0	0	1	0	174.619	0.344856	0.344906	-0.108584	1	2.05031	12	-3.74511e-05
2	0	0	1	0	175.519	0.335855	0.335013	-0.108521	1	2.05021	12	-3.63558e-05
2	0	0	0	0	176.419	0.326856	0.326324	-0.108013	1	2.05012	12	-3.52473e-05
2	0	0	0	0	177.319	0.317856	0.317693	-0.10712	1	2.05002	12	-3.40312e-05
2	0	0	0	0	178.219	0.308855	0.309518	-0.105547	1	2.04992	12	-3.26687e-05
2	0	0	0	0	179.119	0.299855	0.300273	-0.103141	1	2.04983	12	-3.09705e-05
2	0	0	0	0	180.019	0.290855	0.289468	-0.100654	1	2.04973	12	-2.91362e-05
2	0	0	0	0	180.919	0.281855	0.280462	-0.0981532	1	2.04964	12	-2.75282e-05
2	0	0	0	0	181.819	0.272855	0.272612	-0.095236	1	2.04956	12	-2.59625e-05
2	0	0	0	0	182.719	0.263855	0.265162	-0.0921358	1	2.04947	12	-2.44309e-05
2	0	0	0	0	183.619	0.254854	0.255125	-0.0888426	1	2.04939	12	-2.26659e-05
2	0	0	0	0	184.519	0.245854	0.245063	-0.0860954	1	2.04931	12	-2.10988e-05
2	0	0	0	0	185.419	0.236854	0.235955	-0.0824009	1	2.04923	12	-1.94429e-05
2	0	0	1	0	186.319	0.227854	0.228019	-0.0797467	1	2.04916	12	-1.81837e-05
2	0	0	1	0	187.219	0.218854	0.218833	-0.0762993	1	2.04909	12	-1.66968e-05
2	0	0	1	0	188.119	0.209854	0.210142	-0.0734536	1	2.04902	12	-1.54357e-05
2	0	0	1	0	189.019	0.200853	0.200147	-0.0703064	1	2.04896	12	-1.40716e-05
2	0	0	1	0	189.919	0.191853	0.191326	-0.0675975	1	2.04889	12	-1.29331e-05
2	0	0	1	0	190.819	0.182853	0.182549	-0.064368	1	2.04883	12	-1.17503e-05
2	0	0	1	0	191.719	0.173853	0.174074	-0.0618873	1	2.04878	12	-1.07729e-05
2	0	0	1	0	192.619	0.164853	0.163795	-0.0590768	1	2.04872	12	-9.67649e-06
2	0	0	1	0	193.519	0.155853	0.155796	-0.0564496	1	2.04867	12	-8.79462e-06
2	0	0	1	0	194.419	0.146852	0.147617	-0.0543812	1	2.04862	12	-8.02758e-06
2	0	0	1	0	195.319	0.137852	0.137817	-0.0523357	1	2.04857	12	-7.21272e-06
2	0	0	1	0	196.219	0.128852	0.127936	-0.0501391	1	2.04852	12	-6.41459e-06
2	0	0	0	0	197.119	0.119852	0.118416	-0.0483154	1	2.04848	12	-5.7213e-06
2	0	0	0	0	198.019	0.110852	0.110944	-0.0464163	1	2.04844	12	-5.1496e-06
2	0	0	0	0	198.919	0.101852	0.103225	-0.0446941	1	2.04839	12	-4.61354e-06
2	0	0	0	0	199.819	0.0928514	0.0934511	-0.0431957	1	2.04835	12	-4.03669e-06
2	0	0	0	0	200.719	0.0838512	0.0824332	-0.0418008	1	2.04832	12	-3.44578e-06
2	0	0	0	0	201.619	0.0748511	0.0746835	-0.040321	1	2.04828	12	-3.01131e-06
2	0	0	0	0	202.519	0.0658509	0.0657881	-0.0391279	1	2.04824	12	-2.57415e-06
2	0	0	0	0	203.419	0.0568507	0.0580426	-0.0379307	1	2.04821	12	-2.2016e-06
2	0	0	0	0	204.319	0.0478506	0.0478606	-0.0371278	1	2.04817	12	-1.77696e-06
2	0	0	0	0	205.219	0.0388504	0.0381325	-0.0361831	1	2.04814	12	-1.37975e-06
2	0	0	0	0	206.119	0.0298502	0.0293273	-0.035039	1	2.04811	12	-1.0276e-06
2	0	0	0	0	207.019	0.0208501	0.0212074	-0.0342658	1	2.04807	12	-7.26687e-07
2	0	0	1	0	207.92	0.0118499	0.0127851	-0.0335083	1	2.04804	12	-4.28406e-07
2	0	0	1	0	208.82	0.00284974	0.00331799	-0.0328884	1	2.04801	12	-1.09123e-07
2	0	0	1	1	209.56	0.00454977	0.00222224	-0.029917	2	2.04799	12	-6.64829e-08
2	0	0	1	1	210.46	0.0135499	0.0124488	-0.0267061	2	2.04797	12	-3.32459e-07
2	0	0	0	1	211.36	0.0225501	0.0229618	-0.0246589	2	2.04794	12	-5.66214e-07
2	0	0	0	1	212.26	0.0315503	0.0301197	-0.0226461	2	2.04792	12	-6.82094e-07
2	0	0	0	1	213.16	0.0405504	0.0417868	-0.021187	2	2.0479	12	-8.85334e-07
2	0	0	0	1	214.06	0.0495506	0.0504594	-0.0197323	2	2.04789	12	-9.95681e-07
2	0	0	0	1	214.96	0.0585508	0.0577541	-0.0184249	2	2.04787	12	-1.06411e-06
2	0	0	0	1	215.86	0.0675509	0.0668287	-0.0173096	2	2.04785	12	-1.15678e-06
2	0	0	0	1	216.76	0.0765511	0.0753507	-0.0160275	2	2.04784	12	-1.20768e-06
2	0	0	0	1	217.66	0.0855513	0.0867451	-0.015282	2	2.04783	12	-1.32564e-06
2	0	0	0	1	218.56	0.0945515	0.0952024	-0.0138435	2	2.04781	12	-1.31794e-06
2	0	0	0	1	219.46	0.103552	0.10368	-0.0134522	2	2.0478	12	-1.39472e-06
2	0	0	0	1	220.36	0.112552	0.112649	-0.0121402	2	2.04779	12	-1.36758e-06
2	0	0	0	1	221.26	0.121552	0.121913	-0.0115256	2	2.04778	12	-1.40512e-06
2	0	0	1	1	222.16	0.130552	0.132127	-0.0100752	2	2.04777	12	-1.33121e-06
2	0	0	1	1	223.06	0.139552	0.140565	-0.00939789	2	2.04776	12	-1.32101e-06
2	0	0	1	1	223.96	0.148552	0.149389	-0.00815738	2	2.04776	12	-1.21862e-06
2	0	0	1	1	224.86	0.157553	0.156469	-0.00739027	2	2.04775	12	-1.15635e-06
2	1	0	1	1	225.76	0.166553	0.165499	-0.00593798	2	2.04775	12	-9.82728e-07
2	1	0	1	1	226.66	0.175553	0.176449	-0.0048779	2	2.04774	12	-8.60698e-07
2	1	0	1	1	227.56	0.184553	0.185322	-0.00389627	2	2.04774	12	-7.22063e-07
2	1	0	1	1	228.46	0.193553	0.192808	-0.00251249	2	2.04774	12	-4.84429e-07
2	1	0	1	1	229.36	0.202553	0.201879	-0.00114912	2	2.04773	12	-2.31982e-07
2	1	0	1	1	230.26	0.211554	0.210767	0.000444586	2	2.04773	12	9.3704e-08
2	1	0	1	1	231.16	0.220554	0.220352	0.00202004	2	2.04774	12	4.45118e-07
2	1	0	1	1	232.06	0.229554	0.22922	0.00385131	2	2.04774	12	8.828e-07
2	1	0	0	1	232.961	0.238554	0.237877	0.00570865	2	2.04774	12	1.35796e-06
2	1	0	0	1	233.861	0.247554	0.246441	0.00764609	2	2.04775	12	1.88431e-06
2	1	0	0	1	234.761	0.256554	0.25566	0.00998876	2	2.04776	12	2.55373e-06
2	1	0	0	1	235.661	0.265555	0.265026	0.0125	2	2.04777	12	3.31281e-06
2	1	0	0	1	236.561	0.274555	0.275572	0.0153889	2	2.04778	12	4.24075e-06
2	1	0	0	1	237.461	0.283555	0.28488	0.0180991	2	2.0478	12	5.15606e-06
2	1	0	0	1	238.361	0.292555	0.292516	0.0217724	2	2.04782	12	6.36878e-06
2	1	0	0	1	239.261	0.301555	0.300598	0.0255455	2	2.04784	12	7.67891e-06
2	1	0	0	1	240.161	0.310555	0.310797	0.0296246	2	2.04786	12	9.20722e-06
2	1	0	0	1	241.061	0.319556	0.32014	0.0340588	2	2.04789	12	1.09036e-05
2	1	0	0	1	241.961	0.328556	0.328626	0.0387291	2	2.04793	12	1.27274e-05
2	1	0	1	1	242.861	0.337556	0.336374	0.0440341	2	2.04796	12	1.48119e-05
2	1	0	1	1	243.761	0.346556	0.346173	0.0493161	2	2.04801	12	1.70719e-05
2	1	0	1	1	244.661	0.355556	0.355038	0.055046	2	2.04806	12	1.95434e-05
2	1	0	1	1	245.561	0.364556	0.364647	0.0615313	2	2.04811	12	2.24372e-05
2	1	0	1	1	246.461	0.373557	0.37449	0.0682045	2	2.04817	12	2.55419e-05
2	1	0	1	1	247.361	0.382557	0.382865	0.0757599	2	2.04823	12	2.90059e-05
2	1	0	1	1	248.261	0.391557	0.392995	0.0840516	2	2.04831	12	3.30319e-05
2	1	0	1	1	249.161	0.400557	0.400591	0.0938159	2	2.04839	12	3.75818e-05
2	1	0	1	1	250.061	0.409557	0.408918	0.103901	2	2.04848	12	4.24869e-05
2	1	0	1	1	250.961	0.418557	0.416942	0.114502	2	2.04858	12	4.77407e-05
2	1	0	1	1	251.861	0.427558	0.428477	0.124331	2	2.04869	12	5.32729e-05
2	1	0	1	1	252.761	0.436558	0.437156	0.133733	2	2.0488	12	5.84621e-05
2	1	0	0	1	253.661	0.445558	0.446519	0.142689	2	2.04893	12	6.37133e-05
2	1	0	0	1	254.561	0.454558	0.453535	0.151096	2	2.04906	12	6.85272e-05
2	1	0	0	1	255.461	0.463558	0.461677	0.159858	2	2.0492	12	7.38027e-05
2	1	0	0	1	256.361	0.472558	0.473124	0.167921	2	2.04935	12	7.94475e-05
2	1	0	0	1	257.261	0.481559	0.482942	0.176633	2	2.04951	12	8.53033e-05
2	1	0	0	1	258.161	0.490559	0.490351	0.185117	2	2.04967	12	9.07724e-05
2	1	0	0	1	259.061	0.499559	0.499086	0.193846	2	2.04984	12	9.6746e-05
2	1	0	0	1	259.961	0.508559	0.506671	0.20264	2	2.05002	12	0.000102672
2	1	0	0	1	260.861	0.517559	0.517795	0.211385	2	2.05021	12	0.000109454
2	1	0	0	1	261.761	0.526559	0.527546	0.220659	2	2.05041	12	0.000116408
2	1	0	0	1	262.661	0.53556	0.536732	0.230653	2	2.05061	12	0.000123799
2	1	0	0	1	263.561	0.54456	0.544718	0.241083	2	2.05083	12	0.000131322
2	1	0	1	1	264.461	0.55356	0.550687	0.252823	2	2.05105	12	0.000139226
2	1	0	1	1	265.361	0.56256	0.562176	0.266401	2	2.05129	12	0.000149764
2	1	0	1	1	266.261	0.57156	0.573735	0.283598	2	2.05154	12	0.00016271
2	1	0	1	1	267.161	0.58056	0.581338	0.307518	2	2.0518	12	0.000178772
2	1	0	1	1	268.061	0.589561	0.589423	0.341402	2	2.0521	12	0.00020123
2	1	0	1	1	268.961	0.598561	0.596332	0.393202	2	2.05243	12	0.000234479
2	1	0	1	1	269.861	0.607561	0.607485	0.470994	2	2.05282	12	0.000286122
2	1	0	1	1	270.761	0.616561	0.619841	0.586135	2	2.05329	12	0.000363311
2	1	0	1	1	271.661	0.625561	0.626901	0.750991	2	2.05389	12	0.000470798
2	1	0	1	1	272.561	0.634561	0.631288	0.975812	2	2.05467	12	0.000616019
2	1	0	1	1	273.491	0.643862	0.641106	1.28506	2	2.05572	11	0.000823858
2	1	0	1	1	274.391	0.652862	0.652425	1.66006	2	2.05705	11	0.00108306
2	1	0	0	1	275.291	0.661862	0.659381	2.12417	2	2.05875	11	0.00140064
2	1	0	0	1	276.191	0.670862	0.66926	2.67692	2	2.0609	11	0.00179155
2	1	0	0	1	277.091	0.679862	0.681377	3.32368	2	2.0636	11	0.00226468
2	1	0	0	1	277.991	0.688862	0.690092	4.06334	2	2.06692	11	0.00280408
2	1	0	0	1	278.891	0.697863	0.697138	4.89914	2	2.07096	11	0.00341537
2	1	0	0	1	279.791	0.706863	0.706302	5.82747	2	2.07578	11	0.00411595
2	1	0	0	1	280.691	0.715863	0.714225	6.84995	2	2.08149	11	0.0048924
2	1	0	0	1	281.591	0.724863	0.725568	7.96116	2	2.08815	11	0.00577637
2	1	0	0	1	282.491	0.733863	0.734355	9.16298	2	2.09586	11	0.00672888
2	1	0	0	1	283.391	0.742863	0.74177	10.4521	2	2.10469	11	0.00775302
2	1	0	0	1	284.321	0.752164	0.752624	11.9003	2	2.11509	10	0.00895645
2	1	0	1	1	285.222	0.761164	0.760291	13.3571	2	2.12646	10	0.0101553
2	1	0	1	1	286.122	0.770164	0.771012	14.9251	2	2.1392	10	0.0115075
2	1	0	1	1	287.022	0.779164	0.777291	16.5533	2	2.15336	10	0.0128667
2	1	0	1	1	287.922	0.788164	0.786584	18.2649	2	2.16903	10	0.0143669
2	1	0	1	1	288.822	0.797164	0.798438	20.0522	2	2.18628	10	0.0160105
2	1	0	1	1	289.722	0.806165	0.806334	21.9185	2	2.20517	10	0.0176736
2	1	0	1	1	290.622	0.815165	0.817419	23.8653	2	2.22578	10	0.0195079
2	1	0	1	1	291.522	0.824165	0.822621	25.8596	2	2.24816	10	0.0212727
2	1	0	1	1	292.422	0.833165	0.832475	27.9035	2	2.27236	10	0.0232289
2	1	0	1	1	293.322	0.842165	0.842721	30.0421	2	2.29845	10	0.0253171
2	1	0	1	1	294.222	0.851166	0.853348	32.2236	2	2.32646	10	0.0274979
2	1	0	1	1	295.122	0.860166	0.860382	34.3712	2	2.35645	10	0.0295723
2	1	0	0	1	296.022	0.869166	0.866335	36.6859	2	2.38845	10	0.0317822
2	1	0	0	1	296.922	0.878166	0.877602	39.0189	2	2.42252	10	0.034243
2	1	0	0	1	297.822	0.887166	0.88659	41.3315	2	2.45867	10	0.0366441
2	1	0	0	1	298.722	0.896166	0.897415	43.7179	2	2.49698	10	0.0392331
2	1	0	0	1	299.622	0.905166	0.905491	46.1492	2	2.53742	10	0.0417876
2	1	0	0	1	300.522	0.914167	0.914915	48.9439	2	2.58028	10	0.0447795
2	1	0	0	1	301.422	0.923167	0.923424	51.4684	2	2.62551	10	0.0475272
2	1	0	0	1	302.322	0.932167	0.932019	53.9893	2	2.67297	10	0.050319
2	1	0	0	1	303.222	0.941167	0.941098	56.5046	2	2.72271	10	0.0531763
2	1	0	0	1	304.122	0.950167	0.949661	59.1475	2	2.77481	10	0.05617
2	1	0	0	1	305.022	0.959167	0.958915	62.9776	2	2.82953	10	0.0603901
2	1	0	1	1	305.922	0.968168	0.967572	65.7583	2	2.88746	10	0.0636259
2	1	0	1	1	306.822	0.977168	0.977532	68.4781	2	2.94787	10	0.0669395
2	1	0	1	1	307.722	0.986168	0.986676	71.1228	2	3.01069	10	0.0701752
2	1	0	1	1	308.622	0.995168	0.99546	74.0994	2	3.0761	10	0.073763
2	1	0	1	1	309.362	0.997468	0.996649	74.5591	2	3.13152	10	0.0743092
2	1	0	1	1	310.262	0.988468	0.989275	71.0496	2	3.197	10	0.0702876
2	1	0	1	1	311.162	0.979468	0.98164	67.9371	2	3.2595	10	0.0666898
2	1	0	1	1	312.062	0.970468	0.970447	64.8407	2	3.31926	10	0.0629245
2	1	0	0	1	312.963	0.961468	0.961315	61.7784	2	3.37622	10	0.0593885
2	1	0	0	1	313.863	0.952467	0.950363	58.8345	2	3.43051	10	0.0559142
2	1	0	0	1	314.763	0.943467	0.943954	55.9626	2	3.48216	10	0.0528262
2	1	0	0	1	315.663	0.934467	0.93514	53.1713	2	3.53123	10	0.0497226
2	1	0	0	1	316.563	0.925467	0.926728	50.4184	2	3.57783	10	0.0467241
2	1	0	0	1	317.463	0.916467	0.91526	47.8278	2	3.62201	10	0.0437749
2	1	0	0	1	318.363	0.907466	0.905835	45.2279	2	3.66387	10	0.040969
2	1	0	0	1	319.263	0.898466	0.8998	42.6268	2	3.70338	10	0.0383556
2	1	0	0	1	320.163	0.889466	0.8914	40.2446	2	3.74064	10	0.035874
2	1	0	0	1	321.063	0.880466	0.880801	37.883	2	3.7758	10	0.0333674
2	1	0	0	1	321.963	0.871466	0.871056	35.5525	2	3.80885	10	0.0309682
2	1	0	1	1	322.863	0.862466	0.862089	33.2956	2	3.83981	10	0.0287037
2	1	0	1	1	323.763	0.853465	0.855705	31.1154	2	3.86878	10	0.0266256
2	1	0	1	1	324.663	0.844465	0.843552	29.0145	2	3.89582	10	0.0244752
2	1	0	1	1	325.563	0.835465	0.834891	26.9816	2	3.921	10	0.0225267
2	1	0	1	1	326.463	0.826465	0.825241	24.9852	2	3.94437	10	0.0206189
2	1	0	1	1	327.363	0.817465	0.81928	23.1048	2	3.966	10	0.0189293
2	1	0	1	1	328.263	0.808465	0.809084	21.2986	2	3.98597	10	0.0172324
2	1	0	1	1	329.163	0.799465	0.799216	19.553	2	4.00434	10	0.015627
2	1	0	1	1	330.063	0.790464	0.7902	17.8916	2	4.02117	10	0.0141379
2	1	0	1	1	330.963	0.781464	0.781056	16.3047	2	4.03655	10	0.0127349
2	1	0	1	1	331.863	0.772464	0.771106	14.7959	2	4.05053	10	0.0114092
2	1	0	1	1	332.763	0.763464	0.763108	13.3632	2	4.06319	10	0.0101976
2	1	0	0	1	333.663	0.754464	0.753702	12.0285	2	4.0746	10	0.00906593
2	1	0	0	1	334.563	0.745463	0.746139	10.7405	2	4.08483	10	0.0080139
2	1	0	0	1	335.463	0.736463	0.736713	9.54787	2	4.09395	10	0.00703404
2	1	0	0	1	336.363	0.727463	0.727997	8.4277	2	4.10202	10	0.00613534
2	1	0	0	1	337.263	0.718463	0.717798	7.39267	2	4.10913	10	0.00530644
2	1	0	0	1	338.163	0.709463	0.709766	6.44711	2	4.11535	10	0.00457594
2	1	0	0	1	339.063	0.700463	0.699017	5.55689	2	4.12074	10	0.00388436
2	1	0	0	1	339.963	0.691463	0.689832	4.75497	2	4.12536	10	0.00328013
2	1	0	0	1	340.893	0.682162	0.682811	3.98738	2	4.12942	11	0.00272262
2	1	0	0	1	341.793	0.673162	0.673936	3.33153	2	4.1327	11	0.00224524
2	1	0	0	1	342.693	0.664162	0.662387	2.74743	2	4.13543	11	0.00181986
2	1	0	0	1	343.593	0.655162	0.654788	2.23315	2	4.13766	11	0.00146224
2	1	0	1	1	344.493	0.646162	0.64776	1.78432	2	4.13946	11	0.00115581
2	1	0	1	1	345.393	0.637162	0.638347	1.40212	2	4.14088	11	0.000895036
2	1	0	1	1	346.293	0.628161	0.629466	1.08	2	4.14199	11	0.000679825
2	1	0	1	1	347.193	0.619161	0.61819	0.813435	2	4.14284	11	0.000502858
2	1	0	1	1	348.093	0.610161	0.610245	0.593235	2	4.14346	11	0.000362019
2	1	0	1	1	349.023	0.600861	0.601778	0.41541	2	4.14392	12	0.000249984
2	1	0	1	1	349.923	0.591861	0.593977	0.281712	2	4.14423	12	0.000167331
2	1	0	1	1	350.823	0.58286	0.58312	0.179392	2	4.14443	12	0.000104607
2	1	0	1	1	351.723	0.57386	0.571934	0.102517	2	4.14455	12	5.86332e-05
2	1	0	1	1	352.623	0.56486	0.56272	0.0458805	2	4.14461	12	2.58179e-05
2	1	0	1	1	353.523	0.55586	0.55573	0.00461459	2	4.14463	12	2.56447e-06
2	1	0	1	1	354.423	0.54686	0.548496	-0.0255604	2	4.14462	12	-1.40198e-05
2	1	0	0	1	355.323	0.53786	0.538768	-0.0483596	2	4.14458	12	-2.60546e-05
2	0	0	0	1	356.223	0.52886	0.526334	-0.0647071	2	4.14453	12	-3.40575e-05
2	0	0	0	1	357.123	0.519859	0.518886	-0.0766582	2	4.14446	12	-3.97769e-05
2	0	0	0	1	358.023	0.510859	0.511448	-0.0859176	2	4.14439	12	-4.39424e-05
2	0	0	0	1	358.923	0.501859	0.503247	-0.0933818	2	4.1443	12	-4.69941e-05
2	0	0	0	1	359.823	0.492859	0.493432	-0.0989218	2	4.14421	12	-4.88112e-05
2	0	0	0	1	360.723	0.483859	0.482514	-0.103352	2	4.14412	12	-4.98687e-05
2	0	0	0	1	361.623	0.474858	0.474303	-0.106827	2	4.14402	12	-5.06684e-05
2	0	0	0	1	362.523	0.465858	0.466346	-0.108933	2	4.14392	12	-5.08003e-05
2	0	0	0	1	363.423	0.456858	0.457443	-0.110931	2	4.14382	12	-5.07447e-05
2	0	0	0	1	364.323	0.447858	0.448431	-0.112129	2	4.14372	12	-5.02821e-05
2	0	0	1	1	365.224	0.438858	0.438383	-0.113592	2	4.14362	12	-4.9797e-05
2	0	0	1	1	366.124	0.429858	0.429066	-0.114579	2	4.14351	12	-4.9162e-05
2	0	0	1	1	367.024	0.420858	0.420939	-0.115156	2	4.14341	12	-4.84736e-05
2	0	0	1	1	367.924	0.411857	0.413002	-0.115762	2	4.1433	12	-4.78098e-05
2	0	0	1	1	368.824	0.402857	0.402954	-0.116292	2	4.1432	12	-4.68602e-05
2	0	0	1	1	369.724	0.393857	0.391926	-0.11657	2	4.14309	12	-4.5687e-05
2	0	0	1	1	370.624	0.384857	0.384604	-0.117069	2	4.14298	12	-4.50251e-05
2	0	0	1	1	371.524	0.375857	0.377269	-0.116851	2	4.14288	12	-4.40842e-05
2	0	0	1	1	372.424	0.366856	0.368303	-0.116935	2	4.14277	12	-4.30673e-05
2	0	0	1	1	373.324	0.357856	0.358434	-0.116459	2	4.14266	12	-4.17428e-05
2	0	0	1	1	374.224	0.348856	0.347169	-0.116298	2	4.14256	12	-4.03749e-05
2	0	0	1	1	375.124	0.339856	0.338437	-0.116174	2	4.14245	12	-3.93176e-05
2	0	0	0	1	376.024	0.330856	0.33198	-0.115852	2	4.14235	12	-3.84606e-05
2	0	0	0	1	376.924	0.321856	0.32376	-0.115098	2	4.14224	12	-3.72643e-05
2	0	0	0	1	377.824	0.312855	0.312936	-0.113495	2	4.14214	12	-3.55167e-05
2	0	0	0	1	378.724	0.303855	0.302567	-0.111619	2	4.14203	12	-3.37724e-05
2	0	0	0	1	379.624	0.294855	0.294298	-0.109226	2	4.14193	12	-3.21449e-05
2	0	0	0	1	380.524	0.285855	0.28658	-0.106348	2	4.14184	12	-3.04772e-05
2	0	0	0	1	381.424	0.276855	0.27831	-0.103459	2	4.14174	12	-2.87936e-05
2	0	0	0	1	382.324	0.267855	0.267747	-0.100278	2	4.14165	12	-2.6849e-05
2	0	0	0	1	383.224	0.258854	0.257052	-0.0970932	2	4.14156	12	-2.4958e-05
2	0	0	0	1	384.124	0.249854	0.248301	-0.0939775	2	4.14147	12	-2.33347e-05
2	0	0	0	1	385.024	0.240854	0.240614	-0.0909093	2	4.14139	12	-2.1874e-05
2	0	0	0	1	385.924	0.231854	0.232925	-0.0875144	2	4.14131	12	-2.03843e-05
2	0	0	1	1	386.824	0.222854	0.222924	-0.0843564	2	4.14123	12	-1.88051e-05
2	0	0	1	1	387.724	0.213854	0.211169	-0.0808071	2	4.14115	12	-1.70639e-05
2	0	0	1	1	388.624	0.204853	0.201151	-0.0780541	2	4.14108	12	-1.57007e-05
2	0	0	1	1	389.524	0.195853	0.195763	-0.0749554	2	4.14101	12	-1.46735e-05
2	0	0	1	1	390.424	0.186853	0.189244	-0.0715749	2	4.14095	12	-1.35451e-05
2	0	0	1	1	391.324	0.177853	0.179345	-0.0686956	2	4.14088	12	-1.23202e-05
2	0	0	1	1	392.224	0.168853	0.166294	-0.0657163	2	4.14082	12	-1.09282e-05
2	0	0	1	1	393.124	0.159853	0.157488	-0.0630961	2	4.14076	12	-9.93688e-06
2	0	0	1	1	394.024	0.150853	0.150307	-0.0605063	2	4.14071	12	-9.0945e-06
2	0	0	1	1	394.924	0.141852	0.144526	-0.0578913	2	4.14065	12	-8.36679e-06
2	0	0	1	1	395.824	0.132852	0.134088	-0.055927	2	4.1406	12	-7.49914e-06
2	0	0	0	1	396.724	0.123852	0.120987	-0.053795	2	4.14055	12	-6.50849e-06
2	0	0	0	1	397.624	0.114852	0.113162	-0.0516693	2	4.1405	12	-5.84699e-06
2	0	0	0	1	398.524	0.105852	0.106769	-0.049994	2	4.14046	12	-5.3378e-06
2	0	0	0	1	399.424	0.0968515	0.0986403	-0.0480594	2	4.14041	12	-4.74059e-06
2	0	0	0	1	400.324	0.0878513	0.0877231	-0.0466251	2	4.14037	12	-4.0901e-06
2	0	0	0	1	401.224	0.0788511	0.0785594	-0.0449142	2	4.14033	12	-3.52844e-06
2	0	0	0	1	402.124	0.069851	0.0677409	-0.0437606	2	4.14029	12	-2.96438e-06
2	0	0	0	1	403.024	0.0608508	0.0609087	-0.0422098	2	4.14025	12	-2.57094e-06
2	0	0	0	1	403.924	0.0518506	0.0522552	-0.0413313	2	4.14021	12	-2.15977e-06
2	0	0	0	1	404.824	0.0428505	0.0438531	-0.0396917	2	4.14017	12	-1.7406e-06
2	0	0	0	1	405.724	0.0338503	0.0336339	-0.0388276	2	4.14014	12	-1.30592e-06
2	0	0	0	1	406.624	0.0248501	0.0246898	-0.0379993	2	4.1401	12	-9.38194e-07
2	0	0	1	1	407.524	0.01585	0.0157297	-0.0370902	2	4.14007	12	-5.83418e-07
2	0	0	1	1	408.424	0.00684982	0.00547765	-0.0362623	2	4.14004	12	-1.98632e-07
2	0	0	1	0	409.165	0.0005497	0.000592947	-0.034922	3	4.14001	12	-2.07069e-08
2	0	0	1	0	410.065	0.00954987	0.00926661	-0.0308195	3	4.13998	12	-2.85592e-07
2	0	0	1	0	410.965	0.01855	0.0177493	-0.0285359	3	4.13995	12	-5.06493e-07
2	0	0	0	0	411.865	0.0275502	0.0279303	-0.0235877	3	4.13993	12	-6.58811e-07
2	0	0	0	0	412.765	0.0365504	0.0362476	-0.0228412	3	4.13991	12	-8.27937e-07
2	0	0	0	0	413.665	0.0455505	0.0475625	-0.0211461	3	4.13989	12	-1.00576e-06
2	0	0	0	0	414.565	0.0545507	0.0549898	-0.0203025	3	4.13987	12	-1.11643e-06
2	0	0	0	0	415.465	0.0635509	0.0638013	-0.0189313	3	4.13985	12	-1.20784e-06
2	0	0	0	0	416.365	0.072551	0.0715585	-0.0180484	3	4.13984	12	-1.29152e-06
2	0	0	0	0	417.265	0.0815512	0.0793316	-0.0171456	3	4.13982	12	-1.36019e-06
2	0	0	0	0	418.165	0.0905514	0.0903867	-0.0160353	3	4.13981	12	-1.44938e-06
2	1	0	0	0	419.065	0.0995515	0.0996246	-0.0153674	3	4.13979	12	-1.53097e-06
2	0	0	0	0	419.965	0.108552	0.108975	-0.0141004	3	4.13978	12	-1.53659e-06
2	0	0	0	0	420.865	0.117552	0.116979	-0.0136037	3	4.13977	12	-1.59136e-06
2	0	0	1	0	421.765	0.126552	0.126822	-0.0124878	3	4.13976	12	-1.58372e-06
2	0	0	1	0	422.665	0.135552	0.136082	-0.0113253	3	4.13975	12	-1.54117e-06
2	0	0	1	0	423.565	0.144552	0.144411	-0.0103511	3	4.13974	12	-1.49482e-06
2	0	0	1	0	424.465	0.153553	0.153816	-0.0096094	3	4.13973	12	-1.47808e-06
2	0	0	1	0	425.365	0.162553	0.161834	-0.00809321	3	4.13972	12	-1.30976e-06
2	1	0	1	0	426.265	0.171553	0.172228	-0.00745283	3	4.13972	12	-1.28359e-06
2	0	0	1	0	427.165	0.180553	0.179245	-0.00621976	3	4.13971	12	-1.11486e-06
2	1	0	1	0	428.065	0.189553	0.188956	-0.00507219	3	4.13971	12	-9.58421e-07
2	0	0	1	0	428.965	0.198553	0.197408	-0.0037005	3	4.1397	12	-7.30507e-07
2	0	0	1	0	429.865	0.207554	0.20675	-0.00225694	3	4.1397	12	-4.66623e-07
2	1	0	1	0	430.765	0.216554	0.218183	-0.000588352	3	4.1397	12	-1.28369e-07
2	1	0	1	0	431.665	0.225554	0.226994	0.000436543	3	4.1397	12	9.90927e-08
2	1	0	0	0	432.565	0.234554	0.234325	0.0027591	3	4.1397	12	6.46525e-07
2	1	0	0	0	433.465	0.243554	0.241519	0.00481339	3	4.13971	12	1.16252e-06
2	1	0	0	0	434.365	0.252554	0.252251	0.00724166	3	4.13971	12	1.82672e-06
2	1	0	0	0	435.265	0.261555	0.262269	0.00937582	3	4.13972	12	2.45899e-06
2	1	0	0	0	436.165	0.270555	0.270884	0.0120334	3	4.13973	12	3.25965e-06
2	1	0	0	0	437.065	0.279555	0.278741	0.0155476	3	4.13974	12	4.33376e-06
2	1	0	0	0	437.965	0.288555	0.287657	0.0186309	3	4.13976	12	5.35929e-06
2	1	0	0	0	438.865	0.297555	0.298131	0.0223152	3	4.13978	12	6.65287e-06
2	1	0	0	0	439.765	0.306555	0.308036	0.0261861	3	4.1398	12	8.06624e-06
2	1	0	0	0	440.665	0.315556	0.315668	0.0304337	3	4.13983	12	9.60694e-06
2	1	0	0	0	441.565	0.324556	0.324928	0.0353121	3	4.13986	12	1.14739e-05
2	1	0	0	0	442.465	0.333556	0.331795	0.0400297	3	4.13989	12	1.32817e-05
2	1	0	1	0	443.366	0.342556	0.341343	0.0451444	3	4.13993	12	1.54097e-05
2	1	0	1	0	444.266	0.351556	0.351511	0.0509385	3	4.13997	12	1.79055e-05
2	1	0	1	0	445.166	0.360556	0.360239	0.0570626	3	4.14002	12	2.05562e-05
2	1	0	1	0	446.066	0.369557	0.37002	0.0636013	3	4.14008	12	2.35337e-05
2	1	0	1	0	446.966	0.378557	0.379382	0.0705952	3	4.14014	12	2.67826e-05
2	1	0	1	0	447.866	0.387557	0.388409	0.0787804	3	4.14021	12	3.0599e-05
2	1	0	1	0	448.766	0.396557	0.395918	0.087827	3	4.14028	12	3.47723e-05
2	1	0	1	0	449.666	0.405557	0.405034	0.0981557	3	4.14037	12	3.97564e-05
2	1	0	1	0	450.566	0.414557	0.415517	0.108116	3	4.14046	12	4.49239e-05
2	1	0	1	0	451.466	0.423558	0.422233	0.118338	3	4.14057	12	4.99663e-05
2	1	0	1	0	452.366	0.432558	0.431587	0.127605	3	4.14068	12	5.50725e-05
2	1	0	1	0	453.266	0.441558	0.441001	0.137405	3	4.1408	12	6.05958e-05
2	1	0	0	0	454.166	0.450558	0.45132	0.145129	3	4.14093	12	6.54995e-05
2	1	0	0	0	455.066	0.459558	0.460371	0.153228	3	4.14106	12	7.05417e-05
2	1	0	0	0	455.966	0.468558	0.467336	0.161601	3	4.14121	12	7.55219e-05
2	1	0	0	0	456.866	0.477559	0.477652	0.169717	3	4.14136	12	8.10655e-05
2	1	0	0	0	457.766	0.486559	0.486176	0.17733	3	4.14151	12	8.62138e-05
2	1	0	0	0	458.666	0.495559	0.497355	0.185272	3	4.14168	12	9.21459e-05
2	1	0	0	0	459.566	0.504559	0.504429	0.193201	3	4.14185	12	9.7456e-05
2	1	0	0	0	460.466	0.513559	0.510462	0.200855	3	4.14203	12	0.000102529
2	1	0	0	0	461.366	0.522559	0.522766	0.20845	3	4.14222	12	0.000108971
2	1	0	0	0	462.266	0.53156	0.532145	0.216418	3	4.14241	12	0.000115166
2	1	0	0	0	463.166	0.54056	0.540622	0.225857	3	4.14261	12	0.000122103
2	1	0	1	0	464.066	0.54956	0.549359	0.234737	3	4.14282	12	0.000128955
2	1	0	1	0	464.966	0.55856	0.558992	0.245734	3	4.14304	12	0.000137363
2	1	0	1	0	465.866	0.56756	0.567356	0.26069	3	4.14327	12	0.000147904
2	1	0	1	0	466.766	0.57656	0.576588	0.279663	3	4.14351	12	0.00016125
2	1	0	1	0	467.666	0.585561	0.58551	0.308373	3	4.14378	12	0.000180556
2	1	0	1	0	468.566	0.594561	0.594728	0.351821	3	4.14408	12	0.000209238
2	1	0	1	0	469.466	0.603561	0.60371	0.418272	3	4.14442	12	0.000252515
2	1	0	1	0	470.366	0.612561	0.61314	0.517388	3	4.14485	12	0.000317231
2	1	0	1	0	471.266	0.621561	0.622801	0.65938	3	4.14537	12	0.000410663
2	1	0	1	0	472.166	0.630561	0.629365	0.856531	3	4.14606	12	0.000539071
2	1	0	1	0	473.096	0.639862	0.641731	1.12837	3	4.14698	11	0.000724111
2	1	0	1	0	473.996	0.648862	0.647608	1.46531	3	4.14815	11	0.000948946
2	1	0	0	0	474.896	0.657862	0.658784	1.88153	3	4.14965	11	0.00123952
2	1	0	0	0	475.796	0.666862	0.664355	2.38172	3	4.15157	11	0.00158231
2	1	0	0	0	476.696	0.675862	0.673519	2.97511	3	4.15398	11	0.00200379
2	1	0	0	0	477.596	0.684862	0.685978	3.66	3	4.15696	11	0.00251068
2	1	0	0	0	478.496	0.693863	0.693937	4.44386	3	4.1606	11	0.00308376
2	1	0	0	0	479.396	0.702863	0.701505	5.31706	3	4.165	11	0.00372994
2	1	0	0	0	480.296	0.711863	0.712294	6.2924	3	4.17022	11	0.00448204
2	1	0	0	0	481.196	0.720863	0.721685	7.35745	3	4.17636	11	0.00530976
2	1	0	0	0	482.096	0.729863	0.729062	8.5216	3	4.18351	11	0.00621277
2	1	0	0	0	482.996	0.738863	0.739041	9.77881	3	4.19174	11	0.00722694
2	1	0	0	0	483.926	0.748164	0.748127	11.2064	3	4.2015	10	0.00838385
2	1	0	1	0	484.826	0.757164	0.757481	12.658	3	4.21224	10	0.00958822
2	1	0	1	0	485.726	0.766164	0.765361	14.2068	3	4.22433	10	0.0108733
2	1	0	1	0	486.626	0.775164	0.774801	15.8389	3	4.23786	10	0.012272
2	1	0	1	0	487.526	0.784164	0.785018	17.5621	3	4.25289	10	0.0137866
2	1	0	1	0	488.426	0.793164	0.792097	19.3816	3	4.26952	10	0.0153521
2	1	0	1	0	489.326	0.802165	0.800359	21.2925	3	4.28782	10	0.0170417
2	1	0	1	0	490.226	0.811165	0.809736	23.2586	3	4.30787	10	0.0188333
2	1	0	1	0	491.126	0.820165	0.820949	25.3131	3	4.32974	10	0.0207808
2	1	0	1	0	492.026	0.829165	0.832134	27.4388	3	4.35349	10	0.0228328
2	1	0	1	0	492.926	0.838165	0.837195	29.65	3	4.37918	10	0.0248228
2	1	0	1	0	493.826	0.847165	0.846996	31.8951	3	4.40689	10	0.027015
2	1	0	1	0	494.726	0.856166	0.855343	34.2405	3	4.43664	10	0.0292873
2	1	0	0	0	495.627	0.865166	0.866009	36.6283	3	4.46854	10	0.0317204
2	1	0	0	0	496.527	0.874166	0.875503	39.1025	3	4.50263	10	0.0342344
2	1	0	0	0	497.427	0.883166	0.883837	41.7713	3	4.53903	10	0.036919
2	1	0	0	0	498.327	0.892166	0.892443	44.3461	3	4.5778	10	0.0395764
2	1	0	0	0	499.227	0.901166	0.900973	46.973	3	4.6189	10	0.0423214
2	1	0	0	0	500.127	0.910167	0.908663	49.5793	3	4.66239	10	0.0450509
2	1	0	0	0	501.027	0.919167	0.91796	52.3687	3	4.70823	10	0.0480723
2	1	0	0	0	501.927	0.928167	0.928479	55.0569	3	4.75658	10	0.0511192
2	1	0	0	0	502.827	0.937167	0.935638	57.9145	3	4.8075	10	0.054187
2	1	0	0	0	503.727	0.946167	0.94467	60.6528	3	4.86086	10	0.0572969
2	1	0	0	0	504.627	0.955167	0.954449	64.1346	3	4.91702	10	0.0612132
2	1	0	0	0	505.527	0.964167	0.965392	66.957	3	4.97609	10	0.0646398
2	1	0	1	0	506.427	0.973168	0.974253	69.6131	3	5.03762	10	0.0678208
2	1	0	1	0	507.327	0.982168	0.980666	72.4274	3	5.1016	10	0.0710271
2	1	0	1	0	508.227	0.991168	0.991206	75.2188	3	5.16809	10	0.0745573
2	1	0	1	0	509.092	0.999818	0.999573	78.0114	3	5.23439	10	0.0779781
2	1	0	1	0	509.867	0.992468	0.990707	75.0707	3	5.29376	10	0.0743731
2	1	0	1	0	510.767	0.983468	0.983258	71.5176	3	5.35975	10	0.0703202
2	1	0	1	0	511.667	0.974468	0.974216	68.7726	3	5.42303	10	0.0669993
2	1	0	0	0	512.567	0.965468	0.965447	65.5693	3	5.48352	10	0.0633037
2	1	0	0	0	513.467	0.956467	0.956346	62.2944	3	5.54105	10	0.059575
2	1	0	0	0	514.367	0.947467	0.947062	59.2348	3	5.59567	10	0.056099
2	1	0	0	0	515.267	0.938467	0.939138	56.2626	3	5.6476	10	0.0528384
2	1	0	0	0	516.167	0.929467	0.931009	53.331	3	5.69691	10	0.0496516
2	1	0	0	0	517.067	0.920467	0.921104	50.4854	3	5.74359	10	0.0465023
2	1	0	0	0	517.967	0.911467	0.911028	47.6389	3	5.7877	10	0.0434003
2	1	0	0	0	518.867	0.902466	0.901638	45.1495	3	5.82949	10	0.0407085
2	1	0	0	0	519.767	0.893466	0.89282	42.4428	3	5.86891	10	0.0378938
2	1	0	0	0	520.667	0.884466	0.885559	40.0519	3	5.90599	10	0.0354684
2	1	0	0	0	521.567	0.875466	0.875549	37.5805	3	5.94091	10	0.0329036
2	1	0	0	0	522.467	0.866466	0.866901	35.217	3	5.97364	10	0.0305297
2	1	0	1	0	523.368	0.857466	0.856707	33.1218	3	6.00447	10	0.0283757
2	1	0	1	0	524.268	0.848465	0.846974	30.8194	3	6.03323	10	0.0261032
2	1	0	1	0	525.168	0.839465	0.839498	28.6502	3	6.05998	10	0.0240518
2	1	0	1	0	526.068	0.830465	0.831122	26.5187	3	6.0848	10	0.0220402
2	1	0	1	0	526.968	0.821465	0.821161	24.527	3	6.10775	10	0.0201406
2	1	0	1	0	527.868	0.812465	0.810823	22.6031	3	6.12894	10	0.0183271
2	1	0	1	0	528.768	0.803465	0.803228	20.7164	3	6.14842	10	0.01664
2	1	0	1	0	529.668	0.794464	0.794361	18.9093	3	6.16624	10	0.0150208
2	1	0	1	0	530.568	0.785464	0.786136	17.2396	3	6.1825	10	0.0135527
2	1	0	1	0	531.468	0.776464	0.777831	15.6276	3	6.19727	10	0.0121556
2	1	0	1	0	532.368	0.767464	0.767314	14.1041	3	6.21063	10	0.0108223
2	1	0	1	0	533.268	0.758464	0.757988	12.6658	3	6.22267	10	0.00960054
2	1	0	0	0	534.168	0.749464	0.749967	11.3115	3	6.23344	10	0.00848324
2	1	0	0	0	535.068	0.740463	0.741161	10.0437	3	6.24303	10	0.00744401
2	1	0	0	0	535.968	0.731463	0.733092	8.86592	3	6.25154	10	0.00649954
2	1	0	0	0	536.868	0.722463	0.721195	7.78548	3	6.25902	10	0.00561484
2	1	0	0	0	537.768	0.713463	0.712583	6.78702	3	6.26556	10	0.00483632
2	1	0	0	0	538.668	0.704463	0.704082	5.84678	3	6.27123	10	0.00411661
2	1	0	0	0	539.568	0.695463	0.696135	5.00223	3	6.27611	10	0.00348222
2	1	0	0	0	540.498	0.686162	0.686261	4.2181	3	6.28039	11	0.00289472
2	1	0	0	0	541.398	0.677162	0.676928	3.53818	3	6.28387	11	0.00239509
2	1	0	0	0	542.298	0.668162	0.667602	2.92743	3	6.28677	11	0.00195436
2	1	0	0	0	543.198	0.659162	0.659014	2.393	3	6.28916	11	0.00157702
2	1	0	1	0	544.098	0.650162	0.651702	1.92832	3	6.29109	11	0.00125669
2	1	0	1	0	544.998	0.641162	0.641766	1.52895	3	6.29264	11	0.000981227
2	1	0	1	0	545.898	0.632161	0.632212	1.18874	3	6.29385	11	0.000751535
2	1	0	1	0	546.798	0.623161	0.622483	0.90407	3	6.29478	11	0.000562768
2	1	0	1	0	547.698	0.614161	0.615437	0.672017	3	6.29549	11	0.000413584
2	1	0	1	0	548.598	0.605161	0.606165	0.484273	3	6.296	11	0.000293549
2	1	0	1	0	549.528	0.595861	0.596243	0.331601	3	6.29638	12	0.000197714
2	1	0	1	0	550.428	0.586861	0.585464	0.218473	3	6.29662	12	0.000127908
2	1	0	1	0	551.328	0.57786	0.576118	0.132447	3	6.29677	12	7.63053e-05
2	1	0	1	0	552.228	0.56886	0.569832	0.0682359	3	6.29686	12	3.8883e-05
2	1	0	1	0	553.128	0.55986	0.560362	0.0207511	3	6.29689	12	1.16281e-05
2	1	0	1	0	554.028	0.55086	0.550514	-0.0135973	3	6.29689	12	-7.48549e-06
2	1	0	0	0	554.928	0.54186	0.540461	-0.0386894	3	6.29687	12	-2.09101e-05
2	0	0	0	0	555.828	0.53286	0.53272	-0.0579317	3	6.29682	12	-3.08614e-05
2	0	0	0	0	556.728	0.523859	0.523755	-0.0719753	3	6.29676	12	-3.76974e-05
2	0	0	0	0	557.628	0.514859	0.516115	-0.0822207	3	6.29669	12	-4.24353e-05
2	0	0	0	0	558.528	0.505859	0.506431	-0.0900516	3	6.29661	12	-4.56049e-05
2	0	0	0	0	559.428	0.496859	0.495352	-0.096172	3	6.29652	12	-4.7639e-05
2	0	0	0	0	560.328	0.487859	0.486215	-0.101508	3	6.29643	12	-4.93549e-05
2	0	0	0	0	561.228	0.478859	0.479057	-0.105206	3	6.29633	12	-5.03995e-05
2	0	0	0	0	562.128	0.469858	0.470604	-0.108224	3	6.29623	12	-5.09306e-05
2	0	0	0	0	563.028	0.460858	0.462341	-0.110137	3	6.29613	12	-5.09209e-05
2	0	0	0	0	563.928	0.451858	0.451799	-0.111696	3	6.29603	12	-5.04641e-05
2	0	0	0	0	564.828	0.442858	0.442202	-0.113194	3	6.29593	12	-5.00547e-05
2	0	0	1	0	565.728	0.433858	0.434965	-0.11456	3	6.29582	12	-4.98295e-05
2	0	0	1	0	566.628	0.424858	0.424254	-0.115708	3	6.29572	12	-4.90895e-05
2	0	0	1	0	567.528	0.415857	0.414912	-0.116301	3	6.29561	12	-4.82548e-05
2	0	0	1	0	568.428	0.406857	0.405982	-0.116647	3	6.29551	12	-4.73567e-05
2	0	0	1	0	569.328	0.397857	0.398023	-0.117517	3	6.2954	12	-4.67746e-05
2	0	0	1	0	570.228	0.388857	0.388629	-0.117913	3	6.29529	12	-4.58246e-05
2	0	0	1	0	571.128	0.379857	0.381194	-0.118298	3	6.29518	12	-4.50945e-05
2	0	0	1	0	572.028	0.370857	0.372329	-0.118233	3	6.29508	12	-4.40214e-05
2	0	0	1	0	572.928	0.361856	0.360981	-0.118329	3	6.29497	12	-4.27147e-05
2	0	0	1	0	573.828	0.352856	0.351017	-0.11846	3	6.29486	12	-4.15815e-05
2	0	0	1	0	574.728	0.343856	0.342626	-0.117942	3	6.29475	12	-4.041e-05
2	0	0	0	0	575.629	0.334856	0.335566	-0.117878	3	6.29465	12	-3.95557e-05
2	0	0	0	0	576.529	0.325856	0.325955	-0.117102	3	6.29454	12	-3.81698e-05
2	0	0	0	0	577.429	0.316856	0.315568	-0.115571	3	6.29443	12	-3.64704e-05
2	0	0	0	0	578.329	0.307855	0.307657	-0.114191	3	6.29433	12	-3.51316e-05
2	0	0	0	0	579.229	0.298855	0.297511	-0.112444	3	6.29423	12	-3.34532e-05
2	0	0	0	0	580.129	0.289855	0.290567	-0.109767	3	6.29412	12	-3.18948e-05
2	0	0	0	0	581.029	0.280855	0.281194	-0.106804	3	6.29403	12	-3.00327e-05
2	0	0	0	0	581.929	0.271855	0.270116	-0.103714	3	6.29393	12	-2.80147e-05
2	0	0	0	0	582.829	0.262855	0.262307	-0.100779	3	6.29384	12	-2.64351e-05
2	0	0	0	0	583.729	0.253854	0.253613	-0.0977421	3	6.29375	12	-2.47887e-05
2	0	0	0	0	584.629	0.244854	0.246635	-0.0944083	3	6.29366	12	-2.32844e-05
2	0	0	0	0	585.529	0.235854	0.23686	-0.0910848	3	6.29358	12	-2.15743e-05
2	0	0	1	0	586.429	0.226854	0.226021	-0.0880478	3	6.2935	12	-1.99007e-05
2	0	0	1	0	587.329	0.217854	0.216428	-0.0845526	3	6.29342	12	-1.82995e-05
2	0	0	1	0	588.229	0.208854	0.207354	-0.0815008	3	6.29334	12	-1.68996e-05
2	0	0	1	0	589.129	0.199853	0.200224	-0.078811	3	6.29327	12	-1.57799e-05
2	0	0	1	0	590.029	0.190853	0.191232	-0.0757051	3	6.2932	12	-1.44773e-05
2	0	0	1	0	590.929	0.181853	0.182061	-0.0722586	3	6.29313	12	-1.31555e-05
2	0	0	1	0	591.829	0.172853	0.171466	-0.0691969	3	6.29307	12	-1.18649e-05
2	0	0	1	0	592.729	0.163853	0.163117	-0.0667429	3	6.29301	12	-1.08869e-05
2	0	0	1	0	593.629	0.154853	0.155316	-0.0641467	3	6.29295	12	-9.96298e-06
2	0	0	1	0	594.529	0.145852	0.148085	-0.0612949	3	6.29289	12	-9.07683e-06
2	0	0	1	0	595.429	0.136852	0.138138	-0.0587953	3	6.29283	12	-8.12186e-06
2	0	0	1	0	596.329	0.127852	0.125631	-0.0568046	3	6.29278	12	-7.1364e-06
2	0	0	0	0	597.229	0.118852	0.116388	-0.0549092	3	6.29273	12	-6.39075e-06
2	0	0	0	0	598.129	0.109852	0.109676	-0.0525841	3	6.29268	12	-5.76722e-06
2	0	0	0	0	599.029	0.100852	0.102447	-0.0506113	3	6.29263	12	-5.18499e-06
2	0	0	0	0	599.929	0.0918514	0.0917423	-0.0490759	3	6.29259	12	-4.50234e-06
2	0	0	0	0	600.829	0.0828512	0.0816578	-0.0474548	3	6.29255	12	-3.87506e-06
2	0	0	0	0	601.729	0.0738511	0.072737	-0.045931	3	6.2925	12	-3.34089e-06
2	0	0	0	0	602.629	0.0648509	0.0650191	-0.0448064	3	6.29246	12	-2.91327e-06
2	0	0	0	0	603.529	0.0558507	0.0572417	-0.0437563	3	6.29242	12	-2.50469e-06
2	0	0	0	0	604.429	0.0468506	0.0472464	-0.0422027	3	6.29238	12	-1.99393e-06
2	0	0	0	0	605.329	0.0378504	0.0373073	-0.0409322	3	6.29234	12	-1.52707e-06
2	0	0	0	0	606.229	0.0288502	0.0286325	-0.0404727	3	6.29231	12	-1.15883e-06
2	0	0	1	0	607.129	0.0198505	0.0193217	-0.0397018	3	6.29227	12	-7.67107e-07
2	0	0	1	0	608.029	0.0108499	0.0115016	-0.0381475	3	6.29224	12	-4.38757e-07
2	0	0	1	0	608.929	0.00184972	0.00330208	-0.0372407	3	6.2922	12	-1.22972e-07
2	0	0	0	1	609.67	-0.00555042	-0.00442966	-0.0368533	3	6.29217	12	1.63248e-07
2	0	0	0	1	610.57	-0.0145506	-0.0133834	-0.0359393	3	6.29214	12	4.80988e-07
2	0	0	0	1	611.47	-0.0235508	-0.0237171	-0.0349157	3	6.29211	12	8.28098e-07
2	0	0	0	1	612.37	-0.0325509	-0.0335289	-0.034605	3	6.29208	12	1.16027e-06
2	0	0	0	1	613.27	-0.0415511	-0.0402402	-0.0340613	3	6.29205	12	1.37064e-06
2	0	0	0	1	614.17	-0.0505513	-0.0500691	-0.0331227	3	6.29202	12	1.65842e-06
2	0	0	0	1	615.07	-0.0595514	-0.0594471	-0.0325865	3	6.29199	12	1.93717e-06
2	0	0	0	1	615.97	-0.0685516	-0.06996	-0.0321584	3	6.29196	12	2.2498e-06
2	0	0	0	1	616.87	-0.0775518	-0.0773789	-0.0318274	3	6.29193	12	2.46277e-06
2	0	0	1	1	617.77	-0.0865515	-0.086591	-0.0313144	3	6.2919	12	2.71155e-06
2	0	0	0	1	618.228	-0.091202	-0.0900017	-0.0354978	3	6.29188	12	3.19486e-06